datetime;time;load_cell;board_temperature;pressure_macki;pressure_tank;distance;acc_x;acc_y;acc_z;motor1_speed;motor2_speed;procedure_time;mechanical_state;motor1_temperature;motor2_temperature
2024-11-07_11-13-29.916366;483823;-134.666626;22.375;0.023333;4.022917;65535.0;0.092773;0.027344;1.517578;-60000;-60000;122313;0;0;0
2024-11-07_11-13-30.041571;483823;-134.666626;22.375;0.023333;4.022917;65535.0;0.092773;0.027344;1.517578;-60000;-60000;122413;0;0;0
2024-11-07_11-13-30.151634;484050;-142.666626;22.375;0.03125;4.022917;65535.0;0.09375;0.017578;1.542969;-60000;-60000;122554;0;0;0
2024-11-07_11-13-30.323651;484050;-142.666626;22.375;0.03125;4.022917;65535.0;0.09375;0.017578;1.542969;-60000;-60000;122714;0;0;0
2024-11-07_11-13-30.449646;484272;-142.666626;22.375;0.053333;4.0225;65535.0;0.086914;0.023438;1.515625;-60000;-60000;122853;0;0;0
2024-11-07_11-13-30.809602;484483;-144.0;22.375;4.040417;4.03;65535.0;0.092773;0.030273;1.625;-60000;-60000;123180;0;0;0
2024-11-07_11-13-30.966271;484709;-161.333374;22.375;0.090833;4.05125;65535.0;0.09375;0.027344;1.681641;-60000;-60000;123338;0;0;0
2024-11-07_11-13-31.107192;484922;-153.333374;22.375;0.087917;4.05;65535.0;0.112305;0.013672;1.711914;-60000;-60000;123493;0;0;0
2024-11-07_11-13-31.247926;485142;-161.333374;22.375;0.1;4.062917;65535.0;0.100586;0.018555;1.728516;-60000;-60000;123643;0;0;0
2024-11-07_11-13-31.420454;485142;-161.333374;22.375;0.1;4.062917;65535.0;0.100586;0.018555;1.728516;20000;20000;123803;1;0;0
2024-11-07_11-13-31.561026;485358;-161.333374;22.375;0.469167;4.24375;65535.0;0.111328;0.017578;1.765625;20000;20000;123963;1;0;0
2024-11-07_11-13-31.717279;485572;-177.333374;22.375;0.408333;4.257084;65535.0;0.113281;0.020508;1.770508;20000;20000;124104;0;0;0
2024-11-07_11-13-31.889298;485781;-174.666626;22.375;0.12625;4.028333;65535.0;0.111328;0.025391;1.820312;69000;69000;15;0;0;0
2024-11-07_11-13-32.061420;485781;-174.666626;22.375;0.12625;4.028333;65535.0;0.111328;0.025391;1.820312;69000;69000;155;0;0;0
2024-11-07_11-13-32.218740;485988;-177.333374;22.375;0.045833;4.022917;65535.0;0.112305;0.024414;1.833984;69000;69000;324;0;0;0
2024-11-07_11-13-32.437629;486199;-189.333374;22.375;0.059583;4.023333;65535.0;0.116211;0.022461;1.841797;0;0;559;0;0;0
2024-11-07_11-13-32.547048;486411;-197.333374;22.375;0.106667;4.018333;65535.0;0.114258;0.022461;1.813477;0;0;663;0;0;0
2024-11-07_11-13-32.672045;486411;-197.333374;22.375;0.106667;4.018333;65535.0;0.114258;0.022461;1.813477;0;0;783;0;0;0
2024-11-07_11-13-32.828560;486630;-190.666626;22.375;0.155;4.017917;65535.0;0.116211;0.019531;1.808594;0;0;935;0;0;0
2024-11-07_11-13-32.986410;486854;-177.333374;22.375;0.045417;4.0175;65535.0;0.116211;0.022461;1.805664;0;0;1095;0;0;0
2024-11-07_11-13-33.126630;487059;-188.0;22.375;0.0325;4.0175;65535.0;0.114258;0.027344;1.806641;0;0;1255;0;0;0
2024-11-07_11-13-33.360933;487269;-180.0;22.375;0.032917;4.0175;65535.0;0.114258;0.022461;1.80957;0;0;1473;0;0;0
2024-11-07_11-13-33.485938;487269;-180.0;22.375;0.032917;4.0175;65535.0;0.114258;0.022461;1.80957;22666;22666;1593;0;0;0
2024-11-07_11-13-33.705726;487484;-185.333374;22.375;0.077917;4.0175;65535.0;0.116211;0.020508;1.799805;68000;68000;1825;0;0;0
2024-11-07_11-13-33.897209;487688;-190.666626;22.375;0.022083;4.0175;65535.0;0.113281;0.020508;1.827148;68000;68000;2016;0;0;0
2024-11-07_11-13-34.066032;487904;-189.333374;22.375;0.023333;4.0175;65535.0;0.119141;0.021484;1.816406;68000;68000;2176;0;0;0
2024-11-07_11-13-34.222926;488117;-209.333374;22.375;0.078333;4.017084;65535.0;0.116211;0.019531;1.818359;22666;22666;2345;0;0;0
2024-11-07_11-13-34.368737;488117;-209.333374;22.375;0.078333;4.017084;65535.0;0.116211;0.019531;1.818359;-35000;-35000;2486;0;0;0
2024-11-07_11-13-34.519950;488348;-202.666626;22.375;0.78125;4.37625;65535.0;0.117188;0.009766;1.822266;-70000;-70000;2636;0;0;0
2024-11-07_11-13-34.754676;488575;-205.333374;22.375;4.0175;4.017084;65535.0;0.12207;0.005859;1.838867;-70000;-70000;2865;0;0;0
2024-11-07_11-13-34.848462;488575;-205.333374;22.375;4.0175;4.017084;65535.0;0.12207;0.005859;1.838867;-70000;-70000;2956;0;0;0
2024-11-07_11-13-35.004682;488784;-197.333374;22.375;4.021667;4.016667;65535.0;0.12793;0.003906;1.857422;-23333;-23333;3114;0;0;0
2024-11-07_11-13-35.176754;489001;-188.0;22.375;0.169583;4.224167;65535.0;0.125;0.010742;1.837891;29500;29500;3273;0;0;0
2024-11-07_11-13-35.317393;489207;-190.666626;22.375;0.26875;4.014167;65535.0;0.130859;0.021484;1.851562;59000;59000;3425;0;0;0
2024-11-07_11-13-35.473682;489207;-190.666626;22.375;0.26875;4.014167;65535.0;0.130859;0.021484;1.851562;59000;59000;3585;0;0;0
2024-11-07_11-13-35.630011;489418;-190.666626;22.375;0.084167;4.0125;65535.0;0.126953;0.025391;1.858398;59000;59000;3733;0;0;0
2024-11-07_11-13-35.802002;489634;-210.666626;22.375;0.15875;3.805834;65535.0;0.123047;0.027344;1.832031;29500;29500;3903;0;0;0
2024-11-07_11-13-35.942624;489839;-213.333374;22.3125;0.904167;0.805417;65535.0;0.123047;0.024414;1.820312;0;0;4045;0;0;0
2024-11-07_11-13-36.083591;489839;-213.333374;22.3125;0.904167;0.805417;65535.0;0.123047;0.024414;1.820312;0;0;4205;0;0;0
2024-11-07_11-13-36.240825;490048;-193.333374;22.375;0.830833;3.8;65535.0;0.125;0.023438;1.834961;0;0;4354;0;0;0
2024-11-07_11-13-36.412701;490263;-177.333374;22.375;0.895833;3.787917;65535.0;0.125;0.019531;1.818359;0;0;4528;0;2;0
2024-11-07_11-13-36.568995;490483;-168.0;22.375;1.007083;3.76375;65535.0;0.138672;0.022461;1.837891;-26666;-26666;4679;0;0;0
2024-11-07_11-13-36.709893;490483;-168.0;22.375;1.007083;3.76375;65535.0;0.138672;0.022461;1.837891;-66666;-66666;4835;0;0;0
2024-11-07_11-13-36.866474;490702;-174.666626;22.375;1.12625;3.74;65535.0;0.133789;0.021484;1.853516;-80000;-80000;4985;0;0;0
2024-11-07_11-13-37.038655;490918;-178.666626;22.375;1.24625;3.7275;65535.0;0.134766;0.019531;1.859375;-80000;-80000;5153;0;0;0
2024-11-07_11-13-37.211489;491134;-161.333374;22.375;1.330833;3.714583;65535.0;0.134766;0.02832;1.889648;-80000;-80000;5324;0;0;0
2024-11-07_11-13-37.336494;491134;-161.333374;22.375;1.330833;3.714583;65535.0;0.134766;0.02832;1.889648;-80000;-80000;5455;0;0;0
2024-11-07_11-13-37.493148;491343;-142.666626;22.375;1.395833;3.713334;65535.0;0.143555;0.03418;1.870117;-60000;-60000;5605;0;0;0
2024-11-07_11-13-37.681006;491561;-124.0;22.375;1.35;3.706667;65535.0;0.134766;0.039062;1.789062;-60000;-60000;5770;0;0;0
2024-11-07_11-13-37.821967;491561;-124.0;22.375;1.35;3.706667;65535.0;0.134766;0.039062;1.789062;-60000;-60000;5927;0;0;0
2024-11-07_11-13-37.978756;491776;-108.0;22.375;1.15125;3.70625;65535.0;0.138672;0.022461;1.827148;-60000;-60000;6086;0;0;0
2024-11-07_11-13-38.151168;491982;-136.0;22.375;1.067917;3.725417;65535.0;0.138672;0.017578;1.818359;-60000;-60000;6255;0;0;0
2024-11-07_11-13-38.276463;492189;-129.333374;22.375;0.902917;3.743334;65535.0;0.144531;0.019531;1.827148;-60000;-60000;6396;0;0;0
2024-11-07_11-13-38.432858;492189;-129.333374;22.375;0.902917;3.743334;65535.0;0.144531;0.019531;1.827148;-60000;-60000;6556;0;0;0
2024-11-07_11-13-38.589604;492415;-144.0;22.375;0.74875;3.719167;65535.0;0.146484;0.020508;1.829102;-60000;-60000;6705;0;0;0
2024-11-07_11-13-38.948982;492843;-190.666626;22.375;0.596667;3.73625;65535.0;0.151367;0.024414;1.821289;20000;20000;7049;1;0;0
2024-11-07_11-13-39.137078;492843;-190.666626;22.375;0.596667;3.73625;65535.0;0.151367;0.024414;1.821289;20000;20000;7185;0;0;0
2024-11-07_11-13-39.246457;493052;-177.333374;22.375;0.747083;3.915;65535.0;0.15625;0.025391;1.860352;20000;20000;7364;0;0;0
2024-11-07_11-13-39.487386;493261;-188.0;22.3125;0.508333;3.716666;65535.0;0.157227;0.03125;1.84668;69000;69000;129;0;2;0
2024-11-07_11-13-39.684548;493468;-189.333374;22.375;0.228333;3.717084;65535.0;0.154297;0.030273;1.863281;69000;69000;330;0;0;0
2024-11-07_11-13-39.857057;493683;-196.0;22.375;0.064583;3.717917;65535.0;0.157227;0.019531;1.883789;69000;69000;490;0;0;0
2024-11-07_11-13-40.013486;493898;-210.666626;22.375;0.05125;3.905833;65535.0;0.160156;0.027344;1.888672;0;0;649;0;0;0
2024-11-07_11-13-40.185781;493898;-210.666626;22.375;0.05125;3.905833;65535.0;0.160156;0.027344;1.888672;0;0;814;0;0;0
2024-11-07_11-13-40.326948;494108;-202.666626;22.375;0.10125;3.7225;65535.0;0.158203;0.016602;1.893555;0;0;973;0;0;0
2024-11-07_11-13-40.483342;494322;-196.0;22.375;0.09625;3.722083;65535.0;0.163086;0.015625;1.90918;0;0;1129;0;0;0
2024-11-07_11-13-40.655280;494528;-197.333374;22.375;0.066667;3.722083;65535.0;0.164062;0.009766;1.908203;0;0;1301;0;0;0
2024-11-07_11-13-40.780577;494528;-197.333374;22.375;0.066667;3.722083;65535.0;0.164062;0.009766;1.908203;22666;22666;1430;0;0;0
2024-11-07_11-13-40.999389;494739;-193.333374;22.375;0.021667;3.747083;65535.0;0.160156;0.004883;1.879883;56666;56666;1639;0;0;0
2024-11-07_11-13-41.155966;494965;-197.333374;22.375;0.022917;3.7275;65535.0;0.163086;0.019531;1.875977;68000;68000;1795;0;0;0
2024-11-07_11-13-41.265788;495168;-202.666626;22.375;0.02125;3.7275;65535.0;0.161133;0.015625;1.853516;68000;68000;1909;0;0;0
2024-11-07_11-13-41.437665;495168;-202.666626;22.375;0.02125;3.7275;65535.0;0.161133;0.015625;1.853516;68000;68000;2067;0;0;0
2024-11-07_11-13-41.593913;495378;-202.666626;22.375;0.024167;3.727083;65535.0;0.166992;0.017578;1.855469;22666;22666;2211;0;0;0
2024-11-07_11-13-41.719516;495611;-218.666626;22.375;0.279583;3.786667;65535.0;0.163086;0.020508;1.841797;-35000;-35000;2360;0;0;0
2024-11-07_11-13-41.891427;495818;-216.0;22.375;0.152917;3.727917;65535.0;0.163086;0.021484;1.845703;-70000;-70000;2540;0;0;0
2024-11-07_11-13-42.126298;496038;-208.0;22.375;0.059583;3.739583;65535.0;0.166992;0.024414;1.849609;-70000;-70000;2770;0;0;0
2024-11-07_11-13-42.298368;496038;-208.0;22.375;0.059583;3.739583;65535.0;0.166992;0.024414;1.849609;-70000;-70000;2940;0;0;0
2024-11-07_11-13-42.392216;496250;-188.0;22.375;0.109167;3.7275;65535.0;0.166992;0.020508;1.862305;-35000;-35000;3031;0;0;0
2024-11-07_11-13-42.532747;496463;-189.333374;22.375;0.32;3.767083;65535.0;0.174805;0.016602;1.865234;19666;19666;3180;0;0;0
2024-11-07_11-13-42.767150;496680;-193.333374;22.375;0.035833;3.732917;65535.0;0.175781;0.022461;1.870117;59000;59000;3412;0;0;0
2024-11-07_11-13-43.001845;496894;-202.666626;22.375;0.025417;3.732917;65535.0;0.175781;0.022461;1.87793;59000;59000;3638;0;0;0
2024-11-07_11-13-43.158092;496894;-202.666626;22.375;0.025417;3.732917;65535.0;0.175781;0.022461;1.87793;59000;59000;3809;0;0;0
2024-11-07_11-13-43.298718;497104;-206.666626;22.375;0.0875;3.735833;65535.0;0.178711;0.015625;1.881836;59000;59000;3941;0;0;0
2024-11-07_11-13-43.533385;497310;-225.333374;22.375;0.223333;3.544583;65535.0;0.177734;0.020508;1.882812;29500;29500;4149;0;0;0
2024-11-07_11-13-43.643397;497529;-222.666626;22.375;0.770417;3.560834;65535.0;0.183594;0.017578;1.896484;0;0;4276;0;0;0
2024-11-07_11-13-43.752766;497529;-222.666626;22.375;0.770417;3.560834;65535.0;0.183594;0.017578;1.896484;0;0;4388;0;0;0
2024-11-07_11-13-43.894297;497750;-190.666626;22.375;1.029167;3.61125;65535.0;0.18457;0.018555;1.891602;0;0;4539;0;0;0
2024-11-07_11-13-44.066565;497958;-178.666626;22.375;0.89125;3.514584;65535.0;0.182617;0.017578;1.868164;0;0;4708;0;0;0
2024-11-07_11-13-44.307000;498182;-164.0;22.375;0.9875;3.488334;65535.0;0.186523;0.017578;1.87207;-13333;-13333;4928;0;0;0
2024-11-07_11-13-44.396294;498182;-164.0;22.375;0.9875;3.488334;65535.0;0.186523;0.017578;1.87207;-40000;-40000;5040;0;0;0
2024-11-07_11-13-44.536822;498388;-158.666626;22.375;1.110833;3.469584;65535.0;0.188477;0.018555;1.853516;-66666;-66666;5169;0;0;0
2024-11-07_11-13-44.677604;498388;-158.666626;22.375;1.110833;3.469584;65535.0;0.188477;0.018555;1.853516;-80000;-80000;5324;0;0;0
2024-11-07_11-13-44.958982;498616;-145.333374;22.375;1.225833;3.459167;65535.0;0.189453;0.010742;1.855469;-80000;-80000;5479;0;0;0
2024-11-07_11-13-45.162605;499038;-121.333374;22.375;1.405833;3.443333;65535.0;0.181641;0.012695;1.838867;-80000;-80000;5795;0;0;0
2024-11-07_11-13-45.335278;499038;-121.333374;22.375;1.405833;3.443333;65535.0;0.181641;0.012695;1.838867;-60000;-60000;5949;0;0;0
2024-11-07_11-13-45.522731;499263;-108.0;22.375;1.449167;3.45875;65535.0;0.201172;0.011719;1.914062;-60000;-60000;6176;0;0;0
2024-11-07_11-13-45.632332;499468;-89.333374;22.375;1.428333;3.43875;65535.0;0.195312;0.011719;1.852539;-60000;-60000;6261;0;0;0
2024-11-07_11-13-45.835512;499683;-22.666626;22.375;1.248333;3.437917;65535.0;0.198242;0.015625;1.857422;-60000;-60000;6457;0;0;0
2024-11-07_11-13-45.976522;499889;81.333252;22.375;1.0275;3.44375;65535.0;0.201172;0.019531;1.864258;-60000;-60000;6620;0;0;0
2024-11-07_11-13-46.086069;499889;81.333252;22.375;1.0275;3.44375;65535.0;0.201172;0.019531;1.864258;-60000;-60000;6728;0;0;0
2024-11-07_11-13-46.273572;500101;145.333252;22.375;0.902917;3.463333;65535.0;0.200195;0.011719;1.854492;20000;20000;6902;1;0;0
2024-11-07_11-13-46.414608;500309;-154.666626;22.375;0.8275;3.510834;65535.0;0.208984;0.012695;1.874023;20000;20000;7053;0;0;0
2024-11-07_11-13-46.634195;500521;-177.333374;22.375;0.745;3.450834;65535.0;0.208008;0.019531;1.888672;20000;20000;7280;0;0;0
2024-11-07_11-13-46.715877;500521;-177.333374;22.375;0.745;3.450834;65535.0;0.208008;0.019531;1.888672;20000;20000;7360;0;0;0
2024-11-07_11-13-46.955147;500728;-174.666626;22.375;0.662917;3.45625;65535.0;0.205078;0.014648;1.849609;20000;20000;7595;0;0;0
2024-11-07_11-13-47.057927;500938;-177.333374;22.375;0.62375;3.447917;65535.0;0.201172;0.016602;1.81543;20000;20000;7700;0;0;0
2024-11-07_11-13-47.182961;500938;-177.333374;22.375;0.62375;3.447917;65535.0;0.201172;0.016602;1.81543;20000;20000;7831;0;0;0
2024-11-07_11-13-47.339259;501165;-172.0;22.375;3.453334;3.453334;65535.0;0.201172;0.020508;1.782227;69000;69000;81;0;0;0
2024-11-07_11-13-47.715045;501591;-158.666626;22.375;0.212083;3.453334;65535.0;0.198242;0.03418;1.710938;69000;69000;435;0;0;0
2024-11-07_11-13-47.824433;501591;-158.666626;22.375;0.212083;3.453334;65535.0;0.198242;0.03418;1.710938;0;0;549;0;0;0
2024-11-07_11-13-47.980705;501795;-152.0;22.375;0.101667;3.45875;65535.0;0.192383;0.041992;1.650391;0;0;724;0;0;0
2024-11-07_11-13-48.199738;502011;-153.333374;22.375;0.084167;3.460834;65535.0;0.19043;0.033203;1.608398;0;0;946;0;0;0
2024-11-07_11-13-48.277865;502011;-153.333374;22.375;0.084167;3.460834;65535.0;0.19043;0.033203;1.608398;0;0;1016;0;0;0
2024-11-07_11-13-48.434506;502219;-138.666626;22.375;0.076667;3.459167;65535.0;0.1875;0.027344;1.587891;0;0;1160;0;0;0
2024-11-07_11-13-48.700127;502448;-138.666626;22.375;0.036667;3.459167;65535.0;0.186523;0.032227;1.550781;11333;11333;1440;0;0;0
2024-11-07_11-13-48.888543;502662;-142.666626;22.375;0.021667;3.464167;65535.0;0.174805;0.030273;1.500977;34000;34000;1614;0;0;0
2024-11-07_11-13-49.076871;502871;-138.666626;22.375;0.084167;3.464584;65535.0;0.171875;0.03125;1.536133;56666;56666;1800;0;0;0
2024-11-07_11-13-49.233986;503078;-137.333374;22.375;0.026667;3.464167;65535.0;0.162109;0.023438;1.514648;68000;68000;1950;0;0;0
2024-11-07_11-13-49.375296;503291;-142.666626;22.375;0.02875;3.464584;65535.0;0.15625;0.029297;1.494141;68000;68000;2106;0;0;0
2024-11-07_11-13-49.562863;503291;-142.666626;22.375;0.02875;3.464584;65535.0;0.15625;0.029297;1.494141;45333;45333;2273;0;0;0
2024-11-07_11-13-49.688202;503499;-153.333374;22.375;0.036667;3.464584;65535.0;0.147461;0.024414;1.500977;-11666;-11666;2431;0;0;0
2024-11-07_11-13-49.860073;503709;-136.0;22.375;0.299167;3.584167;65535.0;0.139648;0.018555;1.482422;-70000;-70000;2580;0;0;0
2024-11-07_11-13-50.107955;503930;-128.0;22.375;0.06125;3.470834;65535.0;0.129883;0.018555;1.464844;-70000;-70000;2829;0;0;0
2024-11-07_11-13-50.205736;503930;-128.0;22.375;0.06125;3.470834;65535.0;0.129883;0.018555;1.464844;-70000;-70000;2929;0;0;0
2024-11-07_11-13-50.377818;504156;-125.333374;22.375;0.066667;3.469584;65535.0;0.12207;0.021484;1.446289;-58333;-58333;3109;0;0;0
2024-11-07_11-13-50.487188;504358;-118.666626;22.375;0.084167;3.470834;65535.0;0.119141;0.026367;1.427734;-11666;-11666;3220;0;0;0
2024-11-07_11-13-50.690824;504573;-90.666626;22.375;0.3775;3.495833;65535.0;0.108398;0.025391;1.375;19666;19666;3407;0;0;0
2024-11-07_11-13-50.800232;504573;-90.666626;22.375;0.3775;3.495833;65535.0;0.108398;0.025391;1.375;59000;59000;3534;0;0;0
2024-11-07_11-13-50.942489;504778;-73.333374;22.375;0.116667;3.469584;65535.0;0.09375;0.022461;1.268555;59000;59000;3669;0;0;0
2024-11-07_11-13-51.097918;504994;-62.666626;22.375;0.0375;3.47375;65535.0;0.076172;0.026367;1.129883;59000;59000;3830;0;0;0
2024-11-07_11-13-51.285926;504994;-62.666626;22.375;0.0375;3.47375;65535.0;0.076172;0.026367;1.129883;59000;59000;3999;0;0;0
2024-11-07_11-13-51.427093;505195;-34.666626;22.4375;0.139167;3.28125;65535.0;0.057617;0.023438;0.988281;29500;29500;4159;0;0;0
2024-11-07_11-13-51.583367;505398;-16.0;22.4375;0.70875;3.2975;65535.0;0.044922;0.027344;0.841797;0;0;4309;0;0;0
2024-11-07_11-13-51.739965;505621;18.666626;22.375;0.92625;3.4975;65535.0;0.025391;0.02832;0.668945;0;0;4480;0;0;0
2024-11-07_11-13-51.896379;505621;18.666626;22.375;0.92625;3.4975;65535.0;0.025391;0.02832;0.668945;0;0;4621;0;0;0
2024-11-07_11-13-52.052627;505834;53.333252;22.4375;3.265417;3.2575;65535.0;0.018555;0.026367;0.543945;0;0;4792;0;0;0
2024-11-07_11-13-52.208877;506043;97.333252;22.4375;0.919583;3.24875;65535.0;0.004883;0.023438;0.405273;-26666;-26666;4931;0;0;0
2024-11-07_11-13-52.412550;506268;117.333252;22.4375;1.044583;3.220417;65535.0;0.00293;0.02832;0.324219;-66666;-66666;5140;0;0;0
2024-11-07_11-13-52.538311;506268;117.333252;22.4375;1.044583;3.220417;65535.0;0.00293;0.02832;0.324219;-80000;-80000;5259;0;0;0
2024-11-07_11-13-52.679651;506486;140.0;22.4375;1.16;3.204167;65535.0;-0.001953;0.02832;0.224609;-80000;-80000;5389;0;0;0
2024-11-07_11-13-52.945994;506705;172.0;22.4375;1.265417;3.193334;65535.0;-0.001953;0.027344;0.175781;-80000;-80000;5560;0;0;0
2024-11-07_11-13-53.134085;506905;216.0;22.4375;1.349583;3.1875;65535.0;-0.001953;0.026367;0.126953;-60000;-60000;5871;0;0;0
2024-11-07_11-13-53.369447;507106;258.666748;22.4375;1.392917;3.32875;65535.0;-0.004883;0.029297;0.082031;20000;20000;6086;1;0;0
2024-11-07_11-13-53.463778;507326;392.0;22.4375;3.184167;3.180417;65535.0;-0.00293;0.030273;0.070312;20000;20000;6191;1;0;0
2024-11-07_11-13-53.620437;507528;581.333252;22.4375;1.392083;3.41375;65535.0;-0.00293;0.03418;0.044922;20000;20000;6350;1;0;0
2024-11-07_11-13-53.870522;507738;504.0;22.4375;1.212083;3.240417;65535.0;-0.005859;0.03418;0.023438;20000;20000;6610;0;0;0
2024-11-07_11-13-53.948654;507738;504.0;22.4375;1.212083;3.240417;65535.0;-0.005859;0.03418;0.023438;20000;20000;6680;0;0;0
2024-11-07_11-13-54.073888;507961;498.666748;22.4375;0.846667;3.188334;65535.0;-0.003906;0.029297;0.033203;20000;20000;6810;0;0;0
2024-11-07_11-13-54.230111;507961;498.666748;22.4375;0.846667;3.188334;65535.0;-0.003906;0.029297;0.033203;20000;20000;6970;0;0;0
2024-11-07_11-13-54.402880;508171;389.333252;22.4375;0.794583;3.190833;65535.0;-0.004883;0.030273;0.027344;20000;20000;7119;0;0;0
2024-11-07_11-13-54.685143;508592;181.333252;22.4375;0.6125;3.187917;65535.0;-0.004883;0.03125;0.032227;20000;20000;7411;0;0;0
2024-11-07_11-13-54.857354;508592;181.333252;22.4375;0.6125;3.187917;65535.0;-0.004883;0.03125;0.032227;20000;20000;7593;0;0;0
2024-11-07_11-13-55.014349;508809;113.333252;22.4375;0.544167;3.189167;65535.0;-0.00293;0.03418;0.036133;20000;20000;7750;0;0;0
2024-11-07_11-13-55.280927;509023;117.333252;22.4375;0.474167;3.193334;65535.0;-0.011719;0.027344;0.033203;69000;69000;226;0;0;0
2024-11-07_11-13-55.499928;509240;117.333252;22.4375;0.372917;3.193334;65535.0;-0.006836;0.035156;0.041992;69000;69000;438;0;0;0
2024-11-07_11-13-55.656761;509448;113.333252;22.5;0.207083;3.193334;65535.0;-0.011719;0.030273;0.040039;0;0;598;0;0;0
2024-11-07_11-13-55.907154;509661;121.333252;22.5;0.58375;3.225834;65535.0;-0.012695;0.03125;0.030273;0;0;843;0;0;0
2024-11-07_11-13-56.079741;509878;113.333252;22.5;0.086667;3.199167;65535.0;-0.010742;0.027344;0.046875;0;0;1010;0;0;0
2024-11-07_11-13-56.408454;510313;110.666748;22.5;0.045833;3.19875;65535.0;-0.011719;0.02832;0.048828;0;0;1350;0;0;0
2024-11-07_11-13-56.689714;510313;110.666748;22.5;0.045833;3.19875;65535.0;-0.011719;0.02832;0.048828;34000;34000;1511;0;0;0
2024-11-07_11-13-56.892962;510756;106.666748;22.5;0.021667;3.204167;65535.0;-0.011719;0.032227;0.068359;68000;68000;1831;0;0;0
2024-11-07_11-13-57.033809;510756;106.666748;22.5;0.021667;3.204167;65535.0;-0.011719;0.032227;0.068359;68000;68000;1981;0;0;0
2024-11-07_11-13-57.205711;510970;106.666748;22.5;0.025;3.204167;65535.0;-0.014648;0.03125;0.051758;68000;68000;2141;0;0;0
2024-11-07_11-13-57.362650;511186;104.0;22.5;0.03375;3.204167;65535.0;-0.011719;0.032227;0.051758;45333;45333;2301;0;0;0
2024-11-07_11-13-57.518805;511391;105.333252;22.5;0.1125;3.212917;65535.0;-0.013672;0.033203;0.037109;-11666;-11666;2451;0;0;0
2024-11-07_11-13-57.659463;511391;105.333252;22.5;0.1125;3.212917;65535.0;-0.013672;0.033203;0.037109;-70000;-70000;2611;0;0;0
2024-11-07_11-13-57.816353;511608;106.666748;22.5;0.234583;3.234167;65535.0;-0.010742;0.036133;0.036133;-70000;-70000;2758;0;0;0
2024-11-07_11-13-57.988239;511838;109.333252;22.5;0.072083;3.204167;65535.0;-0.011719;0.035156;0.018555;-70000;-70000;2920;0;0;0
2024-11-07_11-13-58.144997;512065;117.333252;22.5;0.09625;3.205417;65535.0;-0.011719;0.037109;0.019531;-35000;-35000;3081;0;0;0
2024-11-07_11-13-58.285633;512065;117.333252;22.5;0.09625;3.205417;65535.0;-0.011719;0.037109;0.019531;19666;19666;3231;0;0;0
2024-11-07_11-13-58.521006;512268;117.333252;22.5;0.652917;3.319167;65535.0;-0.012695;0.033203;0.008789;59000;59000;3448;0;0;0
2024-11-07_11-13-58.802742;512700;117.333252;22.5;0.075417;3.214167;65535.0;-0.010742;0.02832;0.015625;59000;59000;3738;0;0;0
2024-11-07_11-13-59.037082;512908;109.333252;22.5;0.135833;3.032084;65535.0;-0.014648;0.033203;0.008789;59000;59000;3967;0;0;0
2024-11-07_11-13-59.240207;513122;104.0;22.5;0.659167;3.052083;65535.0;-0.009766;0.032227;0.014648;29500;29500;4171;0;0;0
2024-11-07_11-13-59.380830;513122;104.0;22.5;0.659167;3.052083;65535.0;-0.009766;0.032227;0.014648;19666;19666;4316;0;0;0
2024-11-07_11-13-59.568331;513328;109.333252;22.5625;0.8825;3.03;65535.0;-0.015625;0.035156;0.006836;0;0;4494;0;0;0
2024-11-07_11-13-59.756418;513539;105.333252;22.5625;0.913333;3.162083;65535.0;-0.010742;0.03125;0.006836;0;0;4699;0;0;0
2024-11-07_11-13-59.850115;513751;105.333252;22.5625;0.90375;3.029584;65535.0;-0.016602;0.039062;0.008789;0;0;4800;0;0;0
2024-11-07_11-14-00.117058;513968;80.0;22.5625;1.022083;3.020417;65535.0;-0.014648;0.03125;0.030273;-13333;-13333;5048;0;0;0
2024-11-07_11-14-00.323631;514179;41.333374;22.5625;1.14125;3.01;65535.0;-0.015625;0.032227;0.03125;-53333;-53333;5260;0;0;0
2024-11-07_11-14-00.508569;514404;80.0;22.5625;1.24375;3.002084;65535.0;-0.018555;0.041016;0.022461;-80000;-80000;5439;0;0;0
2024-11-07_11-14-00.665330;514404;80.0;22.5625;1.24375;3.002084;65535.0;-0.018555;0.041016;0.022461;-80000;-80000;5588;0;0;0
2024-11-07_11-14-00.821939;514624;165.333252;22.5625;1.330833;2.998334;65535.0;-0.014648;0.027344;0.03125;-80000;-80000;5735;0;0;0
2024-11-07_11-14-00.962613;514844;201.333252;22.5625;1.390417;2.998334;65535.0;-0.012695;0.024414;0.022461;-80000;-80000;5900;0;0;0
2024-11-07_11-14-01.119048;514844;201.333252;22.5625;1.390417;2.998334;65535.0;-0.012695;0.024414;0.022461;-60000;-60000;6060;0;0;0
2024-11-07_11-14-01.338749;515065;288.0;22.5625;3.007084;3.06875;65535.0;-0.015625;0.03125;0.030273;-60000;-60000;6277;0;0;0
2024-11-07_11-14-01.557960;515275;342.666748;22.5625;1.05125;3.019583;65535.0;-0.015625;0.032227;0.029297;-60000;-60000;6500;0;0;0
2024-11-07_11-14-01.823955;515705;136.0;22.5625;0.62875;3.040417;65535.0;-0.018555;0.02832;0.025391;20000;20000;6770;1;0;0
2024-11-07_11-14-01.902073;515705;136.0;22.5625;0.62875;3.040417;65535.0;-0.018555;0.02832;0.025391;20000;20000;6841;1;0;0
2024-11-07_11-14-02.058627;515920;121.333252;22.5625;0.504167;3.301667;65535.0;-0.015625;0.029297;0.019531;20000;20000;6988;1;0;0
2024-11-07_11-14-02.183658;515920;121.333252;22.5625;0.504167;3.301667;65535.0;-0.015625;0.029297;0.019531;20000;20000;7135;0;0;0
2024-11-07_11-14-02.371653;516141;113.333252;22.5625;0.227917;3.287084;65535.0;-0.009766;0.041016;0.024414;20000;20000;7304;0;0;0
2024-11-07_11-14-02.527859;516354;117.333252;22.5625;0.0475;3.093333;65535.0;-0.018555;0.030273;0.020508;20000;20000;7458;0;0;0
2024-11-07_11-14-02.684528;516558;118.666748;22.625;0.1225;3.108334;65535.0;-0.016602;0.03418;0.019531;20000;20000;7628;0;0;0
2024-11-07_11-14-02.856402;516558;118.666748;22.625;0.1225;3.108334;65535.0;-0.016602;0.03418;0.019531;20000;20000;7798;0;0;0
2024-11-07_11-14-02.981403;516781;118.666748;22.625;0.0275;3.102917;65535.0;-0.017578;0.033203;0.023438;69000;69000;1;0;0;0
2024-11-07_11-14-03.170241;516998;117.333252;22.625;0.022083;3.113333;65535.0;-0.019531;0.032227;0.020508;69000;69000;190;0;0;0
2024-11-07_11-14-03.311223;517211;113.333252;22.625;0.021667;3.11875;65535.0;-0.017578;0.03125;0.019531;69000;69000;313;0;0;0
2024-11-07_11-14-03.499191;517211;113.333252;22.625;0.021667;3.11875;65535.0;-0.017578;0.03125;0.019531;69000;69000;485;0;0;0
2024-11-07_11-14-03.922370;517851;118.666748;22.625;0.106667;3.158334;65535.0;-0.018555;0.026367;0.0;0;0;940;0;0;0
2024-11-07_11-14-04.079493;517851;118.666748;22.625;0.106667;3.158334;65535.0;-0.018555;0.026367;0.0;0;0;1100;0;0;0
2024-11-07_11-14-04.255779;518058;117.333252;22.625;0.093333;3.167084;65535.0;-0.018555;0.02832;0.018555;0;0;1249;0;0;0
2024-11-07_11-14-04.534077;518278;117.333252;22.625;0.0225;3.166667;65535.0;-0.018555;0.032227;0.017578;34000;34000;1535;0;0;0
2024-11-07_11-14-04.753787;518491;117.333252;22.6875;0.05875;3.17375;65535.0;-0.017578;0.024414;0.019531;68000;68000;1774;0;0;0
2024-11-07_11-14-04.863639;518699;117.333252;22.6875;0.021667;3.186667;65535.0;-0.017578;0.02832;0.011719;68000;68000;1873;0;0;0
2024-11-07_11-14-05.051352;518904;109.333252;22.625;0.021667;3.193334;65535.0;-0.018555;0.029297;0.016602;68000;68000;2046;0;0;0
2024-11-07_11-14-05.176107;518904;109.333252;22.625;0.021667;3.193334;65535.0;-0.018555;0.029297;0.016602;56666;56666;2191;0;0;0
2024-11-07_11-14-05.442737;519334;109.333252;22.6875;0.309583;3.394583;65535.0;-0.017578;0.022461;0.013672;0;0;2451;0;0;0
2024-11-07_11-14-05.520879;519334;109.333252;22.6875;0.309583;3.394583;65535.0;-0.017578;0.022461;0.013672;-23333;-23333;2531;0;0;0
2024-11-07_11-14-05.646015;519541;109.333252;22.6875;0.267917;3.298333;65535.0;-0.018555;0.024414;0.013672;-70000;-70000;2661;0;0;0
2024-11-07_11-14-05.927798;519754;105.333252;22.6875;0.02125;3.22;65535.0;-0.019531;0.024414;0.016602;-70000;-70000;2934;0;0;0
2024-11-07_11-14-06.115440;519966;109.333252;22.6875;0.02875;3.230833;65535.0;-0.018555;0.030273;0.023438;-58333;-58333;3121;0;0;0
2024-11-07_11-14-06.271771;520175;113.333252;22.6875;0.115417;3.242083;65535.0;-0.020508;0.024414;0.015625;-46666;-46666;3278;0;0;0
2024-11-07_11-14-06.428321;520175;113.333252;22.6875;0.115417;3.242083;65535.0;-0.020508;0.024414;0.015625;19666;19666;3450;0;0;0
2024-11-07_11-14-06.601509;520382;120.0;22.6875;0.227083;3.29;65535.0;-0.018555;0.026367;0.026367;59000;59000;3601;0;0;0
2024-11-07_11-14-06.742181;520589;117.333252;22.6875;0.068333;3.252084;65535.0;-0.020508;0.027344;0.020508;59000;59000;3751;0;0;0
2024-11-07_11-14-06.963951;520804;117.333252;22.6875;0.03875;3.263333;65535.0;-0.020508;0.02832;0.013672;59000;59000;3980;0;0;0
2024-11-07_11-14-07.086859;520804;117.333252;22.6875;0.03875;3.263333;65535.0;-0.020508;0.02832;0.013672;59000;59000;4090;0;0;0
2024-11-07_11-14-07.227543;521009;112.0;22.75;0.041667;3.265417;65535.0;-0.020508;0.027344;0.019531;29500;29500;4239;0;0;0
2024-11-07_11-14-07.480357;521232;109.333252;22.75;0.42375;3.168334;65535.0;-0.021484;0.024414;0.020508;0;0;4478;0;0;0
2024-11-07_11-14-07.619268;521440;109.333252;22.75;0.656667;3.255834;65535.0;-0.019531;0.027344;0.029297;0;0;4640;0;0;0
2024-11-07_11-14-07.715497;521440;109.333252;22.75;0.656667;3.255834;65535.0;-0.019531;0.027344;0.029297;0;0;4730;0;0;0
2024-11-07_11-14-07.854061;521648;105.333252;22.75;0.47375;3.084584;65535.0;-0.022461;0.026367;0.024414;0;0;4860;0;0;0
2024-11-07_11-14-07.994643;521864;110.666748;22.75;0.542083;3.071667;65535.0;-0.021484;0.030273;0.026367;-26666;-26666;5011;0;0;0
2024-11-07_11-14-08.166620;522073;106.666748;22.75;0.52875;3.064584;65535.0;-0.022461;0.027344;0.02832;-66666;-66666;5168;0;0;0
2024-11-07_11-14-08.339576;522073;106.666748;22.75;0.52875;3.064584;65535.0;-0.022461;0.027344;0.02832;-80000;-80000;5337;0;0;0
2024-11-07_11-14-08.464957;522281;117.333252;22.75;0.549583;3.04625;65535.0;-0.023438;0.03125;0.025391;-80000;-80000;5480;0;0;0
2024-11-07_11-14-08.622301;522504;121.333252;22.75;0.565417;3.035417;65535.0;-0.024414;0.029297;0.004883;-80000;-80000;5641;0;0;0
2024-11-07_11-14-08.779056;522715;118.666748;22.75;0.59125;3.03;65535.0;-0.022461;0.027344;0.010742;-80000;-80000;5800;0;0;0
2024-11-07_11-14-08.998712;522715;118.666748;22.75;0.59125;3.03;65535.0;-0.022461;0.027344;0.010742;-60000;-60000;6008;0;0;0
2024-11-07_11-14-09.233955;523130;121.333252;22.75;0.187917;3.037917;65535.0;-0.024414;0.026367;-0.001953;20000;20000;6244;1;0;0
2024-11-07_11-14-09.421729;523130;121.333252;22.75;0.187917;3.037917;65535.0;-0.024414;0.026367;-0.001953;20000;20000;6425;1;0;0
2024-11-07_11-14-09.578477;523341;120.0;22.75;0.464167;3.102917;65535.0;-0.023438;0.026367;0.009766;20000;20000;6591;0;1;0
2024-11-07_11-14-09.813611;523559;121.333252;22.8125;0.165;3.205833;65535.0;-0.036133;0.001953;-0.043945;20000;20000;6825;0;0;0
2024-11-07_11-14-09.922992;523768;121.333252;22.75;0.108333;3.065417;65535.0;-0.023438;0.023438;-0.000977;20000;20000;6930;0;0;0
2024-11-07_11-14-10.033069;523768;121.333252;22.75;0.108333;3.065417;65535.0;-0.023438;0.023438;-0.000977;20000;20000;7039;0;0;0
2024-11-07_11-14-10.190579;523978;117.333252;22.8125;0.04875;3.075417;65535.0;-0.025391;0.019531;-0.015625;20000;20000;7199;0;0;0
2024-11-07_11-14-10.473299;524188;118.666748;22.8125;0.035833;3.08625;65535.0;-0.025391;0.021484;-0.011719;20000;20000;7487;0;0;0
2024-11-07_11-14-10.754650;524621;121.333252;22.8125;0.02125;3.105417;65535.0;-0.026367;0.027344;-0.03125;20000;20000;7766;0;0;0
2024-11-07_11-14-10.832776;524621;121.333252;22.8125;0.02125;3.105417;65535.0;-0.026367;0.027344;-0.03125;69000;69000;18;0;0;0
2024-11-07_11-14-10.973398;524845;121.333252;22.875;0.02125;3.109584;65535.0;-0.027344;0.025391;-0.018555;69000;69000;163;0;0;0
2024-11-07_11-14-11.114258;524845;121.333252;22.875;0.02125;3.109584;65535.0;-0.027344;0.025391;-0.018555;69000;69000;315;0;0;0
2024-11-07_11-14-11.270501;525051;124.0;22.8125;0.05375;3.12375;65535.0;-0.029297;0.027344;-0.022461;69000;69000;473;0;0;0
2024-11-07_11-14-11.443253;525271;118.666748;22.875;0.104583;3.134583;65535.0;-0.025391;0.023438;-0.010742;0;0;633;0;0;0
2024-11-07_11-14-11.583999;525484;124.0;22.8125;0.059167;3.145417;65535.0;-0.030273;0.021484;-0.025391;0;0;782;0;0;0
2024-11-07_11-14-11.740414;525484;124.0;22.8125;0.059167;3.145417;65535.0;-0.030273;0.021484;-0.025391;0;0;932;0;0;0
2024-11-07_11-14-12.022859;525899;120.0;22.875;0.062083;3.157917;65535.0;-0.030273;0.023438;-0.006836;0;0;1212;0;0;0
2024-11-07_11-14-12.351607;526113;120.0;22.875;0.031667;3.161667;65535.0;-0.029297;0.019531;-0.001953;34000;34000;1556;0;0;0
2024-11-07_11-14-12.555018;526321;117.333252;22.875;0.0475;3.172084;65535.0;-0.02832;0.023438;0.015625;68000;68000;1724;0;0;0
2024-11-07_11-14-12.838212;526528;117.333252;22.875;0.022083;3.177084;65535.0;-0.030273;0.027344;0.030273;68000;68000;2013;0;0;0
2024-11-07_11-14-12.995092;526751;113.333252;22.875;0.021667;3.187917;65535.0;-0.03125;0.024414;0.042969;34000;34000;2193;0;0;0
2024-11-07_11-14-13.213877;526958;104.0;22.875;0.077917;3.195833;65535.0;-0.03125;0.022461;0.066406;0;0;2401;0;0;0
2024-11-07_11-14-13.323499;527179;102.666748;22.875;0.618333;3.2775;65535.0;-0.030273;0.026367;0.067383;-46666;-46666;2504;0;0;0
2024-11-07_11-14-13.464511;527394;104.0;22.9375;0.024583;3.209584;65535.0;-0.036133;0.029297;0.063477;-70000;-70000;2662;0;0;0
2024-11-07_11-14-13.621269;527394;104.0;22.9375;0.024583;3.209584;65535.0;-0.036133;0.029297;0.063477;-70000;-70000;2823;0;0;0
2024-11-07_11-14-13.809187;527598;110.666748;22.9375;0.021667;3.215;65535.0;-0.035156;0.032227;0.060547;-70000;-70000;2992;0;0;0
2024-11-07_11-14-13.954464;527808;113.333252;22.9375;0.034167;3.225417;65535.0;-0.035156;0.02832;0.056641;-11666;-11666;3135;0;0;0
2024-11-07_11-14-14.123298;528023;120.0;22.9375;0.24875;3.25125;65535.0;-0.036133;0.027344;0.051758;49166;49166;3303;0;0;0
2024-11-07_11-14-14.263994;528023;120.0;22.9375;0.24875;3.25125;65535.0;-0.036133;0.027344;0.051758;59000;59000;3453;0;0;0
2024-11-07_11-14-14.409357;528231;113.333252;22.9375;0.032917;3.24;65535.0;-0.036133;0.027344;0.046875;59000;59000;3602;0;0;0
2024-11-07_11-14-14.562519;528453;113.333252;22.9375;0.085417;3.247083;65535.0;-0.037109;0.032227;0.041016;59000;59000;3752;0;0;0
2024-11-07_11-14-14.735117;528453;113.333252;22.9375;0.085417;3.247083;65535.0;-0.037109;0.032227;0.041016;29500;29500;3913;0;0;0
2024-11-07_11-14-15.033563;528878;117.333252;22.9375;0.736667;3.29;65535.0;-0.040039;0.023438;0.012695;0;0;4202;0;0;0
2024-11-07_11-14-15.174525;529102;104.0;22.9375;0.4525;3.065417;65535.0;-0.040039;0.024414;0.012695;0;0;4374;0;0;0
2024-11-07_11-14-15.331292;529102;104.0;22.9375;0.4525;3.065417;65535.0;-0.040039;0.024414;0.012695;0;0;4524;0;0;0
2024-11-07_11-14-15.487867;529311;112.0;22.9375;0.491667;3.053334;65535.0;-0.041992;0.026367;-0.000977;-26666;-26666;4683;0;0;0
2024-11-07_11-14-15.754124;529538;113.333252;22.9375;0.528333;3.034167;65535.0;-0.041016;0.02832;0.010742;-80000;-80000;4949;0;0;0
2024-11-07_11-14-15.926515;529750;104.0;23.0;0.553333;3.023334;65535.0;-0.046875;0.027344;0.024414;-80000;-80000;5122;0;0;0
2024-11-07_11-14-16.115297;529959;102.666748;23.0;0.568333;3.014167;65535.0;-0.047852;0.032227;0.095703;-80000;-80000;5313;0;0;0
2024-11-07_11-14-16.412520;530187;73.333252;23.0;0.589167;3.003333;65535.0;-0.049805;0.02832;0.193359;-60000;-60000;5589;0;0;0
