datetime;time;load_cell;board_temperature;pressure_macki;pressure_tank;distance;acc_x;acc_y;acc_z;motor1_speed;motor2_speed;procedure_time;mechanical_state;motor1_temperature;motor2_temperature
2024-11-07_11-32-47.817018;578183;-57.333374;22.75;0.100833;3.394583;169.0;0.163086;0.025391;1.517578;-60000;-60000;153920;0;0;0
2024-11-07_11-32-47.926384;578183;-57.333374;22.75;0.100833;3.394583;169.0;0.163086;0.025391;1.517578;-60000;-60000;154018;0;0;0
2024-11-07_11-32-48.082990;578463;-34.666626;22.8125;3.39125;3.40125;145.0;0.142578;0.023438;1.446289;-60000;-60000;154172;0;0;0
2024-11-07_11-32-48.364878;578743;-18.666626;22.75;0.084167;3.401667;128.0;0.117188;0.022461;1.311523;-60000;-60000;154460;0;0;0
2024-11-07_11-32-48.536791;578885;-8.0;22.75;0.107083;3.412083;118.0;0.098633;0.017578;1.210938;-60000;-60000;154630;0;0;0
2024-11-07_11-32-48.693714;579030;-8.0;22.75;0.1525;3.394583;107.0;0.083008;0.015625;1.116211;-60000;-60000;154790;0;0;0
2024-11-07_11-32-48.850083;579173;-5.333374;22.75;0.157917;3.409583;99.0;0.06543;0.013672;1.03418;-60000;-60000;154961;0;0;0
2024-11-07_11-32-49.007192;579312;-1.333374;22.75;0.09125;3.391667;89.0;0.054688;0.021484;0.879883;20000;20000;155111;1;0;0
2024-11-07_11-32-49.163356;579453;1.333374;22.75;0.722083;3.535833;90.0;0.044922;0.018555;0.794922;20000;20000;155271;1;0;0
2024-11-07_11-32-49.429850;579735;12.0;22.75;0.4275;3.409167;96.0;0.029297;0.021484;0.594727;20000;20000;155530;0;0;0
2024-11-07_11-32-49.601752;579883;17.333374;22.75;0.122917;3.410834;97.0;0.018555;0.029297;0.47168;20000;20000;155701;0;0;0
2024-11-07_11-32-49.789224;580169;34.666626;22.75;0.047083;3.39125;106.0;0.014648;0.033203;0.341797;80000;80000;121;0;0;0
2024-11-07_11-32-49.976727;580308;37.333374;22.75;0.082083;3.39125;115.0;0.016602;0.033203;0.277344;80000;80000;299;0;0;0
2024-11-07_11-32-50.117442;580456;38.666626;22.75;0.05375;3.391667;130.0;0.007812;0.03418;0.191406;80000;80000;441;0;0;0
2024-11-07_11-32-50.273701;580607;45.333374;22.75;0.067917;3.390417;144.0;0.005859;0.036133;0.146484;80000;80000;601;0;0;0
2024-11-07_11-32-50.508072;580893;41.333374;22.75;3.389167;3.390417;170.0;0.006836;0.042969;0.084961;0;0;841;0;0;0
2024-11-07_11-32-50.632981;580893;41.333374;22.75;3.389167;3.390417;170.0;0.006836;0.042969;0.084961;0;0;961;0;0;0
2024-11-07_11-32-50.742675;581037;45.333374;22.75;0.837917;3.43125;169.0;0.005859;0.042969;0.057617;0;0;1071;0;0;0
2024-11-07_11-32-50.883337;581170;46.666626;22.75;0.13625;3.389584;170.0;0.006836;0.041016;0.03125;0;0;1211;0;0;0
2024-11-07_11-32-51.055177;581305;48.0;22.75;0.096667;3.3975;169.0;0.001953;0.039062;0.027344;11333;11333;1381;0;0;0
2024-11-07_11-32-51.258444;581603;46.666626;22.8125;0.067917;3.385834;179.0;0.0;0.042969;0.013672;34000;34000;1578;0;0;0
2024-11-07_11-32-51.414692;581741;46.666626;22.75;0.028333;3.385834;180.0;0.003906;0.038086;0.015625;56666;56666;1729;0;0;0
2024-11-07_11-32-51.524341;581883;49.333252;22.75;0.021667;3.385834;190.0;0.001953;0.039062;0.007812;68000;68000;1851;0;0;0
2024-11-07_11-32-51.774308;582025;49.333252;22.75;0.029167;3.385834;204.0;-0.000977;0.039062;0.003906;68000;68000;2100;0;0;0
2024-11-07_11-32-51.868283;582168;46.666626;22.75;0.036667;3.38625;214.0;0.004883;0.037109;-0.00293;56666;56666;2191;0;0;0
2024-11-07_11-32-51.993316;582313;37.333374;22.75;0.09125;3.410417;226.0;-0.001953;0.035156;-0.015625;11333;11333;2321;0;0;0
2024-11-07_11-32-52.227658;582593;21.333374;22.75;0.327917;3.435;224.0;-0.00293;0.03418;-0.008789;-46666;-46666;2553;0;0;0
2024-11-07_11-32-52.305784;582593;21.333374;22.75;0.327917;3.435;224.0;-0.00293;0.03418;-0.008789;-70000;-70000;2634;0;0;0
2024-11-07_11-32-52.665326;583023;60.0;22.75;0.059167;3.385834;190.0;-0.00293;0.039062;0.001953;-70000;-70000;2997;0;0;0
2024-11-07_11-32-52.790909;583160;65.333252;22.75;0.048333;3.410417;178.0;-0.007812;0.036133;-0.009766;-35000;-35000;3110;0;0;0
2024-11-07_11-32-52.932127;583160;65.333252;22.75;0.048333;3.410417;178.0;-0.007812;0.036133;-0.009766;19666;19666;3252;0;0;0
2024-11-07_11-32-53.072839;583451;50.666748;22.75;0.106667;3.392917;185.0;-0.00293;0.037109;0.010742;59000;59000;3410;0;0;0
2024-11-07_11-32-53.261491;583596;49.333252;22.75;0.054583;3.385834;193.0;-0.007812;0.039062;-0.003906;59000;59000;3590;0;0;0
2024-11-07_11-32-53.386820;583747;46.666626;22.75;0.092917;3.385834;199.0;-0.008789;0.040039;-0.005859;59000;59000;3721;0;0;0
2024-11-07_11-32-53.558890;583890;50.666748;22.75;0.23375;3.2475;208.0;-0.003906;0.040039;-0.003906;49166;49166;3892;0;0;0
2024-11-07_11-32-53.699542;584023;45.333374;22.75;0.587917;3.252917;221.0;-0.006836;0.038086;0.001953;29500;29500;4030;0;0;0
2024-11-07_11-32-53.872270;584180;34.666626;22.75;0.862083;3.2725;226.0;-0.001953;0.033203;0.001953;9833;9833;4211;0;0;0
2024-11-07_11-32-54.028671;584319;21.333374;22.75;0.901667;3.409167;227.0;-0.003906;0.037109;0.0;0;0;4351;0;0;0
2024-11-07_11-32-54.216100;584466;30.666626;22.75;0.686667;3.236667;228.0;-0.008789;0.03418;-0.016602;0;0;4540;0;0;0
2024-11-07_11-32-54.325500;584601;30.666626;22.75;0.720833;3.220417;232.0;-0.005859;0.033203;0.00293;0;0;4661;0;0;0
2024-11-07_11-32-54.481726;584746;30.666626;22.75;0.740417;3.227083;226.0;-0.008789;0.033203;-0.007812;-26666;-26666;4814;0;0;0
2024-11-07_11-32-54.653915;584897;28.0;22.75;0.823333;3.209584;228.0;-0.009766;0.032227;-0.010742;-80000;-80000;4971;0;0;0
2024-11-07_11-32-54.794540;585178;65.333252;22.75;0.79375;3.204167;201.0;-0.009766;0.035156;-0.004883;-80000;-80000;5131;0;0;0
2024-11-07_11-32-54.966452;585319;85.333252;22.75;0.804583;3.204583;192.0;-0.009766;0.033203;-0.005859;-80000;-80000;5291;0;0;0
2024-11-07_11-32-55.123095;585465;118.666748;22.75;0.815417;3.19875;173.0;-0.012695;0.03418;-0.003906;-80000;-80000;5451;0;0;0
2024-11-07_11-32-55.264492;585615;146.666748;22.75;0.84125;3.2025;163.0;-0.008789;0.037109;-0.000977;-80000;-80000;5601;0;0;0
2024-11-07_11-32-55.437057;585763;157.333252;22.75;0.844167;3.202917;149.0;-0.010742;0.036133;-0.005859;-60000;-60000;5757;0;0;0
2024-11-07_11-32-55.624626;585901;117.333252;22.75;0.86375;3.2075;139.0;-0.010742;0.03418;0.000977;-60000;-60000;5957;0;0;0
2024-11-07_11-32-55.734358;586043;88.0;22.75;0.86375;0.807083;127.0;-0.012695;0.03418;-0.009766;-60000;-60000;6059;0;0;0
2024-11-07_11-32-55.891024;586170;68.0;22.75;0.72875;3.198334;116.0;-0.005859;0.03418;0.004883;-60000;-60000;6229;0;0;0
2024-11-07_11-32-56.062864;586312;68.0;22.75;0.6475;3.202084;109.0;-0.010742;0.030273;0.00293;-60000;-60000;6389;0;0;0
2024-11-07_11-32-56.219139;586592;57.333252;22.75;3.19875;3.199167;89.0;-0.013672;0.036133;-0.008789;20000;20000;6541;1;0;0
2024-11-07_11-32-56.359744;586723;46.666626;22.75;0.910833;3.576667;92.0;-0.013672;0.032227;0.001953;20000;20000;6701;0;0;0
2024-11-07_11-32-56.516013;586861;48.0;22.75;0.4325;3.205417;92.0;-0.011719;0.03125;0.019531;20000;20000;6840;0;0;0
2024-11-07_11-32-56.672242;587003;50.666748;22.75;0.27625;3.214583;97.0;-0.010742;0.030273;0.025391;20000;20000;7010;0;0;0
2024-11-07_11-32-56.829028;587149;49.333252;22.75;0.134583;3.202084;95.0;-0.011719;0.032227;0.018555;20000;20000;7160;0;0;0
2024-11-07_11-32-56.985230;587294;49.333252;22.75;0.094583;3.204167;93.0;-0.015625;0.030273;0.02832;20000;20000;7321;0;0;0
2024-11-07_11-32-57.157105;587443;49.333252;22.75;3.20375;3.204167;95.0;-0.012695;0.030273;0.03125;20000;20000;7483;0;0;0
2024-11-07_11-32-57.313560;587578;50.666748;22.75;0.022917;3.204167;95.0;-0.013672;0.030273;0.044922;20000;20000;7654;0;0;0
2024-11-07_11-32-57.469812;587725;50.666748;22.75;0.02125;3.204167;92.0;-0.011719;0.029297;0.038086;80000;80000;71;0;0;0
2024-11-07_11-32-57.627412;588001;50.666748;22.75;0.058333;3.205;113.0;-0.015625;0.026367;0.040039;80000;80000;231;0;0;0
2024-11-07_11-32-57.768050;588140;49.333252;22.75;0.0625;3.209167;126.0;-0.017578;0.030273;0.033203;80000;80000;371;0;0;0
2024-11-07_11-32-57.908680;588273;50.666748;22.75;3.205;3.204167;135.0;-0.017578;0.027344;0.041992;80000;80000;521;0;0;0
2024-11-07_11-32-58.221733;588530;45.333374;22.75;0.075;3.20375;159.0;-0.016602;0.026367;0.041016;0;0;831;0;0;0
2024-11-07_11-32-58.393631;588661;46.666626;22.75;0.05;3.395;169.0;-0.015625;0.027344;0.049805;0;0;1001;0;0;0
2024-11-07_11-32-58.565901;588798;46.666626;22.75;0.143333;3.230417;169.0;-0.013672;0.03125;0.039062;0;0;1160;0;0;0
2024-11-07_11-32-58.690924;589083;45.333374;22.75;0.083333;3.206667;170.0;-0.014648;0.02832;0.036133;0;0;1310;0;0;0
2024-11-07_11-32-58.847743;589225;45.333374;22.75;0.077917;3.204583;171.0;-0.013672;0.02832;0.033203;34000;34000;1461;0;0;0
2024-11-07_11-32-59.035370;589371;44.0;22.75;0.021667;3.204167;175.0;-0.014648;0.02832;0.039062;56666;56666;1642;0;0;0
2024-11-07_11-32-59.176172;589515;41.333374;22.75;0.021667;3.204167;184.0;-0.013672;0.03418;0.035156;68000;68000;1781;0;0;0
2024-11-07_11-32-59.316839;589651;38.666626;22.75;0.02375;3.204167;197.0;-0.013672;0.030273;0.02832;68000;68000;1931;0;0;0
2024-11-07_11-32-59.473179;589793;37.333374;22.75;0.036667;3.204583;207.0;-0.016602;0.02832;0.021484;68000;68000;2091;0;0;0
2024-11-07_11-32-59.645626;589933;32.0;22.75;0.0775;3.221667;218.0;-0.017578;0.030273;0.03418;0;0;2252;0;0;0
2024-11-07_11-32-59.786636;590079;28.0;22.75;0.64;3.317917;222.0;-0.014648;0.03125;0.03418;-58333;-58333;2402;0;0;0
2024-11-07_11-32-59.959589;590226;14.666626;22.75;0.065833;3.21;219.0;-0.013672;0.027344;0.027344;-70000;-70000;2561;0;0;0
2024-11-07_11-33-00.193958;590505;46.666626;22.75;0.084167;3.204583;194.0;-0.011719;0.026367;0.025391;-70000;-70000;2810;0;0;0
2024-11-07_11-33-00.287269;590653;49.333252;22.75;0.115833;3.20375;182.0;-0.016602;0.027344;0.022461;-70000;-70000;2891;0;0;0
2024-11-07_11-33-00.538214;590792;45.333374;22.75;0.075833;3.205417;173.0;-0.019531;0.026367;0.005859;-23333;-23333;3151;0;0;0
2024-11-07_11-33-00.741447;591069;49.333252;22.8125;0.372917;3.425417;165.0;-0.014648;0.029297;0.016602;49166;49166;3352;0;0;0
2024-11-07_11-33-00.897708;591215;49.333252;22.75;0.066667;3.204583;174.0;-0.017578;0.03125;0.022461;59000;59000;3510;0;0;0
2024-11-07_11-33-01.164196;591514;37.333374;22.8125;0.09;3.209584;194.0;-0.017578;0.026367;0.017578;59000;59000;3781;0;0;0
2024-11-07_11-33-01.461038;591800;36.0;22.75;0.427083;3.075417;216.0;-0.018555;0.029297;0.011719;39333;39333;4058;0;0;0
2024-11-07_11-33-01.617513;591946;32.0;22.75;0.597083;3.157084;221.0;-0.015625;0.025391;0.020508;19666;19666;4230;0;0;0
2024-11-07_11-33-01.837033;592098;32.0;22.8125;0.866667;3.1525;226.0;-0.016602;0.029297;0.021484;0;0;4440;0;0;0
2024-11-07_11-33-01.993248;592241;21.333374;22.75;0.800833;3.08125;224.0;-0.019531;0.03125;0.019531;0;0;4595;0;0;0
2024-11-07_11-33-02.259472;592523;38.666626;22.75;0.772083;3.085;222.0;-0.016602;0.030273;0.030273;0;0;4865;0;0;0
2024-11-07_11-33-02.478806;592784;28.0;22.75;0.77875;3.075;216.0;-0.017578;0.032227;0.029297;-53333;-53333;5097;0;0;0
2024-11-07_11-33-02.650700;592935;45.333374;22.75;0.79375;3.082917;214.0;-0.017578;0.030273;0.013672;-80000;-80000;5271;0;0;0
2024-11-07_11-33-02.775697;593083;62.666748;22.75;0.804583;3.086667;199.0;-0.016602;0.03125;0.024414;-80000;-80000;5380;0;0;0
2024-11-07_11-33-02.947577;593232;58.666748;22.75;0.815417;3.092084;185.0;-0.020508;0.033203;0.020508;-80000;-80000;5538;0;0;0
2024-11-07_11-33-03.072985;593383;66.666748;22.75;0.820833;3.0975;171.0;-0.016602;0.032227;0.026367;-80000;-80000;5678;0;0;0
2024-11-07_11-33-03.260647;593523;65.333252;22.75;0.840833;3.104167;162.0;-0.017578;0.03125;0.024414;-80000;-80000;5859;0;0;0
2024-11-07_11-33-03.416894;593803;70.666748;22.75;0.8425;3.12;130.0;-0.017578;0.033203;0.025391;-80000;-80000;6030;0;0;0
2024-11-07_11-33-03.573586;593940;65.333252;22.8125;0.88625;3.147917;118.0;-0.017578;0.03125;0.023438;-60000;-60000;6190;0;0;0
2024-11-07_11-33-03.698727;594083;49.333252;22.8125;0.861667;3.150417;111.0;-0.018555;0.030273;0.017578;-60000;-60000;6311;0;0;0
2024-11-07_11-33-03.855458;594223;50.666748;22.8125;3.135834;3.141667;102.0;-0.020508;0.02832;0.015625;-60000;-60000;6462;0;0;0
2024-11-07_11-33-04.027306;594363;50.666748;22.8125;0.659167;3.157084;94.0;-0.018555;0.030273;0.020508;20000;20000;6630;1;0;0
2024-11-07_11-33-04.168386;594500;49.333252;22.8125;1.079583;3.376667;91.0;-0.021484;0.033203;0.012695;20000;20000;6781;1;0;0
2024-11-07_11-33-04.371828;594643;48.0;22.8125;0.736667;3.217917;94.0;-0.019531;0.032227;0.017578;20000;20000;6989;0;0;0
2024-11-07_11-33-04.512469;594783;50.666748;22.8125;0.533333;3.174583;94.0;-0.018555;0.030273;0.014648;20000;20000;7111;0;0;0
2024-11-07_11-33-04.653093;594920;50.666748;22.8125;0.364583;3.167084;95.0;-0.019531;0.030273;0.015625;20000;20000;7259;0;0;0
2024-11-07_11-33-04.872391;595210;50.666748;22.8125;0.1675;3.18875;97.0;-0.019531;0.03125;0.013672;20000;20000;7491;0;0;0
2024-11-07_11-33-05.044263;595356;49.333252;22.8125;0.0575;3.190833;94.0;-0.020508;0.03125;0.010742;20000;20000;7660;0;0;0
2024-11-07_11-33-05.122402;595490;54.666748;22.8125;0.021667;3.19375;95.0;-0.019531;0.029297;0.009766;20000;20000;7721;0;0;0
2024-11-07_11-33-05.341591;595626;53.333252;22.8125;0.021667;3.19875;94.0;-0.020508;0.029297;0.013672;20000;20000;7951;0;0;0
2024-11-07_11-33-05.685587;596050;53.333252;22.8125;0.02125;3.215834;94.0;-0.021484;0.03125;0.015625;80000;80000;13;0;0;0
2024-11-07_11-33-05.888906;596200;50.666748;22.8125;0.05125;3.225834;107.0;-0.019531;0.037109;0.009766;80000;80000;227;0;0;0
2024-11-07_11-33-06.061245;596343;49.333252;22.8125;0.054167;3.23125;119.0;-0.018555;0.035156;0.014648;80000;80000;383;0;0;0
2024-11-07_11-33-06.217588;596479;53.333252;22.8125;0.09375;3.23625;131.0;-0.020508;0.03418;0.008789;80000;80000;533;0;0;0
2024-11-07_11-33-06.467715;596761;50.666748;22.8125;3.247917;3.2475;157.0;-0.024414;0.036133;0.008789;0;0;794;0;0;0
2024-11-07_11-33-06.536215;596890;48.0;22.8125;0.117083;3.254583;164.0;-0.023438;0.03418;0.010742;0;0;873;0;0;0
2024-11-07_11-33-06.812424;597183;53.333252;22.8125;0.071667;3.258333;165.0;-0.022461;0.036133;0.007812;0;0;1131;0;0;0
2024-11-07_11-33-06.984295;597320;46.666626;22.8125;0.057083;3.266667;163.0;-0.021484;0.039062;0.004883;0;0;1323;0;0;0
2024-11-07_11-33-07.156243;597463;50.666748;22.8125;0.106667;3.269167;165.0;-0.023438;0.03418;0.009766;22666;22666;1483;0;0;0
2024-11-07_11-33-07.296835;597600;53.333252;22.8125;0.055833;3.27375;171.0;-0.022461;0.035156;0.003906;68000;68000;1634;0;0;0
2024-11-07_11-33-07.516302;597895;48.0;22.8125;0.021667;3.289583;191.0;-0.022461;0.029297;-0.000977;68000;68000;1852;0;0;0
2024-11-07_11-33-07.640737;597895;48.0;22.8125;0.021667;3.289583;191.0;-0.022461;0.029297;-0.000977;68000;68000;1951;0;0;0
2024-11-07_11-33-07.781356;598031;38.666626;22.8125;0.030417;3.292084;202.0;-0.025391;0.03125;0.006836;45333;45333;2112;0;0;0
2024-11-07_11-33-08.016078;598312;28.0;22.8125;0.499167;3.442084;218.0;-0.025391;0.036133;0.004883;-11666;-11666;2345;0;0;0
2024-11-07_11-33-08.125438;598460;34.666626;22.8125;0.08;3.305834;215.0;-0.022461;0.037109;0.010742;-58333;-58333;2464;0;0;0
2024-11-07_11-33-08.375423;598604;44.0;22.8125;0.021667;3.31125;205.0;-0.023438;0.040039;0.011719;-70000;-70000;2691;0;0;0
2024-11-07_11-33-08.547433;598893;50.666748;22.8125;0.022917;3.322083;184.0;-0.027344;0.040039;0.023438;-70000;-70000;2883;0;0;0
2024-11-07_11-33-08.719746;599031;49.333252;22.8125;0.025417;3.327917;174.0;-0.027344;0.039062;0.015625;-11666;-11666;3044;0;0;0
2024-11-07_11-33-08.860331;599176;50.666748;22.8125;0.535833;3.57125;168.0;-0.026367;0.041016;0.029297;39333;39333;3204;0;0;0
2024-11-07_11-33-09.110641;599461;45.333374;22.8125;0.035833;3.342083;182.0;-0.026367;0.036133;0.023438;59000;59000;3443;0;0;0
2024-11-07_11-33-09.220103;599591;45.333374;22.8125;0.093333;3.343333;191.0;-0.026367;0.041992;0.03125;59000;59000;3543;0;0;0
2024-11-07_11-33-09.329427;599591;45.333374;22.8125;0.093333;3.343333;191.0;-0.026367;0.041992;0.03125;59000;59000;3664;0;0;0
2024-11-07_11-33-09.564131;599869;37.333374;22.8125;0.434583;3.233334;210.0;-0.026367;0.037109;0.032227;29500;29500;3890;0;0;0
2024-11-07_11-33-09.673785;600013;32.0;22.875;0.686667;3.276667;215.0;-0.024414;0.038086;0.030273;9833;9833;4003;0;0;0
2024-11-07_11-33-09.783597;600013;32.0;22.875;0.686667;3.276667;215.0;-0.024414;0.038086;0.030273;0;0;4122;0;0;0
2024-11-07_11-33-10.049185;600325;44.0;22.875;0.684167;3.209584;221.0;-0.027344;0.035156;0.020508;0;0;4376;0;0;0
2024-11-07_11-33-10.221062;600606;45.333374;22.8125;0.763333;3.212917;218.0;-0.026367;0.033203;0.014648;0;0;4553;0;0;0
2024-11-07_11-33-10.424876;600742;37.333374;22.8125;0.750833;3.215;211.0;-0.029297;0.030273;0.010742;-80000;-80000;4743;0;0;0
2024-11-07_11-33-10.581218;600886;57.333252;22.875;0.767083;3.215;200.0;-0.030273;0.029297;0.00293;-80000;-80000;4917;0;0;0
2024-11-07_11-33-10.722032;601039;80.0;22.875;0.777917;3.22;187.0;-0.030273;0.027344;0.010742;-80000;-80000;5053;0;0;0
2024-11-07_11-33-10.987660;601314;73.333252;22.875;0.795417;3.225834;162.0;-0.029297;0.032227;0.00293;-80000;-80000;5332;0;0;0
2024-11-07_11-33-11.332421;601593;53.333252;22.875;0.82;3.24375;134.0;-0.03418;0.032227;0.020508;0;0;5660;0;0;0
2024-11-07_11-33-11.520563;601873;48.0;22.875;0.8825;3.249167;112.0;-0.032227;0.037109;0.018555;-60000;-60000;5843;0;0;0
2024-11-07_11-33-11.677765;602010;50.666748;22.875;0.805417;3.262084;106.0;-0.033203;0.032227;0.015625;-60000;-60000;5997;0;0;0
2024-11-07_11-33-11.933153;602280;50.666748;22.875;0.630417;3.2625;89.0;-0.033203;0.040039;0.026367;20000;20000;6252;1;0;0
2024-11-07_11-33-12.053252;602423;50.666748;22.875;0.713333;3.46125;89.0;-0.033203;0.036133;0.023438;20000;20000;6373;1;0;0
2024-11-07_11-33-12.146998;602423;50.666748;22.875;0.713333;3.46125;89.0;-0.033203;0.036133;0.023438;20000;20000;6473;1;0;0
2024-11-07_11-33-12.287650;602562;48.0;22.875;3.36625;3.354167;95.0;-0.017578;0.044922;0.029297;20000;20000;6623;1;0;0
2024-11-07_11-33-12.475423;602840;54.666748;22.875;0.552083;3.291667;96.0;-0.033203;0.030273;0.024414;20000;20000;6812;0;0;0
2024-11-07_11-33-12.600425;602983;48.0;22.875;0.200417;3.291667;97.0;-0.039062;0.030273;0.010742;20000;20000;6933;0;0;0
2024-11-07_11-33-12.772562;603122;50.666748;22.875;0.0625;3.292917;97.0;-0.039062;0.02832;0.024414;20000;20000;7100;0;0;0
2024-11-07_11-33-12.944912;603263;50.666748;22.9375;0.115;3.3;94.0;-0.03418;0.030273;0.022461;20000;20000;7262;0;0;0
2024-11-07_11-33-13.210975;603553;53.333252;22.9375;0.025;3.31125;94.0;-0.037109;0.02832;0.018555;20000;20000;7543;0;0;0
2024-11-07_11-33-13.382894;603697;49.333252;22.9375;0.02125;3.316667;96.0;-0.036133;0.027344;0.00293;80000;80000;18;0;0;0
2024-11-07_11-33-13.555666;603839;53.333252;22.9375;0.03625;3.32125;102.0;-0.040039;0.024414;-0.010742;80000;80000;168;0;0;0
2024-11-07_11-33-13.758982;604133;54.666748;22.9375;3.33125;3.3275;127.0;-0.038086;0.027344;-0.015625;80000;80000;394;0;0;0
2024-11-07_11-33-13.900530;604267;49.333252;22.9375;0.048333;3.334167;140.0;-0.040039;0.026367;0.001953;80000;80000;528;0;0;0
2024-11-07_11-33-14.041139;604414;53.333252;22.9375;0.108333;3.338333;154.0;-0.041016;0.023438;0.003906;80000;80000;659;0;0;0
2024-11-07_11-33-14.260166;604564;46.666626;22.9375;0.103333;3.34625;168.0;-0.047852;0.030273;0.020508;0;0;898;0;0;0
2024-11-07_11-33-14.353967;604714;45.333374;22.9375;0.117917;3.534584;177.0;-0.048828;0.024414;0.041016;0;0;988;0;0;0
2024-11-07_11-33-14.494538;604857;44.0;22.9375;0.051667;3.36375;176.0;-0.048828;0.02832;0.099609;0;0;1121;0;0;0
2024-11-07_11-33-14.669399;605003;44.0;22.9375;0.054167;3.36875;180.0;-0.048828;0.035156;0.198242;0;0;1287;0;0;0
2024-11-07_11-33-14.823066;605140;28.0;22.9375;0.079167;3.374583;177.0;-0.049805;0.03418;0.291992;0;0;1457;0;0;0
2024-11-07_11-33-14.948083;605284;21.333374;22.9375;0.071667;3.364584;177.0;-0.041992;0.03125;0.400391;34000;34000;1578;0;0;0
2024-11-07_11-33-15.104838;605430;10.666626;22.9375;3.37125;3.3725;185.0;-0.035156;0.030273;0.520508;45333;45333;1738;0;0;0
2024-11-07_11-33-15.370918;605710;-13.333374;22.9375;0.021667;3.380417;202.0;-0.018555;0.03125;0.733398;68000;68000;1997;0;0;0
2024-11-07_11-33-15.574251;605853;-17.333374;22.9375;0.032083;3.385834;215.0;-0.012695;0.032227;0.853516;68000;68000;2202;0;0;0
