Time;acc_x;acc_y;acc_z;

1611;-0.012695;0.013672;1.009766;
1753;-0.013672;0.022461;1.004883;
1893;-0.012695;0.018555;1.002930;
2033;-0.010742;0.017578;1.016602;
2173;-0.010742;0.022461;1.041016;
2313;-0.006836;0.021484;1.051758;
2453;-0.008789;0.024414;1.061523;
2593;-0.010742;0.025391;1.072266;
2733;-0.011719;0.022461;1.088867;
2873;-0.008789;0.023438;1.089844;
3013;-0.005859;0.021484;1.106445;
3154;-0.010742;0.022461;1.081055;
3293;-0.007812;0.021484;1.083008;
3433;-0.007812;0.028320;1.071289;
3573;-0.008789;0.028320;1.056641;
3713;-0.008789;0.025391;1.040039;
3853;-0.008789;0.021484;1.025391;
3989;-0.015625;0.026367;1.006836;
4139;-0.010742;0.028320;1.001953;
4289;-0.014648;0.031250;0.997070;
4439;-0.011719;0.020508;0.979492;
4593;-0.008789;0.018555;0.999023;
4733;-0.014648;0.019531;1.032227;
4883;-0.010742;0.023438;1.046875;
5023;-0.008789;0.023438;1.041992;
5163;-0.004883;0.025391;1.064453;
5313;-0.010742;0.035156;1.048828;
5453;0.002930;0.032227;1.057617;
5593;0.001953;0.019531;1.050781;
5733;0.004883;0.026367;1.038086;
5873;0.003906;0.036133;1.022461;
6013;0.002930;0.033203;1.043945;
6153;-0.002930;0.024414;1.037109;
6293;0.000977;0.027344;1.049805;
6433;-0.001953;0.025391;1.035156;
6569;-0.000977;0.022461;1.026367;
6708;-0.000977;0.020508;1.059570;
6869;0.001953;0.024414;1.067383;
7019;0.000000;0.022461;1.061523;
7163;-0.001953;0.023438;1.046875;
7313;-0.003906;0.027344;1.040039;
7453;0.001953;0.033203;1.054688;
7593;-0.001953;0.021484;1.041992;
7733;0.001953;0.034180;1.027344;
7873;-0.001953;0.017578;1.002930;
8023;-0.001953;0.032227;1.000000;
8163;-0.002930;0.022461;0.998047;
8303;-0.001953;0.027344;1.016602;
8443;-0.002930;0.027344;0.993164;
8583;-0.000977;0.035156;1.018555;
8723;0.000000;0.035156;1.034180;
8863;-0.002930;0.041992;1.041992;
9003;0.000000;0.034180;1.047852;
9140;-0.001953;0.032227;1.061523;
9290;0.000000;0.029297;1.069336;
9438;-0.003906;0.034180;1.066406;
9589;-0.002930;0.032227;1.071289;
9733;0.000000;0.032227;1.060547;
9873;0.003906;0.023438;1.070312;
10013;0.000977;0.015625;1.065430;
10153;0.000977;0.016602;1.059570;
10293;0.004883;0.011719;1.074219;
10433;0.000977;0.018555;1.085938;
10573;0.004883;0.016602;1.107422;
10713;0.002930;0.016602;1.104492;
10853;0.001953;0.013672;1.128906;
10993;0.009766;0.014648;1.156250;
11133;0.006836;0.017578;1.144531;
11273;0.003906;0.022461;1.152344;
11413;0.004883;0.022461;1.136719;
11553;0.004883;0.023438;1.121094;
11690;0.000977;0.027344;1.086914;
11839;-0.000977;0.030273;1.062500;
11979;0.000000;0.026367;1.068359;
12120;0.003906;0.034180;1.058594;
12270;0.001953;0.030273;1.027344;
12424;-0.007812;0.020508;1.018555;
12573;-0.001953;0.025391;1.029297;
12713;0.000000;0.020508;1.028320;
12863;-0.001953;0.022461;1.012695;
13003;-0.000977;0.029297;1.026367;
13143;0.000000;0.021484;1.029297;
13283;0.000977;0.026367;1.030273;
13423;-0.001953;0.023438;1.018555;
13563;-0.004883;0.023438;1.024414;
13703;0.000000;0.030273;1.028320;
13843;-0.003906;0.026367;1.018555;
13983;-0.000977;0.013672;1.018555;
14133;-0.003906;0.016602;1.013672;
14273;-0.001953;0.022461;1.004883;
14410;-0.000977;0.021484;1.024414;
14549;-0.001953;0.024414;1.025391;
14689;-0.002930;0.021484;1.013672;
14839;-0.002930;0.031250;1.017578;
14989;-0.000977;0.025391;1.021484;
15133;-0.001953;0.030273;1.017578;
15273;-0.005859;0.023438;1.024414;
15423;0.000000;0.021484;1.023438;
15563;0.000977;0.019531;1.037109;
15703;0.000000;0.020508;1.033203;
15853;-0.003906;0.024414;1.018555;
15993;-0.000977;0.023438;1.024414;
16133;0.000977;0.026367;1.024414;
16273;-0.002930;0.023438;1.021484;
16413;-0.003906;0.024414;1.023438;
16563;0.000000;0.022461;1.034180;
16703;0.004883;0.018555;1.036133;
16843;-0.001953;0.024414;1.042969;
16983;-0.002930;0.024414;1.056641;
17129;0.000977;0.025391;1.063477;
17283;0.002930;0.022461;1.075195;
17419;0.005859;0.021484;1.079102;
17569;0.001953;0.022461;1.076172;
17719;-0.000977;0.015625;1.067383;
17863;0.000977;0.018555;1.057617;
18003;0.004883;0.018555;1.049805;
18143;-0.001953;0.021484;1.042969;
18283;-0.000977;0.019531;1.031250;
18423;0.000977;0.019531;1.027344;
18563;-0.002930;0.023438;0.994141;
18703;-0.002930;0.029297;0.975586;
18843;-0.007812;0.026367;0.987305;
18993;-0.001953;0.025391;0.978516;
19133;-0.003906;0.031250;0.963867;
19273;-0.006836;0.026367;0.971680;
19423;-0.003906;0.021484;0.978516;
19563;-0.001953;0.023438;0.996094;
19703;-0.004883;0.016602;0.979492;
19839;-0.002930;0.020508;0.990234;
19979;-0.001953;0.022461;1.009766;
20129;0.000000;0.032227;1.031250;
20289;-0.005859;0.030273;1.022461;
20453;0.000977;0.030273;1.041992;
20593;-0.001953;0.037109;1.057617;
20743;-0.001953;0.020508;1.059570;
20883;0.000000;0.019531;1.045898;
21023;-0.001953;0.020508;1.035156;
21173;0.000000;0.027344;1.039062;
21313;-0.001953;0.024414;1.025391;
21463;0.001953;0.017578;1.019531;
21603;-0.001953;0.018555;1.008789;
21743;-0.002930;0.025391;1.002930;
21893;0.001953;0.024414;0.987305;
22033;0.000977;0.021484;0.991211;
22173;-0.004883;0.020508;0.996094;
22313;-0.005859;0.021484;0.996094;
22450;0.003906;0.016602;1.018555;
22600;-0.000977;0.020508;1.032227;
22749;-0.002930;0.022461;1.035156;
22909;-0.000977;0.024414;1.043945;
23063;-0.003906;0.026367;1.069336;
23203;0.001953;0.023438;1.075195;
23343;0.002930;0.022461;1.075195;
23483;-0.002930;0.026367;1.079102;
23623;0.002930;0.026367;1.085938;
23763;0.002930;0.017578;1.083008;
23903;-0.000977;0.023438;1.083008;
24043;0.002930;0.026367;1.080078;
24183;0.002930;0.025391;1.085938;
24323;0.000977;0.022461;1.083008;
24473;0.000977;0.023438;1.060547;
24613;0.000000;0.019531;1.065430;
24753;0.001953;0.022461;1.083008;
24893;0.001953;0.025391;1.067383;
25033;-0.001953;0.027344;1.056641;
25170;-0.001953;0.024414;1.055664;
25319;0.000977;0.032227;1.079102;
25459;0.001953;0.033203;1.087891;
25609;0.002930;0.027344;1.104492;
25769;-0.001953;0.022461;1.114258;
25923;0.000000;0.019531;1.124023;
26063;0.006836;0.019531;1.114258;
26203;-0.000977;0.025391;1.102539;
26343;-0.003906;0.025391;1.074219;
26483;-0.001953;0.011719;1.060547;
26623;0.000977;0.021484;1.036133;
26763;-0.000977;0.021484;1.012695;
26903;-0.004883;0.018555;0.979492;
27043;-0.003906;0.025391;0.959961;
27183;-0.005859;0.044922;0.936523;
27323;-0.003906;0.034180;0.945312;
27463;-0.013672;0.026367;0.949219;
27603;-0.008789;0.040039;0.953125;
27743;-0.005859;0.030273;0.949219;
27900;-0.006836;0.022461;0.978516;
28060;-0.007812;0.024414;0.985352;
28209;0.000000;0.031250;1.022461;
28363;-0.001953;0.019531;1.034180;
28503;-0.002930;0.031250;1.025391;
28643;-0.003906;0.031250;1.014648;
28784;-0.005859;0.031250;1.020508;
28933;-0.005859;0.024414;0.982422;
29073;-0.000977;0.026367;0.970703;
29213;0.000000;0.013672;0.953125;
29363;-0.006836;0.020508;0.929688;
29503;-0.001953;0.023438;0.930664;
29653;-0.000977;0.019531;0.947266;
29793;-0.006836;0.018555;0.926758;
29933;-0.001953;0.035156;0.950195;
30083;-0.000977;0.033203;0.966797;
30223;-0.001953;0.024414;0.971680;
30359;0.000000;0.024414;0.998047;
30509;0.004883;0.021484;1.024414;
30669;0.006836;0.019531;1.041992;
30829;0.007812;0.025391;1.045898;
30983;0.003906;0.025391;1.028320;
31123;0.005859;0.026367;1.025391;
31263;0.009766;0.021484;1.051758;
31403;0.011719;0.031250;1.039062;
31543;0.018555;0.027344;1.043945;
31683;0.024414;0.030273;1.021484;
31823;0.029297;0.031250;1.025391;
31963;0.039062;0.023438;1.035156;
32103;0.037109;0.019531;1.028320;
32243;0.043945;0.018555;1.035156;
32383;0.047852;0.020508;1.055664;
32523;0.050781;0.020508;1.078125;
32673;0.058594;0.025391;1.091797;
32813;0.057617;0.023438;1.103516;
32949;0.063477;0.018555;1.098633;
33111;0.076172;0.018555;1.116211;
33269;0.085938;0.020508;1.102539;
33419;0.086914;0.020508;1.108398;
33553;0.090820;0.019531;1.094727;
33679;0.092773;0.022461;1.092773;
33823;0.091797;0.021484;1.070312;
33963;0.099609;0.025391;1.040039;
34103;0.093750;0.017578;1.000977;
34243;0.096680;0.019531;1.005859;
34383;0.092773;0.019531;0.985352;
34523;0.090820;0.027344;0.980469;
34663;0.094727;0.026367;0.982422;
34813;0.092773;0.014648;0.976562;
34953;0.097656;0.019531;1.007812;
35093;0.094727;0.026367;1.012695;
35233;0.100586;0.024414;1.021484;
35373;0.098633;0.031250;1.036133;
35523;0.098633;0.026367;1.041016;
35663;0.103516;0.034180;1.052734;
35800;0.100586;0.024414;1.053711;
35950;0.095703;0.013672;1.013672;
36100;0.099609;0.023438;0.977539;
36253;0.095703;0.028320;0.947266;
36403;0.088867;0.024414;0.942383;
36543;0.089844;0.024414;0.932617;
36683;0.094727;0.022461;0.961914;
36823;0.085938;0.019531;0.962891;
36963;0.090820;0.021484;0.958008;
37103;0.093750;0.025391;0.976562;
37243;0.085938;0.021484;1.011719;
37383;0.095703;0.014648;1.031250;
37523;0.096680;0.018555;1.039062;
37663;0.094727;0.017578;1.052734;
37803;0.092773;0.014648;1.066406;
37943;0.095703;0.022461;1.055664;
38083;0.100586;0.031250;1.077148;
38230;0.094727;0.031250;1.075195;
38379;0.095703;0.031250;1.053711;
38519;0.090820;0.034180;1.047852;
38679;0.094727;0.025391;1.049805;
38810;0.086914;0.016602;1.030273;
38953;0.096680;0.005859;1.021484;
39093;0.092773;0.004883;1.021484;
39233;0.086914;0.002930;1.007812;
39383;0.095703;0.020508;1.009766;
39523;0.092773;0.017578;0.997070;
39663;0.092773;0.013672;0.977539;
39803;0.093750;0.028320;0.956055;
39943;0.093750;0.024414;0.936523;
40083;0.087891;0.021484;0.930664;
40223;0.085938;0.032227;0.918945;
40363;0.083008;0.032227;0.924805;
40503;0.083008;0.034180;0.929688;
40643;0.079102;0.010742;0.944336;
40783;0.086914;0.025391;0.976562;
40923;0.089844;0.016602;0.984375;
41079;0.089844;0.017578;1.019531;
41230;0.093750;0.012695;1.020508;
41379;0.092773;0.016602;1.012695;
41509;0.091797;0.014648;1.009766;
41653;0.086914;0.035156;0.979492;
41793;0.087891;0.020508;0.938477;
41933;0.083008;0.032227;0.886719;
42073;0.080078;0.034180;0.856445;
42213;0.077148;0.046875;0.850586;
42353;0.083008;0.030273;0.827148;
42493;0.078125;0.023438;0.830078;
42633;0.081055;0.015625;0.833984;
42773;0.084961;0.018555;0.883789;
42913;0.072266;0.013672;0.878906;
43053;0.086914;0.022461;0.900391;
43193;0.076172;0.022461;0.893555;
43333;0.083984;0.018555;0.903320;
43483;0.083008;0.020508;0.913086;
43629;0.084961;0.016602;0.932617;
43779;0.084961;0.023438;0.973633;
43929;0.088867;0.027344;1.027344;
44069;0.085938;0.022461;1.036133;
44209;0.084961;0.030273;1.053711;
44349;0.082031;0.031250;1.054688;
44503;0.087891;0.020508;1.078125;
44653;0.085938;0.036133;1.055664;
44793;0.083984;0.026367;1.055664;
44933;0.089844;0.017578;1.064453;
45073;0.083008;0.013672;1.068359;
45213;0.093750;0.035156;1.082031;
45353;0.083008;0.016602;1.081055;
45493;0.083984;0.011719;1.063477;
45633;0.083984;0.018555;1.055664;
45783;0.082031;0.026367;1.079102;
45924;0.083984;0.003906;1.118164;
46063;0.087891;0.038086;1.094727;
46203;0.087891;0.032227;1.083008;
46343;0.080078;0.028320;1.076172;
46489;0.088867;0.028320;1.118164;
46630;0.082031;0.011719;1.103516;
46779;0.083984;0.019531;1.067383;
46929;0.080078;0.032227;1.055664;
47093;0.077148;0.032227;1.038086;
47233;0.084961;0.028320;1.025391;
47383;0.083984;0.029297;1.000977;
47523;0.080078;0.022461;0.995117;
47663;0.072266;0.013672;0.962891;
47803;0.080078;0.012695;0.953125;
47943;0.070312;0.018555;0.959961;
48083;0.086914;0.017578;0.986328;
48223;0.080078;0.008789;0.955078;
48363;0.076172;0.025391;0.981445;
48503;0.074219;0.033203;1.007812;
48653;0.079102;0.027344;1.038086;
48793;0.080078;0.006836;1.062500;
48933;0.086914;0.027344;1.128906;
49073;0.081055;0.032227;1.135742;
49209;0.087891;0.032227;1.173828;
49359;0.074219;0.027344;1.167969;
49499;0.086914;0.036133;1.215820;
49650;0.083008;0.031250;1.231445;
49809;0.086914;0.028320;1.228516;
49963;0.083984;0.032227;1.253906;
50103;0.091797;0.023438;1.278320;
50243;0.086914;0.024414;1.278320;
50383;0.095703;0.026367;1.284180;
50523;0.087891;0.021484;1.333008;
50673;0.089844;0.008789;1.371094;
50813;0.094727;0.002930;1.453125;
50953;0.101562;0.018555;1.469727;
51093;0.100586;0.006836;1.521484;
51233;0.105469;0.019531;1.557617;
51383;0.102539;0.018555;1.600586;
51523;0.111328;0.020508;1.633789;
51663;0.116211;0.017578;1.668945;
51803;0.113281;0.029297;1.704102;
51939;0.120117;0.024414;1.743164;
52089;0.115234;0.012695;1.762695;
52239;0.117188;0.024414;1.790039;
52389;0.114258;0.035156;1.821289;
52543;0.117188;0.019531;1.837891;
52683;0.120117;0.023438;1.809570;
52823;0.126953;0.009766;1.833008;
52973;0.119141;0.017578;1.810547;
53113;0.127930;0.009766;1.807617;
53253;0.124023;0.001953;1.831055;
53393;0.121094;0.004883;1.812500;
53533;0.125977;0.010742;1.794922;
53673;0.115234;-0.004883;1.770508;
53813;0.125000;0.006836;1.802734;
53953;0.116211;-0.000977;1.807617;
54103;0.118164;0.019531;1.801758;
54243;0.124023;0.031250;1.820312;
54383;0.115234;0.025391;1.840820;
54539;0.124023;0.020508;1.833984;
54689;0.124023;0.024414;1.832031;
54839;0.127930;0.014648;1.853516;
54989;0.122070;0.023438;1.844727;
55143;0.124023;0.026367;1.856445;
55293;0.123047;0.035156;1.853516;
55433;0.125977;0.011719;1.867188;
55573;0.128906;0.016602;1.880859;
55713;0.129883;0.009766;1.856445;
55853;0.129883;0.027344;1.844727;
56003;0.128906;0.009766;1.870117;
56143;0.125000;0.028320;1.859375;
56283;0.125000;0.006836;1.845703;
56434;0.128906;0.008789;1.849609;
56573;0.123047;0.009766;1.838867;
56713;0.127930;0.019531;1.830078;
56853;0.126953;0.008789;1.818359;
56993;0.129883;0.004883;1.816406;
57129;0.125000;0.010742;1.823242;
57279;0.125000;0.009766;1.825195;
57429;0.130859;0.006836;1.834961;
57569;0.129883;0.011719;1.829102;
57719;0.130859;0.007812;1.821289;
57873;0.134766;0.003906;1.823242;
58013;0.133789;0.009766;1.814453;
58153;0.130859;0.015625;1.817383;
58293;0.128906;0.006836;1.812500;
58433;0.133789;0.017578;1.830078;
58583;0.131836;0.007812;1.825195;
58723;0.130859;0.009766;1.831055;
58863;0.135742;0.013672;1.824219;
59003;0.139648;0.009766;1.837891;
59143;0.136719;0.008789;1.843750;
59293;0.138672;0.016602;1.846680;
59433;0.138672;0.009766;1.839844;
59573;0.138672;0.016602;1.849609;
59713;0.136719;0.015625;1.846680;
59851;0.138672;0.011719;1.851562;
60000;0.141602;0.010742;1.853516;
60149;0.141602;0.018555;1.845703;
60283;0.147461;0.016602;1.842773;
60419;0.147461;0.019531;1.851562;
60569;0.141602;0.018555;1.837891;
60713;0.147461;0.020508;1.831055;
60853;0.148438;0.017578;1.833984;
60993;0.147461;0.017578;1.835938;
61133;0.151367;0.017578;1.825195;
61273;0.147461;0.014648;1.823242;
61413;0.149414;0.008789;1.824219;
61563;0.152344;0.011719;1.831055;
61703;0.152344;0.000977;1.825195;
61843;0.154297;0.003906;1.807617;
61983;0.154297;0.000000;1.805664;
62123;0.153320;0.004883;1.796875;
62263;0.157227;0.001953;1.807617;
62413;0.157227;0.006836;1.802734;
62553;0.159180;0.015625;1.821289;
62689;0.163086;0.013672;1.834961;
62839;0.163086;0.018555;1.840820;
62989;0.163086;0.025391;1.874023;
63139;0.165039;0.018555;1.867188;
63303;0.163086;0.016602;1.883789;
63443;0.165039;0.021484;1.875977;
63583;0.166992;0.020508;1.879883;
63723;0.171875;0.022461;1.878906;
63863;0.169922;0.012695;1.875000;
64003;0.170898;0.016602;1.875000;
64153;0.178711;0.005859;1.873047;
64293;0.173828;0.006836;1.882812;
64433;0.179688;0.002930;1.866211;
64583;0.178711;0.006836;1.887695;
64723;0.179688;0.007812;1.883789;
64863;0.179688;0.009766;1.881836;
65003;0.180664;0.003906;1.876953;
65143;0.182617;0.000977;1.888672;
65279;0.182617;-0.003906;1.886719;
65429;0.183594;0.005859;1.883789;
65579;0.184570;0.004883;1.882812;
65729;0.181641;0.013672;1.859375;
65879;0.186523;0.010742;1.853516;
66023;0.190430;0.012695;1.865234;
66173;0.188477;0.013672;1.852539;
66313;0.186523;0.013672;1.824219;
66453;0.184570;0.014648;1.786133;
66593;0.183594;0.000977;1.771484;
66733;0.186523;0.000000;1.762695;
66873;0.186523;0.001953;1.776367;
67023;0.190430;-0.001953;1.786133;
67163;0.190430;-0.001953;1.776367;
67303;0.188477;0.001953;1.770508;
67453;0.191406;0.013672;1.788086;
67593;0.195312;0.009766;1.791016;
67733;0.196289;0.017578;1.799805;
67885;0.195312;0.013672;1.817383;
68029;0.200195;0.017578;1.811523;
68180;0.200195;0.006836;1.809570;
68339;0.203125;0.010742;1.838867;
68493;0.199219;0.010742;1.821289;
68633;0.205078;0.016602;1.808594;
68773;0.206055;0.014648;1.802734;
68913;0.204102;0.014648;1.813477;
69053;0.211914;0.019531;1.796875;
69203;0.207031;0.022461;1.786133;
69343;0.207031;0.026367;1.795898;
69483;0.206055;0.027344;1.788086;
69623;0.211914;0.015625;1.769531;
69763;0.210938;0.011719;1.756836;
69914;0.207031;0.012695;1.742188;
70053;0.201172;0.018555;1.760742;
70193;0.201172;0.018555;1.739258;
70333;0.203125;0.013672;1.695312;
70470;0.185547;0.005859;1.689453;
70619;0.181641;0.014648;1.666992;
70769;0.176758;0.009766;1.660156;
70919;0.166016;0.017578;1.613281;
71069;0.159180;0.020508;1.589844;
71203;0.148438;0.021484;1.496094;
71343;0.132812;0.019531;1.409180;
71483;0.112305;0.025391;1.301758;
71623;0.095703;0.027344;1.193359;
71763;0.073242;0.021484;1.042969;
71903;0.055664;0.026367;0.916992;
72043;0.041992;0.027344;0.773438;
72183;0.028320;0.024414;0.618164;
72333;0.023438;0.030273;0.550781;
72473;0.015625;0.037109;0.439453;
72613;0.017578;0.030273;0.352539;
72753;0.008789;0.031250;0.273438;
72893;0.002930;0.030273;0.208984;
73033;0.004883;0.034180;0.171875;
73169;0.000000;0.029297;0.125000;
73319;0.000977;0.033203;0.111328;
73469;0.002930;0.028320;0.083008;
73609;0.000977;0.023438;0.075195;
73749;0.002930;0.023438;0.026367;
73903;0.000000;0.018555;0.005859;
74043;0.001953;0.016602;0.004883;
74183;0.000977;0.018555;0.000000;
74323;0.000977;0.022461;-0.009766;
74464;-0.000977;0.018555;-0.003906;
74603;0.000977;0.021484;0.002930;
74743;-0.001953;0.031250;0.009766;
74883;0.000000;0.029297;0.002930;
75023;-0.003906;0.026367;0.012695;
75173;-0.006836;0.029297;0.011719;
75313;-0.002930;0.028320;0.022461;
75453;-0.006836;0.032227;0.034180;
75603;-0.006836;0.029297;0.027344;
75743;-0.007812;0.030273;0.028320;
75879;-0.007812;0.031250;0.037109;
76030;-0.008789;0.030273;0.029297;
76179;-0.004883;0.032227;0.035156;
76331;-0.008789;0.036133;0.027344;
76480;-0.012695;0.031250;0.017578;
76629;-0.005859;0.028320;0.022461;
76770;-0.006836;0.031250;0.029297;
76923;-0.012695;0.031250;0.009766;
77063;-0.008789;0.028320;0.023438;
77203;-0.009766;0.025391;0.017578;
77353;-0.009766;0.026367;0.007812;
77493;-0.009766;0.023438;0.000977;
77633;-0.012695;0.025391;0.009766;
77783;-0.012695;0.024414;0.009766;
77923;-0.012695;0.026367;0.008789;
78063;-0.012695;0.025391;0.014648;
78203;-0.009766;0.028320;0.024414;
78344;-0.012695;0.028320;0.013672;
78483;-0.015625;0.025391;0.009766;
78623;-0.012695;0.028320;0.024414;
78763;-0.011719;0.028320;0.020508;
78899;-0.013672;0.030273;0.020508;
79050;-0.012695;0.025391;0.018555;
79199;-0.013672;0.027344;0.025391;
79349;-0.012695;0.027344;0.044922;
79499;-0.015625;0.026367;0.018555;
79643;-0.013672;0.024414;0.026367;
79783;-0.015625;0.028320;0.027344;
79923;-0.014648;0.029297;0.031250;
80063;-0.016602;0.026367;0.030273;
80203;-0.013672;0.027344;0.035156;
80343;-0.015625;0.024414;0.032227;
80483;-0.011719;0.027344;0.040039;
80623;-0.016602;0.023438;0.033203;
80763;-0.013672;0.025391;0.038086;
80903;-0.012695;0.025391;0.050781;
81053;-0.015625;0.024414;0.029297;
81193;-0.015625;0.028320;0.027344;
81333;-0.015625;0.030273;0.032227;
81483;-0.016602;0.025391;0.035156;
81619;-0.017578;0.025391;0.030273;
81759;-0.016602;0.023438;0.036133;
81899;-0.014648;0.023438;0.035156;
82049;-0.014648;0.022461;0.039062;
82199;-0.016602;0.027344;0.030273;
82343;-0.015625;0.030273;0.023438;
82479;-0.020508;0.030273;0.023438;
82633;-0.019531;0.024414;0.033203;
82769;-0.013672;0.022461;0.028320;
82923;-0.017578;0.025391;0.017578;
83063;-0.020508;0.030273;0.014648;
83203;-0.017578;0.025391;0.016602;
83353;-0.012695;0.021484;0.029297;
83493;-0.014648;0.027344;0.011719;
83633;-0.015625;0.027344;0.016602;
83773;-0.016602;0.024414;0.023438;
83913;-0.012695;0.028320;0.022461;
84053;-0.018555;0.026367;0.006836;
84193;-0.015625;0.021484;0.009766;
84333;-0.017578;0.031250;0.005859;
84473;-0.018555;0.024414;0.008789;
84623;-0.016602;0.022461;0.013672;
84763;-0.016602;0.024414;0.000977;
84900;-0.014648;0.024414;0.010742;
85039;-0.016602;0.027344;0.004883;
85169;-0.016602;0.023438;0.008789;
85309;-0.017578;0.025391;0.005859;
85460;-0.019531;0.024414;0.001953;
85609;-0.013672;0.024414;0.004883;
85763;-0.017578;0.025391;0.004883;
85903;-0.015625;0.022461;0.007812;
86043;-0.016602;0.023438;-0.003906;
86183;-0.017578;0.022461;0.005859;
86323;-0.020508;0.025391;0.007812;
86463;-0.017578;0.026367;0.000977;
86603;-0.019531;0.024414;0.004883;
86743;-0.019531;0.027344;0.001953;
86893;-0.019531;0.025391;0.006836;
87033;-0.016602;0.020508;0.012695;
87173;-0.019531;0.025391;0.011719;
87323;-0.018555;0.020508;0.022461;
87463;-0.019531;0.025391;0.013672;
87613;-0.018555;0.024414;0.014648;
87750;-0.018555;0.025391;0.013672;
87898;-0.020508;0.024414;0.010742;
88049;-0.017578;0.022461;0.021484;
88199;-0.018555;0.024414;0.020508;
88350;-0.018555;0.022461;0.023438;
88503;-0.018555;0.027344;0.026367;
88643;-0.021484;0.028320;0.023438;
88793;-0.020508;0.026367;0.023438;
88933;-0.019531;0.027344;0.009766;
89063;-0.019531;0.023438;0.018555;
89203;-0.018555;0.027344;0.016602;
89343;-0.019531;0.025391;0.013672;
89483;-0.021484;0.024414;0.016602;
89623;-0.030273;0.027344;-0.006836;
89763;-0.022461;0.023438;0.006836;
89903;-0.021484;0.030273;0.011719;
90043;-0.021484;0.027344;0.015625;
90184;-0.023438;0.025391;0.009766;
90323;-0.023438;0.026367;0.008789;
90469;-0.022461;0.020508;0.007812;
90620;-0.023438;0.031250;-0.000977;
90769;-0.021484;0.023438;-0.004883;
90918;-0.024414;0.023438;0.002930;
91079;-0.027344;0.027344;-0.010742;
91233;-0.025391;0.026367;-0.007812;
91373;-0.026367;0.027344;-0.001953;
91513;-0.024414;0.024414;-0.011719;
91663;-0.027344;0.023438;-0.005859;
91803;-0.024414;0.027344;-0.001953;
91943;-0.027344;0.027344;-0.000977;
92083;-0.025391;0.023438;0.003906;
92223;-0.023438;0.027344;0.000977;
92373;-0.023438;0.028320;-0.006836;
92513;-0.025391;0.028320;0.000000;
92653;-0.028320;0.025391;-0.003906;
92793;-0.026367;0.026367;-0.001953;
92943;-0.028320;0.022461;0.000000;
93153;-0.026367;0.027344;0.009766;
93370;-0.028320;0.029297;0.014648;
93600;-0.032227;0.030273;0.012695;
93829;-0.032227;0.025391;0.019531;
94063;-0.032227;0.030273;0.033203;
94283;-0.030273;0.031250;0.029297;
94493;-0.033203;0.026367;0.033203;
94703;-0.036133;0.025391;0.037109;
94913;-0.032227;0.027344;0.041016;
95123;-0.033203;0.028320;0.033203;
95343;-0.035156;0.028320;0.028320;
95563;-0.036133;0.024414;0.024414;
95773;-0.039062;0.022461;0.013672;
95983;-0.041016;0.026367;0.006836;
96203;-0.046875;0.028320;0.055664;
96413;-0.048828;0.031250;0.117188;
96633;-0.044922;0.039062;0.254883;
96853;-0.043945;0.037109;0.402344;
97069;-0.024414;0.037109;0.630859;
97309;-0.010742;0.035156;0.824219;
97539;0.005859;0.032227;0.982422;
97763;0.017578;0.021484;1.120117;
97973;0.032227;0.018555;1.226562;
98193;0.041016;0.015625;1.295898;
98413;0.044922;0.017578;1.360352;
98633;0.043945;0.017578;1.370117;
98843;0.042969;0.016602;1.375000;
99063;0.043945;0.022461;1.403320;
99283;0.040039;0.016602;1.420898;
99493;0.041992;0.013672;1.455078;
99703;0.046875;0.013672;1.498047;
99913;0.044922;0.022461;1.537109;
100133;0.043945;0.020508;1.583008;
100353;0.045898;0.028320;1.623047;
100569;0.051758;0.024414;1.684570;
100799;0.053711;0.025391;1.704102;
101029;0.051758;0.027344;1.709961;
101263;0.047852;0.031250;1.739258;
101479;0.048828;0.033203;1.766602;
101703;0.045898;0.026367;1.744141;
101913;0.041992;0.024414;1.739258;
102123;0.044922;0.025391;1.744141;
102333;0.042969;0.026367;1.751953;
102553;0.041992;0.031250;1.750977;
102773;0.036133;0.033203;1.764648;
102993;0.035156;0.035156;1.781250;
103213;0.037109;0.025391;1.793945;
103423;0.037109;0.031250;1.802734;
103643;0.038086;0.030273;1.830078;
103863;0.036133;0.028320;1.834961;
104073;0.037109;0.031250;1.846680;
104293;0.035156;0.024414;1.850586;
104505;0.033203;0.028320;1.853516;
104739;0.028320;0.022461;1.872070;
104958;0.033203;0.027344;1.859375;
105179;0.029297;0.020508;1.853516;
105394;0.026367;0.017578;1.855469;
105613;0.021484;0.016602;1.848633;
105833;0.020508;0.023438;1.843750;
106043;0.019531;0.019531;1.832031;
106263;0.015625;0.025391;1.824219;
106483;0.015625;0.026367;1.825195;
106703;0.012695;0.022461;1.834961;
106923;0.012695;0.020508;1.833984;
107133;0.011719;0.019531;1.845703;
107353;0.013672;0.014648;1.843750;
107563;0.012695;0.023438;1.850586;
107783;0.011719;0.023438;1.870117;
107993;0.009766;0.021484;1.875000;
108199;0.011719;0.016602;1.883789;
108429;0.010742;0.014648;1.887695;
108639;0.007812;0.010742;1.882812;
108859;0.010742;0.010742;1.898438;
109083;0.008789;0.013672;1.894531;
109303;0.006836;0.015625;1.898438;
109513;0.005859;0.020508;1.903320;
109733;0.005859;0.021484;1.906250;
109953;0.005859;0.025391;1.915039;
110163;0.003906;0.022461;1.911133;
110373;0.004883;0.025391;1.916016;
110583;0.003906;0.018555;1.905273;
110803;0.003906;0.014648;1.903320;
111023;0.002930;0.012695;1.891602;
111243;0.000977;0.011719;1.894531;
111463;-0.003906;0.011719;1.875977;
111683;-0.002930;0.018555;1.879883;
111899;-0.005859;0.019531;1.856445;
112140;-0.010742;0.022461;1.828125;
112369;-0.011719;0.022461;1.799805;
112589;-0.014648;0.026367;1.777344;
112803;-0.016602;0.025391;1.737305;
113023;-0.021484;0.027344;1.700195;
113233;-0.025391;0.020508;1.660156;
113443;-0.032227;0.019531;1.622070;
113663;-0.034180;0.019531;1.583984;
113873;-0.039062;0.015625;1.547852;
114093;-0.039062;0.016602;1.516602;
114303;-0.044922;0.014648;1.478516;
114523;-0.044922;0.017578;1.458008;
114743;-0.049805;0.019531;1.443359;
114963;-0.053711;0.017578;1.401367;
115183;-0.055664;0.020508;1.364258;
115403;-0.058594;0.020508;1.310547;
115609;-0.064453;0.019531;1.275391;
115839;-0.064453;0.020508;1.237305;
116063;-0.068359;0.021484;1.209961;
116269;-0.069336;0.018555;1.185547;
116503;-0.068359;0.018555;1.167969;
116713;-0.069336;0.021484;1.138672;
116923;-0.070312;0.018555;1.126953;
117133;-0.075195;0.025391;1.114258;
117353;-0.078125;0.021484;1.097656;
117573;-0.075195;0.026367;1.073242;
117793;-0.078125;0.022461;1.045898;
118013;-0.080078;0.026367;1.035156;
118223;-0.082031;0.024414;1.017578;
118433;-0.083008;0.027344;1.005859;
118653;-0.082031;0.024414;1.005859;
118863;-0.083008;0.025391;0.999023;
119083;-0.080078;0.024414;1.004883;
119293;-0.078125;0.026367;1.001953;
119510;-0.080078;0.021484;1.003906;
119739;-0.081055;0.022461;1.004883;
119953;-0.083008;0.025391;1.005859;
120170;-0.084961;0.030273;1.002930;
120403;-0.079102;0.033203;0.995117;
120623;-0.083008;0.033203;0.986328;
120843;-0.083008;0.031250;0.990234;
121053;-0.080078;0.024414;0.983398;
121273;-0.083008;0.027344;0.992188;
121483;-0.083984;0.018555;0.990234;
121693;-0.079102;0.020508;0.981445;
121913;-0.082031;0.017578;0.980469;
122123;-0.077148;0.018555;0.972656;
122343;-0.079102;0.022461;0.978516;
122563;-0.079102;0.021484;0.978516;
122773;-0.076172;0.015625;0.988281;
122993;-0.077148;0.014648;1.016602;
123213;-0.071289;0.016602;1.070312;
123430;-0.067383;0.014648;1.140625;
123659;-0.065430;0.012695;1.194336;
123869;-0.057617;0.011719;1.261719;
124103;-0.053711;0.003906;1.287109;
124323;-0.051758;0.004883;1.317383;
124533;-0.048828;0.007812;1.333984;
124753;-0.048828;0.011719;1.350586;
124973;-0.045898;0.014648;1.352539;
125183;-0.046875;0.014648;1.361328;
125403;-0.046875;0.022461;1.358398;
125613;-0.043945;0.026367;1.372070;
125833;-0.042969;0.026367;1.382812;
126053;-0.040039;0.030273;1.375977;
126263;-0.041016;0.023438;1.375977;
126483;-0.041992;0.020508;1.365234;
126694;-0.039062;0.018555;1.319336;
126903;-0.042969;0.017578;1.295898;
127119;-0.045898;0.014648;1.275391;
127333;-0.043945;0.020508;1.262695;
127549;-0.042969;0.015625;1.256836;
127769;-0.046875;0.014648;1.227539;
128003;-0.050781;0.023438;1.203125;
128213;-0.049805;0.022461;1.182617;
128433;-0.052734;0.028320;1.160156;
128653;-0.052734;0.033203;1.161133;
128863;-0.054688;0.023438;1.143555;
129083;-0.053711;0.031250;1.125977;
129303;-0.054688;0.024414;1.105469;
129523;-0.050781;0.024414;1.090820;
129743;-0.050781;0.019531;1.086914;
129963;-0.042969;0.016602;1.080078;
130173;-0.035156;0.023438;1.091797;
130383;-0.032227;0.020508;1.090820;
130593;-0.027344;0.029297;1.114258;
130805;-0.025391;0.028320;1.124023;
131020;-0.017578;0.032227;1.134766;
131233;-0.020508;0.025391;1.128906;
131459;-0.021484;0.035156;1.133789;
131693;-0.021484;0.033203;1.138672;
131913;-0.022461;0.029297;1.128906;
132123;-0.023438;0.026367;1.144531;
132333;-0.019531;0.027344;1.163086;
132553;-0.018555;0.021484;1.160156;
132773;-0.020508;0.022461;1.150391;
132983;-0.019531;0.019531;1.146484;
133193;-0.020508;0.023438;1.142578;
133403;-0.027344;0.022461;1.117188;
133613;-0.024414;0.022461;1.105469;
133833;-0.015625;0.011719;1.127930;
134043;-0.018555;0.031250;1.083984;
134263;-0.022461;0.032227;1.064453;
134473;-0.032227;0.030273;1.040039;
134689;-0.027344;0.025391;1.013672;
134913;-0.026367;0.030273;0.999023;
135119;-0.030273;0.030273;0.990234;
135339;-0.030273;0.030273;0.996094;
135569;-0.028320;0.016602;1.014648;
135803;-0.024414;0.017578;1.032227;
136023;-0.025391;0.013672;1.049805;
136243;-0.023438;0.026367;1.066406;
136463;-0.026367;0.018555;1.051758;
136673;-0.022461;0.018555;1.060547;
136883;-0.021484;0.026367;1.081055;
137103;-0.024414;0.032227;1.108398;
137313;-0.020508;0.028320;1.106445;
137533;-0.022461;0.028320;1.124023;
137753;-0.020508;0.026367;1.141602;
137963;-0.019531;0.025391;1.153320;
138183;-0.017578;0.030273;1.145508;
138403;-0.019531;0.022461;1.144531;
138613;-0.018555;0.024414;1.122070;
138819;-0.022461;0.018555;1.102539;
139049;-0.024414;0.022461;1.083008;
139283;-0.022461;0.021484;1.051758;
139503;-0.024414;0.019531;1.034180;
139723;-0.028320;0.026367;1.008789;
139943;-0.025391;0.028320;1.013672;
140163;-0.024414;0.036133;1.040039;
140373;-0.025391;0.031250;1.048828;
140583;-0.022461;0.031250;1.065430;
140793;-0.021484;0.030273;1.087891;
141013;-0.023438;0.022461;1.084961;
141223;-0.023438;0.024414;1.073242;
141433;-0.023438;0.018555;1.047852;
141643;-0.026367;0.018555;1.002930;
141853;-0.026367;0.024414;0.983398;
142073;-0.024414;0.021484;0.955078;
142292;-0.030273;0.021484;0.931641;
142509;-0.031250;0.023438;0.932617;
142739;-0.029297;0.026367;0.937500;
142973;-0.029297;0.029297;0.958008;
143194;-0.024414;0.024414;0.991211;
143413;-0.023438;0.021484;1.017578;
143633;-0.020508;0.028320;1.047852;
143853;-0.010742;0.026367;1.039062;
144063;-0.007812;0.028320;1.047852;
144273;-0.008789;0.024414;1.004883;
144493;-0.005859;0.027344;0.994141;
144713;-0.008789;0.018555;0.951172;
144923;-0.007812;0.021484;0.935547;
145133;-0.004883;0.022461;0.936523;
145353;-0.006836;0.019531;0.928711;
145563;-0.006836;0.016602;0.938477;
145783;-0.007812;0.024414;0.958984;
145999;-0.011719;0.021484;0.950195;
146229;-0.008789;0.021484;0.974609;
146459;-0.011719;0.014648;0.981445;
146703;-0.011719;0.020508;0.991211;
146923;-0.006836;0.024414;0.998047;
147139;-0.011719;0.022461;0.978516;
147373;-0.010742;0.012695;0.965820;
147583;-0.010742;0.022461;0.989258;
147799;-0.011719;0.022461;0.989258;
148033;-0.009766;0.023438;1.020508;
148243;-0.010742;0.022461;1.018555;
148459;-0.009766;0.028320;1.033203;
148683;-0.009766;0.025391;1.031250;
148893;-0.005859;0.021484;1.040039;
149113;-0.007812;0.021484;1.039062;
149333;-0.004883;0.026367;1.050781;
149543;-0.005859;0.018555;1.047852;
149769;-0.003906;0.026367;1.058594;
149999;0.000000;0.022461;1.078125;
150231;-0.004883;0.023438;1.064453;
150459;-0.003906;0.020508;1.074219;
150693;-0.003906;0.018555;1.074219;
150903;-0.002930;0.011719;1.081055;
151113;-0.004883;0.013672;1.085938;
151343;-0.001953;-0.004883;1.072266;
151563;0.002930;0.001953;1.116211;
151781;-0.005859;0.023438;1.081055;
152013;-0.009766;0.035156;1.044922;
152223;-0.006836;0.030273;1.049805;
152429;-0.002930;0.035156;1.041016;
152650;-0.003906;0.027344;1.018555;
152863;-0.009766;0.024414;0.998047;
153083;-0.006836;0.021484;0.970703;
153289;-0.004883;0.020508;0.967773;
153519;-0.007812;0.020508;0.965820;
153749;-0.009766;0.025391;0.965820;
153969;-0.006836;0.021484;1.006836;
154199;-0.005859;0.025391;1.007812;
154433;-0.008789;0.026367;1.036133;
154643;-0.005859;0.028320;1.059570;
154873;-0.006836;0.027344;1.081055;
155093;-0.004883;0.030273;1.120117;
155309;-0.004883;0.027344;1.115234;
155543;-0.002930;0.028320;1.135742;
155764;-0.001953;0.020508;1.096680;
155969;-0.002930;0.021484;1.079102;
156203;-0.005859;0.022461;1.010742;
156423;-0.014648;0.018555;0.944336;
156630;-0.010742;0.020508;0.923828;
156863;-0.015625;0.019531;0.889648;
157083;-0.011719;0.020508;0.896484;
157303;-0.013672;0.026367;0.869141;
157519;-0.013672;0.028320;0.876953;
157749;-0.017578;0.025391;0.857422;
157979;-0.017578;0.029297;0.857422;
158219;-0.019531;0.029297;0.866211;
158450;-0.016602;0.024414;0.875977;
158678;-0.016602;0.024414;0.876953;
158893;-0.013672;0.020508;0.878906;
159113;-0.011719;0.024414;0.892578;
159329;-0.012695;0.024414;0.894531;
159563;-0.013672;0.017578;0.887695;
159783;-0.012695;0.024414;0.886719;
159999;-0.013672;0.018555;0.884766;
160233;-0.009766;0.018555;0.890625;
160443;-0.009766;0.025391;0.877930;
160659;-0.006836;0.021484;0.874023;
160883;-0.003906;0.025391;0.900391;
161103;0.000977;0.028320;0.952148;
161319;0.004883;0.028320;1.039062;
161563;0.006836;0.029297;1.115234;
161779;0.006836;0.026367;1.151367;
162009;0.008789;0.026367;1.175781;
162249;0.006836;0.020508;1.174805;
162473;0.008789;0.018555;1.190430;
162693;0.007812;0.015625;1.204102;
162913;0.010742;0.016602;1.241211;
163133;0.011719;0.015625;1.267578;
163343;0.016602;0.023438;1.309570;
163553;0.020508;0.016602;1.335938;
163763;0.019531;0.020508;1.342773;
163983;0.016602;0.019531;1.321289;
164203;0.015625;0.017578;1.312500;
164413;0.012695;0.025391;1.265625;
164633;0.015625;0.022461;1.237305;
164853;0.013672;0.028320;1.206055;
165073;0.009766;0.022461;1.166016;
165283;0.003906;0.018555;1.125000;
165499;0.001953;0.023438;1.096680;
165739;0.003906;0.017578;1.079102;
165980;0.004883;0.024414;1.080078;
166223;0.000000;0.021484;1.074219;
166433;0.000977;0.023438;1.070312;
166653;0.002930;0.026367;1.078125;
166873;-0.000977;0.019531;1.076172;
167083;0.005859;0.021484;1.087891;
167303;0.000977;0.021484;1.087891;
167523;0.005859;0.024414;1.096680;
167743;0.003906;0.024414;1.094727;
167963;0.000000;0.016602;1.086914;
168169;0.000977;0.021484;1.065430;
168393;0.000977;0.022461;1.052734;
168603;0.002930;0.019531;1.046875;
168823;0.000977;0.020508;1.029297;
169040;0.000977;0.021484;1.016602;
169269;-0.005859;0.024414;0.994141;
169499;-0.004883;0.024414;0.984375;
169733;-0.004883;0.017578;0.965820;
169943;-0.003906;0.023438;0.948242;
170163;-0.004883;0.023438;0.941406;
170383;-0.008789;0.022461;0.915039;
170593;-0.009766;0.019531;0.875000;
170803;-0.007812;0.025391;0.874023;
171013;-0.007812;0.022461;0.838867;
171233;-0.005859;0.023438;0.833984;
171453;-0.005859;0.021484;0.858398;
171663;-0.003906;0.030273;0.879883;
171883;-0.004883;0.026367;0.917969;
172103;-0.005859;0.024414;0.954102;
172313;-0.002930;0.026367;0.983398;
172533;-0.003906;0.027344;1.010742;
172749;-0.000977;0.018555;1.017578;
172979;0.000977;0.021484;1.053711;
173199;0.000977;0.018555;1.058594;
173413;0.000977;0.015625;1.060547;
173633;0.001953;0.017578;1.057617;
173853;0.002930;0.020508;1.052734;
174063;0.002930;0.023438;1.048828;
174273;0.000000;0.019531;1.046875;
174493;-0.000977;0.022461;1.033203;
174703;-0.002930;0.018555;1.013672;
174923;-0.001953;0.023438;1.002930;
175143;-0.002930;0.019531;0.998047;
175363;-0.002930;0.024414;0.995117;
175573;-0.001953;0.022461;1.009766;
175793;-0.001953;0.023438;1.019531;
176004;0.000977;0.023438;1.047852;
176209;-0.000977;0.015625;1.064453;
176433;-0.000977;0.028320;1.076172;
176649;0.000977;0.022461;1.095703;
176880;0.001953;0.017578;1.107422;
177113;0.006836;0.019531;1.112305;
177334;0.005859;0.023438;1.117188;
177553;0.004883;0.015625;1.123047;
177763;0.002930;0.022461;1.112305;
177983;0.005859;0.018555;1.098633;
178203;0.001953;0.021484;1.085938;
178413;0.005859;0.025391;1.090820;
178633;0.004883;0.017578;1.081055;
178853;0.000977;0.020508;1.068359;
179063;0.004883;0.022461;1.078125;
179273;0.000000;0.022461;1.068359;
179493;0.004883;0.015625;1.085938;
179713;0.003906;0.021484;1.083984;
179923;0.002930;0.021484;1.087891;
180149;0.002930;0.024414;1.090820;
180378;0.000000;0.017578;1.075195;
180613;0.001953;0.020508;1.073242;
180833;0.003906;0.018555;1.087891;
181053;0.004883;0.021484;1.101562;
181273;0.001953;0.017578;1.107422;
181493;0.001953;0.022461;1.110352;
181703;0.000000;0.022461;1.115234;
181923;0.001953;0.020508;1.108398;
182133;0.000977;0.019531;1.106445;
182353;0.001953;0.020508;1.101562;
182563;0.005859;0.023438;1.106445;
182783;0.002930;0.019531;1.091797;
182993;0.000000;0.017578;1.032227;
183213;-0.003906;0.011719;0.950195;
183433;-0.003906;0.015625;0.911133;
183649;-0.009766;0.018555;0.887695;
183883;-0.003906;0.020508;0.890625;
184099;-0.004883;0.022461;0.914062;
184333;-0.003906;0.026367;0.945312;
184543;-0.002930;0.026367;0.981445;
184763;-0.000977;0.028320;1.000000;
184974;0.003906;0.019531;1.020508;
185183;0.002930;0.022461;1.029297;
185403;-0.000977;0.023438;1.030273;
185613;-0.003906;0.022461;1.016602;
185833;-0.003906;0.023438;0.998047;
186043;-0.003906;0.019531;0.984375;
186263;-0.000977;0.023438;0.984375;
186473;-0.001953;0.023438;0.983398;
186694;-0.001953;0.024414;0.991211;
186913;-0.001953;0.021484;1.001953;
187133;-0.004883;0.018555;0.993164;
187349;0.000000;0.020508;1.016602;
187579;0.001953;0.022461;1.024414;
187809;0.003906;0.023438;1.043945;
188033;-0.002930;0.023438;1.037109;
188243;-0.002930;0.025391;1.033203;
188463;0.000000;0.019531;1.027344;
188673;0.000977;0.025391;1.032227;
188893;-0.000977;0.020508;1.025391;
189113;0.000000;0.020508;1.033203;
189323;0.002930;0.018555;1.042969;
189543;-0.001953;0.021484;1.029297;
189763;-0.001953;0.023438;1.038086;
189983;-0.000977;0.022461;1.033203;
190203;0.001953;0.020508;1.007812;
190413;0.000000;0.022461;1.000000;
190623;0.000000;0.025391;0.994141;
190841;-0.005859;0.021484;0.969727;
191050;-0.003906;0.021484;0.967773;
191279;-0.001953;0.024414;0.983398;
191513;-0.000977;0.021484;1.000000;
191733;0.000977;0.020508;1.029297;
191953;0.000977;0.021484;1.034180;
192173;0.000000;0.021484;1.026367;
192393;-0.001953;0.022461;1.027344;
192613;0.000977;0.024414;1.032227;
192823;0.002930;0.024414;1.029297;
193043;0.000977;0.025391;1.020508;
193263;-0.001953;0.025391;1.004883;
193483;-0.004883;0.016602;0.963867;
193693;-0.005859;0.022461;0.955078;
193913;-0.001953;0.018555;0.939453;
194133;-0.003906;0.020508;0.956055;
194353;0.000977;0.025391;0.992188;
194569;0.000977;0.018555;1.013672;
194799;0.002930;0.022461;1.034180;
195033;-0.000977;0.018555;1.041016;
195253;0.001953;0.021484;1.062500;
195463;0.004883;0.023438;1.086914;
195683;0.005859;0.024414;1.082031;
195893;0.004883;0.019531;1.082031;
196103;0.005859;0.023438;1.077148;
196323;0.001953;0.021484;1.053711;
196543;-0.000977;0.022461;1.041016;
196763;-0.001953;0.022461;1.038086;
196983;0.000000;0.026367;1.034180;
197193;-0.001953;0.020508;1.029297;
197403;0.002930;0.023438;1.038086;
197613;0.000977;0.020508;1.023438;
197833;0.000000;0.022461;1.040039;
198050;0.001953;0.022461;1.046875;
198279;-0.000977;0.024414;1.064453;
198509;0.004883;0.023438;1.088867;
198743;0.001953;0.024414;1.079102;
198963;0.001953;0.015625;1.070312;
199183;0.000977;0.025391;1.057617;
199393;0.003906;0.022461;1.058594;
199613;0.003906;0.018555;1.061523;
199823;0.000000;0.027344;1.051758;
200043;-0.002930;0.019531;1.009766;
200263;0.000000;0.025391;1.012695;
200483;0.003906;0.023438;1.002930;
200703;0.002930;0.021484;0.990234;
200913;0.007812;0.023438;1.005859;
201123;0.005859;0.017578;1.003906;
201343;0.008789;0.019531;1.008789;
201563;0.009766;0.015625;1.014648;
201779;0.013672;0.018555;1.038086;
202009;0.008789;0.021484;1.028320;
202253;0.008789;0.022461;1.030273;
202473;0.003906;0.026367;1.025391;
202693;0.002930;0.030273;1.023438;
202913;0.003906;0.020508;1.003906;
203133;0.002930;0.027344;0.979492;
203353;0.004883;0.024414;0.962891;
203573;0.001953;0.024414;0.930664;
203793;0.003906;0.019531;0.913086;
204013;-0.000977;0.023438;0.923828;
204223;0.003906;0.022461;0.943359;
204443;0.004883;0.017578;0.982422;
204653;0.004883;0.020508;0.998047;
204873;0.002930;0.021484;1.023438;
205093;0.006836;0.024414;1.049805;
205309;0.006836;0.023438;1.064453;
205539;0.006836;0.020508;1.061523;
205769;0.008789;0.019531;1.063477;
205983;0.009766;0.021484;1.058594;
206203;0.007812;0.031250;1.049805;
206423;0.008789;0.029297;1.049805;
206633;0.007812;0.020508;1.040039;
206853;0.008789;0.023438;1.029297;
207063;0.002930;0.021484;1.028320;
207283;0.004883;0.023438;1.025391;
207503;0.003906;0.018555;1.024414;
207723;0.007812;0.023438;1.030273;
207943;0.002930;0.019531;1.034180;
208153;0.003906;0.025391;1.045898;
208363;0.007812;0.020508;1.051758;
208573;0.005859;0.028320;1.055664;
208789;0.006836;0.018555;1.050781;
209011;0.008789;0.025391;1.050781;
209239;0.005859;0.021484;1.044922;
209458;0.004883;0.023438;1.036133;
209683;0.005859;0.018555;1.019531;
209893;0.002930;0.019531;1.017578;
210113;0.006836;0.021484;1.020508;
210334;0.006836;0.023438;1.019531;
210543;0.005859;0.022461;1.016602;
210763;0.003906;0.022461;1.008789;
210983;0.005859;0.027344;1.007812;
211193;0.001953;0.023438;1.000977;
211413;0.000977;0.019531;0.997070;
211633;0.003906;0.027344;1.003906;
211853;0.000000;0.026367;0.995117;
212063;0.005859;0.023438;1.009766;
212273;0.005859;0.021484;1.010742;
212493;0.004883;0.019531;1.006836;
212709;0.006836;0.021484;1.011719;
212939;0.005859;0.022461;1.008789;
213159;0.007812;0.024414;1.025391;
213393;0.007812;0.018555;1.013672;
213613;0.001953;0.021484;1.007812;
213833;0.005859;0.021484;1.021484;
214053;0.003906;0.027344;1.030273;
214273;0.004883;0.022461;1.044922;
214493;0.004883;0.026367;1.066406;
214713;0.003906;0.025391;1.070312;
214923;0.005859;0.021484;1.078125;
215133;0.007812;0.020508;1.076172;
215353;0.006836;0.019531;1.087891;
215573;0.010742;0.021484;1.095703;
215793;0.007812;0.022461;1.104492;
216003;0.012695;0.020508;1.102539;
216219;0.009766;0.022461;1.107422;
216459;0.007812;0.021484;1.097656;
216683;0.009766;0.023438;1.115234;
216899;0.010742;0.016602;1.129883;
217133;0.011719;0.018555;1.112305;
217353;0.012695;0.018555;1.090820;
217563;0.010742;0.022461;1.062500;
217773;0.005859;0.022461;1.025391;
217993;0.003906;0.024414;1.004883;
218213;0.002930;0.022461;1.004883;
218423;0.001953;0.025391;1.001953;
218643;0.002930;0.024414;1.012695;
218863;0.005859;0.024414;1.019531;
219073;0.001953;0.028320;1.011719;
219293;0.004883;0.028320;1.032227;
219503;0.004883;0.027344;1.044922;
219713;0.006836;0.021484;1.045898;
219928;0.004883;0.021484;1.051758;
220159;0.008789;0.026367;1.053711;
220389;0.003906;0.023438;1.057617;
220623;0.006836;0.018555;1.061523;
220843;0.006836;0.022461;1.059570;
221053;0.004883;0.022461;1.058594;
221273;0.002930;0.023438;1.053711;
221483;0.003906;0.025391;1.050781;
221703;0.001953;0.024414;1.039062;
221923;0.004883;0.023438;1.033203;
222143;0.001953;0.019531;1.032227;
222363;0.002930;0.023438;1.024414;
222583;0.000977;0.022461;1.028320;
222803;0.002930;0.020508;1.028320;
223024;0.000000;0.022461;1.022461;
223243;0.000000;0.022461;1.030273;
223463;0.002930;0.023438;1.025391;
223683;0.005859;0.021484;1.015625;
223899;0.004883;0.019531;0.985352;
224129;0.000977;0.020508;0.965820;
224351;0.002930;0.021484;0.951172;
224559;0.002930;0.027344;0.951172;
224793;0.000977;0.023438;0.950195;
225013;0.000977;0.025391;0.978516;
225233;0.003906;0.026367;0.995117;
225443;0.002930;0.023438;1.017578;
225663;0.002930;0.021484;1.032227;
225883;0.001953;0.021484;1.035156;
226093;0.001953;0.022461;1.033203;
226303;0.004883;0.020508;1.036133;
226523;0.002930;0.020508;1.037109;
226733;0.004883;0.023438;1.032227;
226953;0.004883;0.020508;1.023438;
227173;0.002930;0.019531;1.009766;
227393;0.002930;0.027344;1.025391;
227613;0.000977;0.024414;1.020508;
227829;0.004883;0.017578;1.036133;
228069;0.002930;0.020508;1.045898;
228303;0.007812;0.021484;1.055664;
228523;0.004883;0.021484;1.050781;
228733;0.005859;0.023438;1.054688;
228943;0.005859;0.022461;1.055664;
229153;0.001953;0.024414;1.059570;
229373;0.002930;0.026367;1.057617;
229593;0.003906;0.025391;1.052734;
229813;0.003906;0.025391;1.048828;
230023;0.000977;0.024414;1.055664;
230243;0.002930;0.028320;1.052734;
230463;0.003906;0.021484;1.032227;
230683;0.003906;0.022461;1.039062;
230893;0.006836;0.028320;1.037109;
231113;0.007812;0.025391;1.028320;
231333;0.000977;0.021484;1.025391;
231549;0.002930;0.023438;1.025391;
231779;0.004883;0.025391;1.015625;
232019;0.002930;0.021484;1.010742;
232243;0.005859;0.026367;1.015625;
232463;0.000977;0.019531;1.000000;
232683;-0.002930;0.022461;0.968750;
232904;-0.000977;0.027344;0.967773;
233123;-0.002930;0.021484;0.949219;
233344;-0.000977;0.021484;0.947266;
233563;-0.000977;0.022461;0.952148;
233783;0.000000;0.024414;0.948242;
234003;0.002930;0.024414;0.953125;
234213;-0.000977;0.016602;0.946289;
234433;-0.001953;0.018555;0.947266;
234653;0.000977;0.021484;0.951172;
234863;0.002930;0.020508;0.971680;
235083;-0.000977;0.019531;0.961914;
235299;0.000977;0.018555;0.964844;
235539;-0.004883;0.018555;0.964844;
235763;0.000000;0.020508;0.974609;
235983;0.001953;0.024414;1.005859;
236203;0.004883;0.016602;1.041992;
236423;0.001953;0.018555;1.073242;
236633;0.007812;0.023438;1.097656;
236853;0.008789;0.022461;1.121094;
237073;0.005859;0.017578;1.113281;
237293;0.009766;0.020508;1.140625;
237514;0.004883;0.027344;1.139648;
237723;0.009766;0.017578;1.156250;
237933;0.008789;0.018555;1.166992;
238153;0.009766;0.023438;1.154297;
238373;0.007812;0.023438;1.139648;
238583;0.009766;0.017578;1.129883;
238799;0.007812;0.019531;1.111328;
239040;0.007812;0.019531;1.083984;
239269;0.005859;0.025391;1.068359;
239483;0.004883;0.017578;1.052734;
239703;0.002930;0.019531;1.050781;
239923;0.004883;0.018555;1.036133;
240143;0.002930;0.019531;1.014648;
240353;0.000977;0.019531;0.995117;
240573;0.000000;0.019531;0.994141;
240793;0.000000;0.020508;1.006836;
241013;0.000000;0.020508;1.013672;
241233;0.001953;0.023438;1.019531;
241443;-0.001953;0.024414;1.038086;
241653;-0.003906;0.025391;1.053711;
241873;-0.000977;0.032227;1.080078;
242093;0.000000;0.023438;1.094727;
242303;-0.002930;0.028320;1.102539;
242519;-0.005859;0.024414;1.090820;
242749;-0.002930;0.025391;1.093750;
242983;-0.005859;0.016602;1.087891;
243203;-0.006836;0.021484;1.082031;
243423;-0.000977;0.020508;1.092773;
243643;-0.002930;0.019531;1.093750;
243863;-0.002930;0.020508;1.097656;
244073;-0.001953;0.020508;1.083008;
244283;-0.004883;0.024414;1.107422;
244503;0.000977;0.020508;1.086914;
244724;-0.002930;0.022461;1.077148;
244933;-0.002930;0.025391;1.057617;
245153;-0.005859;0.021484;1.029297;
245363;-0.003906;0.020508;1.042969;
245583;-0.006836;0.021484;1.034180;
245803;-0.005859;0.023438;1.000000;
246009;-0.005859;0.023438;0.970703;
246239;-0.010742;0.021484;0.935547;
246469;-0.005859;0.026367;0.957031;
246703;-0.009766;0.022461;0.943359;
246923;-0.009766;0.025391;0.958984;
247143;-0.010742;0.022461;0.967773;
247353;-0.008789;0.024414;0.970703;
247573;-0.006836;0.023438;0.988281;
247793;-0.005859;0.023438;1.002930;
248013;-0.010742;0.020508;1.000000;
248233;-0.006836;0.023438;0.996094;
248453;-0.003906;0.024414;0.984375;
248663;-0.006836;0.024414;0.966797;
248873;-0.009766;0.025391;0.938477;
249093;-0.010742;0.022461;0.907227;
249303;-0.010742;0.018555;0.906250;
249523;-0.009766;0.020508;0.927734;
249743;-0.007812;0.023438;0.951172;
249959;-0.009766;0.020508;0.968750;
250189;-0.008789;0.024414;0.988281;
250433;-0.008789;0.022461;1.007812;
250643;-0.006836;0.030273;1.017578;
250863;-0.008789;0.023438;1.015625;
251083;-0.005859;0.023438;1.038086;
251303;-0.000977;0.024414;1.056641;
251513;-0.004883;0.018555;1.061523;
251733;-0.003906;0.015625;1.062500;
251943;-0.003906;0.019531;1.068359;
252153;-0.004883;0.025391;1.066406;
252373;-0.003906;0.019531;1.056641;
252593;-0.003906;0.023438;1.062500;
252803;-0.006836;0.022461;1.044922;
253023;-0.006836;0.023438;1.041992;
253243;-0.002930;0.020508;1.042969;
253463;-0.005859;0.022461;1.048828;
253679;-0.006836;0.025391;1.029297;
253909;-0.006836;0.021484;1.034180;
254139;-0.006836;0.022461;1.017578;
254373;-0.005859;0.021484;0.989258;
254583;-0.010742;0.026367;0.982422;
254803;-0.009766;0.021484;0.988281;
255013;-0.004883;0.021484;1.015625;
255223;-0.002930;0.021484;1.030273;
255443;-0.005859;0.024414;1.044922;
255653;-0.007812;0.020508;1.048828;
255873;-0.003906;0.022461;1.068359;
256093;-0.002930;0.020508;1.065430;
256313;-0.004883;0.017578;1.071289;
256533;-0.005859;0.020508;1.065430;
256743;-0.006836;0.025391;1.063477;
256954;-0.008789;0.021484;1.048828;
257169;-0.002930;0.022461;1.048828;
257388;-0.006836;0.023438;1.043945;
257620;-0.007812;0.027344;1.034180;
257853;-0.007812;0.025391;1.024414;
258073;-0.005859;0.021484;1.037109;
258293;-0.001953;0.026367;1.043945;
258503;-0.007812;0.022461;1.036133;
258723;-0.008789;0.017578;1.031250;
258933;-0.003906;0.019531;1.032227;
259153;-0.002930;0.020508;1.051758;
259373;-0.003906;0.020508;1.049805;
259583;-0.006836;0.020508;1.038086;
259793;-0.007812;0.022461;1.034180;
260013;-0.008789;0.021484;1.031250;
260223;-0.003906;0.017578;1.027344;
260433;-0.001953;0.023438;1.029297;
260653;-0.004883;0.025391;1.024414;
260869;-0.006836;0.020508;1.007812;
261099;-0.006836;0.026367;1.008789;
261329;-0.003906;0.023438;1.002930;
261563;-0.006836;0.023438;0.977539;
261783;-0.011719;0.023438;0.984375;
262003;-0.010742;0.023438;0.988281;
262213;-0.006836;0.020508;0.996094;
262433;-0.007812;0.026367;1.000000;
262643;-0.009766;0.024414;0.997070;
262863;-0.009766;0.024414;0.996094;
263083;-0.007812;0.021484;1.012695;
263293;-0.004883;0.027344;1.021484;
263503;-0.006836;0.021484;1.030273;
263713;-0.007812;0.023438;1.038086;
263923;-0.006836;0.018555;1.019531;
264143;-0.008789;0.020508;1.024414;
264359;-0.000977;0.021484;1.042969;
264589;-0.004883;0.025391;1.050781;
264819;-0.004883;0.021484;1.059570;
265053;-0.003906;0.022461;1.088867;
265273;-0.001953;0.026367;1.101562;
265483;-0.001953;0.025391;1.106445;
265694;0.000000;0.025391;1.112305;
265913;0.000000;0.026367;1.108398;
266133;-0.000977;0.021484;1.098633;
266353;-0.003906;0.024414;1.085938;
266573;-0.003906;0.023438;1.075195;
266783;-0.002930;0.023438;1.069336;
266993;-0.001953;0.022461;1.066406;
267213;0.000000;0.021484;1.059570;
267433;-0.004883;0.021484;1.057617;
267643;-0.003906;0.023438;1.054688;
267853;-0.002930;0.018555;1.050781;
268059;-0.001953;0.022461;1.053711;
268289;-0.001953;0.019531;1.057617;
268499;-0.004883;0.019531;1.052734;
268723;-0.003906;0.018555;1.056641;
268933;-0.001953;0.014648;1.057617;
269153;0.000977;0.022461;1.073242;
269363;0.003906;0.023438;1.061523;
269573;0.010742;0.018555;1.062500;
269793;0.012695;0.022461;1.071289;
270013;0.015625;0.017578;1.083008;
270233;0.016602;0.015625;1.071289;
270453;0.013672;0.019531;1.054688;
270663;0.020508;0.013672;1.049805;
270873;0.023438;0.017578;1.046875;
271093;0.033203;0.021484;1.034180;
271313;0.041016;0.016602;1.012695;
271533;0.049805;0.020508;1.006836;
271749;0.055664;0.024414;0.999023;
271980;0.058594;0.016602;0.979492;
272213;0.063477;0.019531;0.964844;
272433;0.070312;0.020508;0.972656;
272643;0.079102;0.018555;0.947266;
272863;0.085938;0.023438;0.941406;
273073;0.083008;0.025391;0.956055;
273293;0.090820;0.025391;0.959961;
273503;0.093750;0.021484;0.966797;
273713;0.090820;0.025391;0.969727;
273923;0.093750;0.012695;0.961914;
274133;0.095703;0.025391;0.984375;
274353;0.094727;0.017578;0.997070;
274573;0.094727;0.020508;0.997070;
274793;0.092773;0.019531;0.987305;
275003;0.091797;0.018555;0.988281;
275209;0.092773;0.026367;1.021484;
275439;0.095703;0.014648;1.030273;
275670;0.096680;0.023438;1.047852;
275913;0.095703;0.017578;1.039062;
276133;0.094727;0.023438;1.041016;
276353;0.091797;0.016602;1.035156;
276573;0.093750;0.015625;1.034180;
276783;0.090820;0.019531;1.033203;
277003;0.091797;0.020508;1.040039;
277223;0.088867;0.021484;1.030273;
277443;0.092773;0.021484;1.025391;
277653;0.092773;0.024414;1.011719;
277873;0.089844;0.014648;0.989258;
278093;0.088867;0.018555;0.994141;
278313;0.090820;0.017578;0.973633;
278533;0.089844;0.028320;0.969727;
278753;0.083984;0.017578;0.962891;
278959;0.089844;0.020508;0.959961;
279189;0.087891;0.021484;0.973633;
279433;0.084961;0.020508;0.958984;
279653;0.087891;0.015625;0.969727;
279873;0.083984;0.016602;0.971680;
280093;0.083984;0.015625;0.984375;
280313;0.085938;0.017578;1.000000;
280523;0.085938;0.021484;0.987305;
280733;0.089844;0.016602;1.025391;
280953;0.088867;0.018555;1.040039;
281173;0.086914;0.023438;1.061523;
281383;0.091797;0.022461;1.084961;
281593;0.087891;0.021484;1.090820;
281803;0.088867;0.018555;1.067383;
282023;0.091797;0.017578;1.063477;
282243;0.083984;0.020508;1.066406;
282460;0.086914;0.016602;1.052734;
282669;0.085938;0.019531;1.052734;
282900;0.085938;0.019531;1.060547;
283133;0.087891;0.019531;1.038086;
283353;0.084961;0.017578;1.042969;
283563;0.083008;0.022461;1.041992;
283783;0.084961;0.018555;1.028320;
284003;0.086914;0.020508;1.040039;
284223;0.083984;0.025391;1.041992;
284433;0.081055;0.016602;1.012695;
284643;0.084961;0.015625;1.021484;
284863;0.084961;0.019531;1.028320;
285083;0.080078;0.022461;1.017578;
285303;0.080078;0.016602;1.009766;
285523;0.078125;0.018555;1.015625;
285733;0.082031;0.013672;1.017578;
285953;0.085938;0.020508;0.985352;
286159;0.083984;0.018555;0.984375;
286379;0.078125;0.019531;0.987305;
286613;0.076172;0.015625;0.965820;
286830;0.080078;0.025391;0.961914;
287053;0.077148;0.019531;0.987305;
287273;0.076172;0.017578;0.971680;
287493;0.081055;0.020508;1.008789;
287703;0.078125;0.023438;1.034180;
287913;0.077148;0.017578;1.077148;
288133;0.082031;0.025391;1.125977;
288353;0.082031;0.021484;1.193359;
288573;0.085938;0.015625;1.286133;
288783;0.089844;0.015625;1.365234;
288993;0.095703;0.008789;1.433594;
289213;0.099609;0.015625;1.536133;
289433;0.107422;0.019531;1.631836;
289653;0.110352;0.015625;1.690430;
289873;0.116211;0.015625;1.749023;
290089;0.121094;0.015625;1.803711;
290319;0.119141;0.010742;1.825195;
290548;0.125000;0.013672;1.849609;
290773;0.125000;0.017578;1.857422;
290993;0.125000;0.017578;1.882812;
291213;0.124023;0.013672;1.857422;
291423;0.123047;0.014648;1.850586;
291633;0.124023;0.010742;1.868164;
291853;0.127930;0.014648;1.856445;
292073;0.127930;0.015625;1.840820;
292283;0.125977;0.015625;1.837891;
292503;0.124023;0.012695;1.859375;
292713;0.121094;0.007812;1.849609;
292923;0.124023;0.007812;1.841797;
293143;0.124023;0.014648;1.854492;
293363;0.125000;0.016602;1.854492;
293578;0.124023;0.008789;1.848633;
293809;0.127930;0.014648;1.840820;
294039;0.128906;0.010742;1.849609;
294273;0.125977;0.010742;1.844727;
294493;0.131836;0.009766;1.848633;
294703;0.127930;0.006836;1.846680;
294923;0.127930;0.005859;1.828125;
295133;0.130859;0.012695;1.832031;
295353;0.126953;0.009766;1.841797;
295573;0.127930;0.007812;1.809570;
295783;0.133789;0.018555;1.823242;
295993;0.133789;0.009766;1.809570;
296203;0.130859;0.008789;1.805664;
296423;0.137695;0.002930;1.811523;
296643;0.135742;0.008789;1.825195;
296853;0.138672;0.008789;1.838867;
297073;0.137695;0.013672;1.823242;
297289;0.141602;0.013672;1.832031;
297519;0.140625;0.014648;1.840820;
297750;0.143555;0.015625;1.860352;
297973;0.147461;0.007812;1.844727;
298183;0.148438;0.013672;1.849609;
298393;0.150391;0.008789;1.869141;
298603;0.151367;0.006836;1.878906;
298823;0.152344;0.013672;1.894531;
299043;0.154297;0.014648;1.890625;
299263;0.157227;0.014648;1.890625;
299483;0.151367;0.025391;1.878906;
299693;0.155273;0.028320;1.871094;
299913;0.156250;0.020508;1.874023;
300123;0.159180;0.017578;1.849609;
300343;0.159180;0.021484;1.860352;
300563;0.163086;0.012695;1.842773;
300773;0.162109;0.017578;1.853516;
300989;0.165039;0.008789;1.829102;
301219;0.166992;0.015625;1.857422;
301453;0.165039;0.008789;1.842773;
301673;0.166992;0.011719;1.855469;
301883;0.172852;0.003906;1.847656;
302103;0.170898;0.014648;1.861328;
302323;0.172852;0.011719;1.866211;
302543;0.174805;0.000977;1.868164;
302753;0.180664;-0.001953;1.873047;
302974;0.177734;0.000000;1.849609;
303193;0.176758;0.000977;1.852539;
303413;0.184570;0.018555;1.854492;
303633;0.182617;0.007812;1.839844;
303853;0.177734;0.013672;1.846680;
304073;0.184570;0.016602;1.837891;
304293;0.182617;0.019531;1.859375;
304509;0.185547;0.014648;1.839844;
304739;0.187500;0.003906;1.831055;
304969;0.191406;-0.006836;1.846680;
305183;0.195312;-0.004883;1.838867;
305403;0.194336;-0.007812;1.832031;
305613;0.197266;0.007812;1.838867;
305833;0.197266;0.004883;1.839844;
306053;0.197266;0.017578;1.848633;
306273;0.197266;0.031250;1.842773;
306493;0.200195;0.037109;1.830078;
306713;0.201172;0.035156;1.811523;
306933;0.200195;0.041016;1.790039;
307143;0.202148;0.028320;1.749023;
307363;0.197266;0.020508;1.716797;
307573;0.196289;0.014648;1.682617;
307793;0.197266;0.012695;1.648438;
308009;0.193359;0.029297;1.618164;
308240;0.196289;0.016602;1.573242;
308470;0.186523;0.016602;1.508789;
308703;0.175781;0.009766;1.497070;
308923;0.171875;0.014648;1.478516;
309143;0.164062;0.015625;1.471680;
309363;0.152344;0.021484;1.444336;
309583;0.135742;0.019531;1.379883;
309793;0.114258;0.014648;1.261719;
310003;0.091797;0.012695;1.102539;
310223;0.065430;0.011719;0.968750;
310443;0.044922;0.015625;0.763672;
310663;0.035156;0.013672;0.593750;
310873;0.021484;0.022461;0.435547;
311083;-0.002930;0.008789;0.281250;
311293;0.002930;0.010742;0.273438;
311514;0.016602;0.018555;0.151367;
311719;0.003906;0.024414;0.100586;
311950;0.004883;0.020508;0.063477;
312179;0.005859;0.019531;-0.000977;
312403;0.023438;0.047852;0.072266;
312613;0.003906;0.038086;0.064453;
312833;-0.000977;0.037109;0.044922;
313053;-0.000977;0.031250;0.037109;
313263;-0.007812;0.031250;0.040039;
313483;-0.000977;0.029297;0.063477;
313693;-0.001953;0.029297;0.040039;
313903;-0.002930;0.030273;0.050781;
314113;-0.007812;0.030273;0.035156;
314333;-0.007812;0.026367;0.058594;
314543;-0.003906;0.029297;0.043945;
314759;-0.002930;0.041016;0.041016;
314973;-0.005859;0.026367;0.034180;
315193;-0.007812;0.026367;0.035156;
315419;-0.007812;0.028320;0.018555;
315649;-0.005859;0.026367;0.005859;
315870;-0.004883;0.028320;0.010742;
316093;-0.011719;0.027344;0.016602;
316313;-0.006836;0.029297;0.018555;
316533;-0.007812;0.028320;0.010742;
316753;-0.013672;0.029297;0.005859;
316963;-0.007812;0.033203;0.015625;
317183;-0.009766;0.031250;0.013672;
317403;-0.008789;0.030273;0.027344;
317623;-0.012695;0.032227;0.010742;
317833;-0.011719;0.027344;0.011719;
318043;-0.014648;0.030273;0.026367;
318263;-0.015625;0.025391;0.034180;
318473;-0.010742;0.026367;0.025391;
318693;-0.010742;0.028320;0.045898;
318909;-0.012695;0.025391;0.044922;
319149;-0.011719;0.025391;0.038086;
319389;-0.016602;0.027344;0.024414;
319623;-0.014648;0.026367;0.026367;
319843;-0.016602;0.026367;0.019531;
320053;-0.012695;0.028320;0.033203;
320273;-0.014648;0.029297;0.017578;
320485;-0.012695;0.028320;0.033203;
320713;-0.014648;0.027344;0.031250;
320933;-0.011719;0.026367;0.027344;
321153;-0.011719;0.029297;0.029297;
321373;-0.015625;0.030273;0.020508;
321593;-0.011719;0.024414;0.023438;
321823;-0.015625;0.027344;0.009766;
322043;-0.012695;0.027344;0.025391;
322253;-0.015625;0.025391;0.022461;
322475;-0.014648;0.023438;0.023438;
322709;-0.011719;0.024414;0.030273;
322940;-0.007812;0.022461;0.025391;
323163;-0.013672;0.026367;0.033203;
323383;-0.013672;0.025391;0.022461;
323603;-0.014648;0.027344;0.031250;
323823;-0.013672;0.028320;0.028320;
324033;-0.015625;0.026367;0.026367;
324243;-0.014648;0.028320;0.018555;
324463;-0.015625;0.023438;0.016602;
324683;-0.014648;0.024414;0.012695;
324903;-0.015625;0.026367;0.005859;
325113;-0.013672;0.025391;0.000000;
325323;-0.013672;0.025391;0.001953;
325543;-0.015625;0.019531;-0.002930;
325753;-0.013672;0.021484;-0.009766;
325973;-0.013672;0.021484;-0.012695;
326189;-0.015625;0.020508;-0.013672;
326420;-0.015625;0.021484;-0.014648;
326649;-0.016602;0.023438;-0.009766;
326859;-0.016602;0.025391;-0.006836;
327083;-0.016602;0.024414;-0.003906;
327303;-0.015625;0.024414;0.003906;
327523;-0.017578;0.028320;0.005859;
327733;-0.018555;0.029297;0.018555;
327953;-0.020508;0.030273;0.010742;
328173;-0.019531;0.029297;0.014648;
328393;-0.020508;0.028320;0.024414;
328603;-0.019531;0.026367;0.027344;
328823;-0.020508;0.028320;0.031250;
329043;-0.023438;0.028320;0.041016;
329263;-0.018555;0.030273;0.041016;
329483;-0.019531;0.027344;0.034180;
329693;-0.022461;0.035156;0.027344;
329913;-0.024414;0.033203;0.011719;
330129;-0.020508;0.033203;0.008789;
330359;-0.022461;0.033203;-0.002930;
330580;-0.022461;0.031250;-0.003906;
330803;-0.023438;0.029297;-0.006836;
331013;-0.026367;0.035156;-0.010742;
331233;-0.027344;0.032227;-0.003906;
331453;-0.024414;0.032227;0.002930;
331673;-0.027344;0.028320;-0.003906;
331895;-0.025391;0.026367;0.006836;
332123;-0.027344;0.030273;0.000000;
332333;-0.029297;0.030273;-0.027344;
332549;-0.028320;0.029297;-0.022461;
332783;-0.031250;0.027344;-0.008789;
333003;-0.030273;0.029297;-0.004883;
333223;-0.034180;0.027344;0.002930;
333433;-0.033203;0.033203;0.004883;
333655;-0.035156;0.037109;0.002930;
333889;-0.034180;0.028320;0.009766;
334123;-0.039062;0.027344;0.009766;
334339;-0.038086;0.026367;0.022461;
334573;-0.034180;0.032227;0.016602;
334783;-0.039062;0.031250;0.024414;
335003;-0.041992;0.031250;0.047852;
335223;-0.047852;0.021484;0.088867;
335433;-0.045898;0.018555;0.167969;
335643;-0.041992;0.019531;0.324219;
335853;-0.031250;0.021484;0.484375;
336063;-0.023438;0.020508;0.637695;
336283;-0.004883;0.019531;0.853516;
336503;0.005859;0.019531;1.012695;
336723;0.020508;0.025391;1.185547;
336933;0.035156;0.030273;1.297852;
337143;0.045898;0.033203;1.387695;
337363;0.057617;0.023438;1.475586;
337569;0.059570;0.028320;1.553711;
337789;0.061523;0.030273;1.614258;
338019;0.058594;0.029297;1.617188;
338253;0.059570;0.030273;1.647461;
338463;0.062500;0.016602;1.651367;
338673;0.055664;0.034180;1.659180;
338883;0.054688;0.014648;1.670898;
339103;0.055664;0.034180;1.674805;
339313;0.057617;0.030273;1.722656;
339523;0.051758;0.011719;1.699219;
339743;0.055664;0.027344;1.710938;
339953;0.050781;0.027344;1.702148;
340163;0.046875;0.031250;1.700195;
340383;0.041992;0.024414;1.700195;
340603;0.042969;0.020508;1.731445;
340823;0.041992;0.018555;1.751953;
341033;0.045898;0.015625;1.779297;
341239;0.044922;0.008789;1.804688;
341459;0.043945;0.009766;1.823242;
341690;0.045898;0.009766;1.837891;
341899;0.046875;0.008789;1.866211;
342113;0.037109;0.018555;1.850586;
342333;0.041992;0.016602;1.867188;
342543;0.036133;0.025391;1.881836;
342753;0.035156;0.026367;1.864258;
342973;0.031250;0.040039;1.852539;
343193;0.027344;0.037109;1.808594;
343403;0.022461;0.041992;1.785156;
343613;0.017578;0.044922;1.759766;
343833;0.013672;0.036133;1.720703;
344043;0.007812;0.030273;1.695312;
344263;0.004883;0.019531;1.674805;
344483;0.004883;0.020508;1.668945;
344693;0.002930;0.017578;1.666992;
344909;0.000977;0.014648;1.677734;
345149;0.002930;0.012695;1.693359;
345379;0.000977;0.011719;1.710938;
345600;0.002930;0.015625;1.732422;
345813;0.001953;0.012695;1.747070;
346023;-0.000977;0.017578;1.768555;
346233;-0.000977;0.020508;1.775391;
346443;0.000977;0.023438;1.789062;
346653;-0.000977;0.028320;1.786133;
346863;-0.002930;0.039062;1.790039;
347073;-0.005859;0.034180;1.781250;
347293;-0.004883;0.024414;1.781250;
347503;-0.002930;0.016602;1.781250;
347723;-0.001953;0.017578;1.785156;
347943;-0.008789;0.016602;1.771484;
348153;-0.010742;0.012695;1.760742;
348373;-0.009766;0.011719;1.750000;
348583;-0.015625;0.013672;1.740234;
348799;-0.018555;0.017578;1.719727;
349009;-0.018555;0.020508;1.711914;
349229;-0.021484;0.015625;1.694336;
349453;-0.026367;0.019531;1.672852;
349663;-0.027344;0.015625;1.655273;
349883;-0.030273;0.017578;1.656250;
350093;-0.029297;0.018555;1.638672;
350313;-0.033203;0.017578;1.619141;
350523;-0.038086;0.007812;1.599609;
350733;-0.039062;0.008789;1.581055;
350943;-0.041016;0.010742;1.552734;
351163;-0.043945;0.010742;1.505859;
351383;-0.050781;0.018555;1.469727;
351593;-0.054688;0.021484;1.414062;
351803;-0.059570;0.025391;1.390625;
352023;-0.061523;0.022461;1.381836;
352233;-0.060547;0.025391;1.397461;
352440;-0.055664;0.022461;1.417969;
352659;-0.055664;0.020508;1.455078;
352899;-0.051758;0.020508;1.493164;
353133;-0.051758;0.019531;1.519531;
353343;-0.051758;0.017578;1.540039;
353554;-0.049805;0.017578;1.552734;
353773;-0.051758;0.019531;1.560547;
353983;-0.053711;0.020508;1.549805;
354203;-0.054688;0.022461;1.526367;
354423;-0.057617;0.023438;1.509766;
354633;-0.058594;0.027344;1.509766;
354853;-0.057617;0.027344;1.532227;
355063;-0.054688;0.020508;1.566406;
355284;-0.047852;0.021484;1.611328;
355493;-0.045898;0.016602;1.657227;
355713;-0.042969;0.014648;1.695312;
355933;-0.038086;0.014648;1.708984;
356139;-0.043945;0.014648;1.703125;
356369;-0.045898;0.019531;1.683594;
356599;-0.046875;0.016602;1.643555;
356833;-0.050781;0.020508;1.598633;
357043;-0.054688;0.022461;1.567383;
357253;-0.057617;0.025391;1.531250;
357473;-0.059570;0.022461;1.485352;
357693;-0.062500;0.021484;1.449219;
357913;-0.065430;0.020508;1.411133;
358123;-0.067383;0.022461;1.369141;
358333;-0.072266;0.020508;1.342773;
358553;-0.073242;0.020508;1.311523;
358763;-0.073242;0.024414;1.299805;
358983;-0.074219;0.028320;1.291016;
359203;-0.073242;0.022461;1.285156;
359413;-0.075195;0.022461;1.287109;
359633;-0.072266;0.020508;1.287109;
359863;-0.076172;0.013672;1.263672;
360090;-0.076172;0.021484;1.243164;
360333;-0.081055;0.014648;1.209961;
360543;-0.077148;0.021484;1.232422;
360763;-0.074219;0.015625;1.272461;
360973;-0.068359;0.021484;1.310547;
361183;-0.068359;0.021484;1.364258;
361403;-0.066406;0.020508;1.412109;
361613;-0.062500;0.023438;1.444336;
361833;-0.062500;0.022461;1.470703;
362043;-0.060547;0.030273;1.491211;
362253;-0.058594;0.025391;1.491211;
362463;-0.062500;0.026367;1.460938;
362673;-0.062500;0.021484;1.408203;
362883;-0.069336;0.024414;1.359375;
363103;-0.071289;0.020508;1.302734;
363319;-0.073242;0.019531;1.248047;
363559;-0.074219;0.023438;1.208008;
363789;-0.078125;0.019531;1.152344;
364023;-0.083008;0.017578;1.110352;
364243;-0.083008;0.020508;1.089844;
364453;-0.085938;0.018555;1.055664;
364663;-0.085938;0.016602;1.045898;
364883;-0.084961;0.017578;1.041992;
365093;-0.083984;0.021484;1.034180;
365313;-0.087891;0.018555;1.038086;
365523;-0.083984;0.021484;1.036133;
365743;-0.085938;0.022461;1.038086;
365953;-0.083008;0.023438;1.042969;
366163;-0.083984;0.023438;1.035156;
366383;-0.083984;0.023438;1.013672;
366603;-0.082031;0.022461;1.012695;
366819;-0.083008;0.025391;1.022461;
367059;-0.077148;0.019531;1.033203;
367289;-0.079102;0.017578;1.033203;
367523;-0.071289;0.023438;1.071289;
367733;-0.068359;0.022461;1.091797;
367953;-0.065430;0.019531;1.086914;
368163;-0.063477;0.020508;1.086914;
368383;-0.060547;0.019531;1.074219;
368593;-0.056641;0.023438;1.052734;
368803;-0.045898;0.020508;1.056641;
369023;-0.041992;0.025391;1.041016;
369233;-0.030273;0.027344;1.043945;
369453;-0.024414;0.021484;1.042969;
369663;-0.018555;0.019531;1.043945;
369883;-0.017578;0.026367;1.046875;
370093;-0.020508;0.021484;1.030273;
370313;-0.021484;0.026367;1.005859;
370529;-0.024414;0.018555;0.997070;
370759;-0.027344;0.025391;0.982422;
370989;-0.023438;0.018555;1.006836;
371223;-0.025391;0.018555;0.978516;
371443;-0.027344;0.019531;0.966797;
371653;-0.026367;0.027344;0.955078;
371863;-0.029297;0.027344;0.957031;
372073;-0.026367;0.027344;0.981445;
372293;-0.026367;0.025391;1.014648;
372513;-0.024414;0.024414;1.050781;
372723;-0.020508;0.019531;1.083008;
372943;-0.022461;0.023438;1.098633;
373153;-0.020508;0.017578;1.125000;
373363;-0.017578;0.018555;1.167969;
373583;-0.013672;0.018555;1.200195;
373803;-0.011719;0.016602;1.225586;
374023;-0.010742;0.013672;1.243164;
374250;-0.010742;0.019531;1.244141;
374479;-0.010742;0.016602;1.241211;
374689;-0.010742;0.019531;1.231445;
374913;-0.010742;0.013672;1.188477;
375123;-0.010742;0.018555;1.144531;
375333;-0.020508;0.017578;1.069336;
375553;-0.020508;0.025391;1.010742;
375773;-0.023438;0.021484;0.953125;
375993;-0.027344;0.022461;0.882812;
376213;-0.027344;0.024414;0.863281;
376423;-0.029297;0.022461;0.842773;
376633;-0.030273;0.021484;0.835938;
376853;-0.031250;0.027344;0.832031;
377073;-0.029297;0.023438;0.829102;
377283;-0.033203;0.023438;0.828125;
377503;-0.031250;0.023438;0.830078;
377713;-0.034180;0.023438;0.831055;
377939;-0.030273;0.024414;0.833984;
378159;-0.032227;0.017578;0.836914;
378389;-0.029297;0.026367;0.870117;
378603;-0.029297;0.018555;0.917969;
378823;-0.022461;0.021484;0.982422;
379033;-0.019531;0.020508;1.034180;
379243;-0.021484;0.023438;1.075195;
379450;-0.018555;0.016602;1.118164;
379663;-0.015625;0.018555;1.154297;
379883;-0.014648;0.022461;1.157227;
380099;-0.013672;0.019531;1.152344;
380333;-0.017578;0.020508;1.147461;
380543;-0.015625;0.015625;1.149414;
380759;-0.015625;0.022461;1.150391;
380993;-0.013672;0.021484;1.168945;
381203;-0.012695;0.018555;1.174805;
381420;-0.010742;0.019531;1.188477;
381650;-0.011719;0.017578;1.204102;
381889;-0.007812;0.018555;1.217773;
382119;-0.009766;0.020508;1.228516;
382361;-0.009766;0.017578;1.233398;
382593;-0.008789;0.018555;1.201172;
382803;-0.007812;0.019531;1.163086;
383009;-0.009766;0.023438;1.121094;
383233;-0.014648;0.024414;1.054688;
383443;-0.013672;0.021484;1.010742;
383663;-0.017578;0.030273;0.943359;
383883;-0.021484;0.029297;0.909180;
384093;-0.019531;0.027344;0.900391;
384303;-0.019531;0.029297;0.889648;
384523;-0.015625;0.026367;0.906250;
384743;-0.013672;0.024414;0.916016;
384953;-0.012695;0.024414;0.939453;
385173;-0.011719;0.019531;0.970703;
385383;-0.012695;0.019531;0.971680;
385591;-0.014648;0.019531;0.982422;
385819;-0.012695;0.016602;0.977539;
386049;-0.010742;0.020508;0.998047;
386283;-0.011719;0.018555;1.003906;
386503;-0.012695;0.027344;1.013672;
386713;-0.013672;0.022461;1.006836;
386923;-0.010742;0.028320;1.024414;
387133;-0.011719;0.023438;1.032227;
387343;-0.011719;0.026367;1.042969;
387563;-0.009766;0.026367;1.049805;
387773;-0.011719;0.028320;1.057617;
387993;-0.010742;0.022461;1.053711;
388213;-0.011719;0.025391;1.049805;
388433;-0.007812;0.021484;1.049805;
388643;-0.007812;0.022461;1.047852;
388863;-0.010742;0.017578;1.034180;
389083;-0.013672;0.023438;1.031250;
389299;-0.009766;0.021484;1.039062;
389519;-0.011719;0.020508;1.026367;
389763;-0.009766;0.020508;1.040039;
389983;-0.008789;0.023438;1.050781;
390203;-0.011719;0.020508;1.040039;
390423;-0.007812;0.024414;1.050781;
390643;-0.012695;0.020508;1.031250;
390863;-0.009766;0.021484;1.041992;
391073;-0.011719;0.020508;1.038086;
391283;-0.007812;0.025391;1.040039;
391503;-0.012695;0.017578;1.034180;
391723;-0.008789;0.021484;1.060547;
391933;-0.008789;0.020508;1.047852;
392143;-0.005859;0.026367;1.067383;
392363;-0.009766;0.022461;1.066406;
392573;-0.008789;0.023438;1.062500;
392789;-0.010742;0.023438;1.063477;
392999;-0.010742;0.021484;1.066406;
393209;-0.008789;0.021484;1.054688;
393443;-0.008789;0.024414;1.065430;
393663;-0.007812;0.022461;1.058594;
393883;-0.005859;0.021484;1.056641;
394103;-0.007812;0.020508;1.054688;
394323;-0.005859;0.020508;1.057617;
394533;-0.009766;0.015625;1.047852;
394753;-0.010742;0.022461;1.052734;
394963;-0.011719;0.020508;1.047852;
395183;-0.010742;0.024414;1.047852;
395403;-0.008789;0.025391;1.040039;
395623;-0.007812;0.026367;1.036133;
395843;-0.009766;0.023438;1.033203;
396063;-0.014648;0.029297;1.028320;
396283;-0.010742;0.023438;1.037109;
396503;-0.011719;0.020508;1.032227;
396709;-0.007812;0.019531;1.035156;
396939;-0.009766;0.018555;1.041016;
397169;-0.010742;0.016602;1.032227;
397403;-0.010742;0.020508;1.023438;
397613;-0.012695;0.021484;1.016602;
397833;-0.010742;0.016602;1.003906;
398053;-0.012695;0.020508;0.967773;
398263;-0.012695;0.020508;0.974609;
398483;-0.014648;0.021484;0.964844;
398693;-0.012695;0.023438;0.960938;
398913;-0.014648;0.024414;0.950195;
399133;-0.012695;0.020508;0.964844;
399353;-0.013672;0.023438;0.975586;
399573;-0.008789;0.024414;1.011719;
399793;-0.009766;0.028320;1.025391;
400013;-0.009766;0.019531;1.035156;
400235;-0.006836;0.021484;1.042969;
400459;-0.007812;0.021484;1.052734;
400699;-0.009766;0.021484;1.058594;
400933;-0.010742;0.022461;1.047852;
401153;-0.008789;0.019531;1.053711;
401373;-0.008789;0.019531;1.051758;
401593;-0.008789;0.019531;1.071289;
401803;-0.009766;0.021484;1.075195;
402013;-0.005859;0.022461;1.083008;
402223;-0.007812;0.020508;1.084961;
402433;-0.005859;0.017578;1.083984;
402655;-0.006836;0.018555;1.088867;
402873;-0.000977;0.022461;1.113281;
403093;-0.007812;0.015625;1.093750;
403313;-0.005859;0.021484;1.090820;
403523;-0.007812;0.017578;1.063477;
403743;-0.007812;0.020508;1.064453;
403959;-0.007812;0.020508;1.056641;
404179;-0.010742;0.022461;1.036133;
404399;-0.011719;0.019531;1.029297;
404629;-0.010742;0.021484;1.014648;
404853;-0.007812;0.024414;1.030273;
405074;-0.011719;0.022461;1.009766;
405293;-0.010742;0.022461;1.023438;
405513;-0.009766;0.018555;1.022461;
405733;-0.005859;0.023438;1.040039;
405943;-0.007812;0.020508;1.040039;
406153;-0.005859;0.026367;1.052734;
406373;-0.005859;0.021484;1.035156;
406583;-0.007812;0.024414;1.052734;
406803;-0.009766;0.021484;1.027344;
407013;-0.006836;0.021484;1.041016;
407233;-0.009766;0.021484;1.022461;
407453;-0.008789;0.023438;1.040039;
407675;-0.006836;0.021484;1.038086;
407919;-0.008789;0.020508;1.031250;
408161;-0.008789;0.020508;1.032227;
408393;-0.006836;0.019531;1.044922;
408613;-0.008789;0.022461;1.029297;
408833;-0.008789;0.020508;1.011719;
409053;-0.011719;0.021484;0.975586;
409273;-0.011719;0.018555;0.961914;
409493;-0.009766;0.020508;0.936523;
409705;-0.007812;0.023438;0.920898;
409943;-0.003906;0.025391;0.937500;
410163;-0.003906;0.027344;0.941406;
410383;-0.004883;0.031250;0.957031;
410603;-0.003906;0.032227;0.993164;
410823;0.003906;0.025391;1.010742;
411033;0.006836;0.029297;1.034180;
411249;0.005859;0.023438;1.038086;
411461;0.000000;0.016602;1.021484;
411688;0.000977;0.014648;1.039062;
411919;0.003906;0.010742;1.039062;
412139;0.002930;0.019531;1.043945;
412373;0.000000;0.017578;1.019531;
412593;-0.001953;0.025391;1.027344;
412799;0.000977;0.022461;1.036133;
413013;0.000000;0.025391;1.039062;
413233;0.001953;0.027344;1.034180;
413453;-0.000977;0.027344;1.051758;
413673;0.002930;0.026367;1.061523;
413895;0.001953;0.023438;1.074219;
414133;0.000000;0.023438;1.068359;
414343;-0.000977;0.023438;1.075195;
414555;0.003906;0.016602;1.073242;
414793;0.006836;0.019531;1.085938;
415003;0.007812;0.014648;1.080078;
415219;0.003906;0.022461;1.085938;
415449;0.000977;0.020508;1.068359;
415689;0.004883;0.019531;1.068359;
415919;0.000977;0.022461;1.065430;
416143;0.000977;0.023438;1.032227;
416353;-0.000977;0.021484;1.009766;
416563;-0.003906;0.023438;0.996094;
416783;0.004883;0.019531;1.002930;
417003;0.000977;0.020508;1.023438;
417223;0.001953;0.028320;1.034180;
417439;0.000000;0.021484;1.044922;
417673;0.005859;0.022461;1.076172;
417883;0.005859;0.019531;1.081055;
418089;0.004883;0.021484;1.069336;
418313;-0.000977;0.025391;1.047852;
418533;-0.002930;0.023438;1.017578;
418749;-0.002930;0.024414;0.995117;
418973;0.000977;0.022461;0.980469;
419179;0.000000;0.025391;0.972656;
419410;-0.004883;0.025391;0.960938;
419639;-0.005859;0.024414;0.951172;
419870;-0.002930;0.016602;0.950195;
420093;0.000977;0.021484;0.951172;
420313;0.000977;0.022461;0.950195;
420533;-0.003906;0.021484;0.941406;
420743;-0.003906;0.018555;0.951172;
420953;-0.006836;0.022461;0.953125;
421173;-0.000977;0.020508;0.954102;
421393;-0.001953;0.023438;0.961914;
421613;-0.002930;0.022461;0.968750;
421833;-0.002930;0.031250;0.953125;
422043;-0.000977;0.020508;0.959961;
422253;0.000000;0.018555;0.976562;
422473;-0.001953;0.019531;0.997070;
422693;0.000000;0.021484;1.014648;
422909;-0.000977;0.022461;1.048828;
423141;0.006836;0.020508;1.080078;
423369;0.004883;0.019531;1.091797;
423589;0.003906;0.021484;1.109375;
423820;0.004883;0.020508;1.119141;
424040;0.002930;0.020508;1.108398;
424253;0.007812;0.018555;1.102539;
424463;0.004883;0.018555;1.101562;
424669;0.004883;0.022461;1.096680;
424893;0.002930;0.026367;1.102539;
425103;0.003906;0.027344;1.109375;
425313;0.007812;0.025391;1.110352;
425533;0.005859;0.022461;1.102539;
425753;0.003906;0.020508;1.083984;
425973;0.002930;0.020508;1.051758;
426183;0.002930;0.018555;1.032227;
426403;0.000000;0.022461;1.007812;
426609;-0.001953;0.018555;0.973633;
426819;-0.003906;0.019531;0.967773;
427049;-0.000977;0.016602;0.966797;
427278;-0.001953;0.021484;0.973633;
427513;-0.001953;0.019531;0.988281;
427735;0.000000;0.023438;1.005859;
427963;0.000000;0.022461;1.020508;
428183;0.001953;0.022461;1.048828;
428390;0.004883;0.016602;1.054688;
428633;0.003906;0.024414;1.077148;
428853;0.002930;0.019531;1.076172;
429060;0.004883;0.021484;1.082031;
429293;0.003906;0.016602;1.080078;
429513;0.003906;0.023438;1.067383;
429729;0.001953;0.018555;1.066406;
429963;0.001953;0.019531;1.066406;
430173;0.001953;0.021484;1.060547;
430379;0.002930;0.024414;1.050781;
430610;0.000977;0.019531;1.046875;
430829;0.002930;0.020508;1.055664;
431059;0.000000;0.020508;1.060547;
431279;0.001953;0.021484;1.049805;
431509;0.001953;0.022461;1.027344;
431729;0.003906;0.020508;1.006836;
431973;-0.001953;0.021484;0.981445;
432183;-0.000977;0.022461;0.980469;
432399;0.000000;0.020508;0.972656;
432633;0.003906;0.019531;0.969727;
432853;0.008789;0.021484;0.967773;
433069;0.006836;0.026367;0.973633;
433303;0.007812;0.024414;0.986328;
433523;0.004883;0.029297;0.980469;
433739;0.005859;0.033203;0.986328;
433963;0.006836;0.024414;0.994141;
434183;0.012695;0.022461;0.993164;
434398;0.013672;0.020508;1.000977;
434613;0.011719;0.015625;1.007812;
434819;0.010742;0.016602;1.012695;
435051;0.011719;0.013672;1.017578;
435280;0.010742;0.018555;1.026367;
435510;0.009766;0.019531;1.021484;
435743;0.012695;0.019531;1.024414;
435960;0.011719;0.019531;1.042969;
436183;0.012695;0.024414;1.048828;
436393;0.008789;0.025391;1.039062;
436609;0.010742;0.024414;1.041016;
436829;0.010742;0.023438;1.038086;
437053;0.012695;0.026367;1.041992;
437263;0.011719;0.022461;1.042969;
437483;0.008789;0.022461;1.033203;
437703;0.011719;0.015625;1.035156;
437923;0.009766;0.021484;1.042969;
438143;0.011719;0.017578;1.039062;
438363;0.009766;0.024414;1.049805;
438575;0.013672;0.014648;1.055664;
438810;0.012695;0.019531;1.064453;
439039;0.010742;0.020508;1.068359;
439273;0.013672;0.020508;1.082031;
439500;0.014648;0.021484;1.082031;
439739;0.012695;0.018555;1.071289;
439973;0.010742;0.020508;1.057617;
440193;0.009766;0.019531;1.041016;
440413;0.011719;0.022461;1.030273;
440633;0.009766;0.021484;1.033203;
440843;0.005859;0.019531;1.030273;
441049;0.011719;0.019531;1.023438;
441283;0.006836;0.021484;1.011719;
441503;0.011719;0.022461;1.020508;
441710;0.011719;0.021484;1.025391;
441933;0.008789;0.016602;1.017578;
442153;0.003906;0.021484;1.027344;
442369;0.010742;0.018555;1.029297;
442593;0.009766;0.023438;1.018555;
442808;0.011719;0.025391;1.017578;
443039;0.006836;0.022461;0.994141;
443269;0.006836;0.033203;0.972656;
443503;0.002930;0.020508;0.966797;
443713;0.007812;0.019531;0.966797;
443933;0.005859;0.026367;0.964844;
444149;0.003906;0.025391;0.971680;
444383;0.006836;0.023438;0.991211;
444593;0.009766;0.024414;1.014648;
444803;0.007812;0.021484;1.026367;
445013;0.007812;0.021484;1.053711;
445233;0.008789;0.020508;1.046875;
445463;0.011719;0.021484;1.059570;
445683;0.010742;0.022461;1.056641;
445903;0.011719;0.028320;1.067383;
446113;0.008789;0.016602;1.049805;
446329;0.013672;0.024414;1.055664;
446559;0.009766;0.020508;1.050781;
446790;0.005859;0.019531;1.047852;
447029;0.007812;0.019531;1.047852;
447263;0.011719;0.020508;1.053711;
447483;0.010742;0.021484;1.057617;
447699;0.010742;0.018555;1.054688;
447933;0.008789;0.020508;1.053711;
448143;0.011719;0.019531;1.054688;
448349;0.010742;0.020508;1.047852;
448573;0.010742;0.024414;1.054688;
448783;0.010742;0.016602;1.040039;
448989;0.012695;0.021484;1.045898;
449213;0.012695;0.017578;1.039062;
449433;0.010742;0.021484;1.021484;
449649;0.017578;0.024414;1.006836;
449865;0.022461;0.021484;1.010742;
450099;0.033203;0.021484;1.011719;
450340;0.043945;0.025391;1.024414;
450580;0.048828;0.019531;1.032227;
450823;0.057617;0.014648;1.041016;
451043;0.066406;0.022461;1.054688;
451250;0.069336;0.020508;1.043945;
451483;0.079102;0.023438;1.062500;
451693;0.083984;0.018555;1.079102;
451910;0.091797;0.020508;1.059570;
452123;0.087891;0.025391;1.047852;
452343;0.091797;0.020508;1.028320;
452559;0.096680;0.021484;1.002930;
452803;0.093750;0.024414;1.015625;
453023;0.094727;0.017578;1.005859;
453243;0.097656;0.018555;1.039062;
453452;0.093750;0.017578;1.030273;
453679;0.097656;0.023438;1.030273;
453919;0.095703;0.019531;1.056641;
454149;0.096680;0.017578;1.046875;
454373;0.097656;0.020508;1.045898;
454593;0.099609;0.017578;1.022461;
454801;0.093750;0.015625;1.017578;
455033;0.094727;0.019531;0.981445;
455243;0.092773;0.024414;0.994141;
455449;0.089844;0.023438;1.002930;
455673;0.096680;0.026367;0.982422;
455893;0.094727;0.024414;0.998047;
456103;0.091797;0.018555;0.969727;
456323;0.092773;0.021484;0.968750;
456543;0.088867;0.019531;0.976562;
456763;0.087891;0.020508;0.948242;
456993;0.089844;0.020508;0.968750;
457213;0.090820;0.022461;0.967773;
457429;0.090820;0.018555;0.991211;
457649;0.088867;0.015625;1.006836;
457888;0.094727;0.017578;1.036133;
458119;0.090820;0.021484;1.053711;
458353;0.093750;0.023438;1.045898;
458573;0.090820;0.017578;1.028320;
458793;0.087891;0.023438;1.011719;
458999;0.088867;0.019531;1.023438;
459223;0.085938;0.020508;0.991211;
459433;0.086914;0.022461;0.971680;
459640;0.085938;0.017578;0.991211;
459873;0.083984;0.027344;0.946289;
460083;0.086914;0.019531;0.945312;
460300;0.083984;0.022461;0.979492;
460533;0.085938;0.018555;0.966797;
460753;0.088867;0.021484;1.032227;
460969;0.087891;0.019531;1.024414;
461203;0.092773;0.022461;1.017578;
461420;0.086914;0.021484;1.034180;
461649;0.083984;0.019531;1.010742;
461869;0.086914;0.019531;1.021484;
462103;0.085938;0.022461;1.019531;
462313;0.085938;0.024414;1.026367;
462530;0.089844;0.020508;1.043945;
462763;0.083984;0.025391;1.058594;
462973;0.088867;0.023438;1.052734;
463193;0.086914;0.018555;1.071289;
463413;0.083984;0.020508;1.062500;
463633;0.085938;0.015625;1.065430;
463853;0.088867;0.016602;1.113281;
464063;0.085938;0.018555;1.123047;
464283;0.086914;0.014648;1.124023;
464493;0.091797;0.018555;1.151367;
464713;0.083984;0.020508;1.162109;
464933;0.084961;0.019531;1.111328;
465149;0.090820;0.018555;1.098633;
465369;0.081055;0.024414;1.092773;
465600;0.082031;0.022461;1.041016;
465833;0.083008;0.017578;1.024414;
466043;0.081055;0.021484;1.030273;
466253;0.079102;0.016602;1.018555;
466473;0.085938;0.019531;1.018555;
466693;0.081055;0.017578;1.028320;
466913;0.076172;0.018555;1.024414;
467133;0.079102;0.022461;1.008789;
467343;0.079102;0.020508;1.007812;
467563;0.077148;0.020508;1.025391;
467783;0.077148;0.015625;1.030273;
467993;0.081055;0.020508;1.064453;
468203;0.087891;0.020508;1.156250;
468423;0.086914;0.019531;1.243164;
468639;0.090820;0.013672;1.331055;
468869;0.097656;0.020508;1.451172;
469089;0.102539;0.017578;1.552734;
469323;0.107422;0.012695;1.629883;
469543;0.116211;0.011719;1.703125;
469763;0.117188;0.017578;1.764648;
469973;0.120117;0.010742;1.797852;
470193;0.120117;0.002930;1.802734;
470403;0.125000;0.007812;1.822266;
470623;0.124023;0.012695;1.835938;
470843;0.121094;0.015625;1.854492;
471053;0.124023;0.015625;1.841797;
471263;0.125977;0.017578;1.857422;
471483;0.130859;0.013672;1.866211;
471693;0.125000;0.008789;1.861328;
471913;0.128906;0.011719;1.851562;
472133;0.124023;0.007812;1.848633;
472339;0.126953;0.013672;1.846680;
472559;0.128906;0.012695;1.835938;
472799;0.128906;0.021484;1.846680;
473023;0.125000;0.014648;1.847656;
473243;0.125977;0.018555;1.840820;
473453;0.127930;0.015625;1.824219;
473673;0.127930;0.022461;1.848633;
473883;0.126953;0.020508;1.834961;
474093;0.128906;0.008789;1.824219;
474313;0.131836;0.010742;1.825195;
474523;0.129883;0.005859;1.833984;
474743;0.130859;0.009766;1.810547;
474963;0.131836;0.001953;1.813477;
475173;0.131836;0.004883;1.823242;
475393;0.131836;0.007812;1.820312;
475613;0.130859;0.015625;1.813477;
475829;0.128906;0.010742;1.814453;
476059;0.132812;0.015625;1.793945;
476291;0.133789;0.011719;1.804688;
476523;0.135742;0.015625;1.822266;
476733;0.141602;0.017578;1.817383;
476943;0.139648;0.010742;1.835938;
477163;0.143555;0.013672;1.838867;
477373;0.146484;0.014648;1.838867;
477583;0.144531;0.016602;1.853516;
477803;0.147461;0.012695;1.829102;
478023;0.147461;0.020508;1.844727;
478233;0.149414;0.026367;1.856445;
478453;0.149414;0.025391;1.855469;
478673;0.152344;0.030273;1.865234;
478883;0.155273;0.020508;1.855469;
479103;0.158203;0.013672;1.871094;
479313;0.154297;0.010742;1.867188;
479529;0.158203;0.004883;1.855469;
479759;0.158203;-0.008789;1.870117;
479993;0.159180;0.005859;1.878906;
480213;0.163086;0.002930;1.869141;
480433;0.163086;0.008789;1.883789;
480643;0.164062;0.017578;1.875977;
480863;0.166016;0.020508;1.875000;
481073;0.166016;0.026367;1.868164;
481283;0.165039;0.022461;1.848633;
481503;0.166016;0.020508;1.856445;
481718;0.168945;0.009766;1.831055;
481933;0.166016;0.014648;1.836914;
482143;0.173828;0.013672;1.830078;
482363;0.169922;0.009766;1.837891;
482573;0.176758;0.002930;1.828125;
482793;0.173828;0.004883;1.821289;
483002;0.181641;0.002930;1.830078;
483230;0.181641;0.002930;1.836914;
483449;0.185547;0.008789;1.889648;
483683;0.187500;0.006836;1.879883;
483903;0.187500;0.005859;1.899414;
484123;0.191406;0.002930;1.879883;
484333;0.190430;0.011719;1.869141;
484543;0.194336;0.015625;1.886719;
484763;0.198242;0.013672;1.877930;
484973;0.194336;0.010742;1.877930;
485193;0.200195;0.018555;1.861328;
485413;0.199219;0.019531;1.856445;
485623;0.198242;0.020508;1.843750;
485843;0.198242;0.019531;1.826172;
486053;0.199219;0.019531;1.831055;
486263;0.199219;0.017578;1.799805;
486483;0.201172;0.020508;1.795898;
486699;0.202148;0.013672;1.815430;
486929;0.203125;0.011719;1.778320;
487159;0.205078;0.017578;1.749023;
487393;0.201172;0.011719;1.748047;
487603;0.205078;0.008789;1.728516;
487823;0.205078;0.016602;1.698242;
488043;0.206055;0.017578;1.711914;
488253;0.200195;0.012695;1.660156;
488463;0.189453;0.010742;1.652344;
488683;0.180664;0.026367;1.637695;
488893;0.174805;0.018555;1.592773;
489103;0.159180;0.018555;1.533203;
489323;0.140625;0.024414;1.453125;
489543;0.114258;0.010742;1.298828;
489763;0.091797;0.005859;1.155273;
489983;0.061523;0.013672;0.955078;
490199;0.043945;0.014648;0.780273;
490429;0.024414;0.018555;0.553711;
490661;0.008789;0.019531;0.353516;
490903;0.013672;0.026367;0.255859;
491123;0.002930;0.020508;0.125000;
491343;0.010742;0.023438;0.065430;
491563;0.001953;0.028320;0.021484;
491774;0.003906;0.026367;-0.012695;
491983;0.002930;0.027344;-0.032227;
492203;-0.000977;0.028320;-0.041992;
492423;0.000000;0.026367;-0.033203;
492643;-0.000977;0.022461;-0.020508;
492863;-0.000977;0.022461;-0.012695;
493073;-0.001953;0.020508;-0.007812;
493293;-0.001953;0.023438;0.000000;
493513;-0.001953;0.022461;0.019531;
493723;-0.006836;0.022461;0.013672;
493939;-0.007812;0.025391;0.017578;
494169;-0.005859;0.023438;0.029297;
494389;-0.006836;0.027344;0.036133;
494629;-0.003906;0.026367;0.048828;
494853;-0.004883;0.030273;0.036133;
495063;-0.007812;0.029297;0.034180;
495283;-0.007812;0.028320;0.034180;
495493;-0.007812;0.028320;0.034180;
495713;-0.009766;0.030273;0.034180;
495923;-0.013672;0.031250;0.029297;
496143;-0.007812;0.027344;0.023438;
496353;-0.014648;0.028320;0.025391;
496563;-0.012695;0.029297;0.024414;
496783;-0.011719;0.028320;0.023438;
497003;-0.012695;0.027344;0.020508;
497223;-0.013672;0.027344;0.013672;
497444;-0.010742;0.027344;0.020508;
497649;-0.013672;0.028320;0.025391;
497879;-0.005859;0.027344;0.024414;
498089;-0.013672;0.028320;0.010742;
498314;-0.013672;0.027344;0.033203;
498533;-0.012695;0.027344;0.030273;
498743;-0.016602;0.026367;0.031250;
498963;-0.010742;0.029297;0.032227;
499183;-0.016602;0.023438;0.033203;
499403;-0.012695;0.032227;0.022461;
499623;-0.015625;0.031250;0.032227;
499840;-0.015625;0.029297;0.020508;
500063;-0.013672;0.029297;0.027344;
500283;-0.014648;0.028320;0.024414;
500503;-0.013672;0.030273;0.017578;
500723;-0.012695;0.028320;0.008789;
500933;-0.013672;0.026367;0.010742;
501153;-0.012695;0.025391;0.018555;
501369;-0.013672;0.023438;0.014648;
501599;-0.014648;0.029297;0.013672;
501808;-0.014648;0.023438;0.011719;
502023;-0.014648;0.028320;0.013672;
502243;-0.011719;0.026367;0.017578;
502463;-0.014648;0.026367;0.016602;
502683;-0.014648;0.023438;0.016602;
502903;-0.011719;0.025391;0.021484;
503123;-0.015625;0.023438;0.026367;
503343;-0.015625;0.029297;0.024414;
503553;-0.017578;0.031250;0.021484;
503763;-0.014648;0.026367;0.025391;
503983;-0.012695;0.024414;0.020508;
504193;-0.014648;0.026367;0.012695;
504413;-0.014648;0.025391;0.017578;
504623;-0.020508;0.026367;0.014648;
504833;-0.015625;0.027344;0.021484;
505050;-0.016602;0.024414;0.017578;
505279;-0.017578;0.029297;0.019531;
505508;-0.018555;0.028320;0.020508;
505719;-0.019531;0.027344;0.007812;
505953;-0.016602;0.027344;0.014648;
506173;-0.016602;0.025391;0.014648;
506380;-0.019531;0.028320;0.002930;
506613;-0.017578;0.024414;0.004883;
506833;-0.019531;0.028320;0.000977;
507053;-0.016602;0.024414;0.004883;
507273;-0.019531;0.027344;-0.003906;
507493;-0.017578;0.026367;0.009766;
507713;-0.018555;0.025391;0.005859;
507933;-0.020508;0.029297;0.005859;
508153;-0.019531;0.025391;0.013672;
508373;-0.020508;0.031250;0.017578;
508593;-0.022461;0.030273;0.020508;
508803;-0.021484;0.028320;0.019531;
509009;-0.021484;0.026367;0.019531;
509231;-0.022461;0.024414;0.020508;
509440;-0.023438;0.026367;0.020508;
509669;-0.023438;0.026367;0.020508;
509913;-0.023438;0.026367;0.013672;
510123;-0.024414;0.027344;0.010742;
510343;-0.024414;0.030273;0.015625;
510563;-0.024414;0.030273;0.009766;
510773;-0.026367;0.027344;0.006836;
510983;-0.025391;0.034180;-0.007812;
511203;-0.025391;0.027344;0.003906;
511419;-0.026367;0.028320;0.001953;
511653;-0.029297;0.025391;-0.007812;
511873;-0.027344;0.030273;-0.003906;
512093;-0.033203;0.029297;-0.016602;
512313;-0.029297;0.031250;-0.009766;
512530;-0.028320;0.028320;0.001953;
512743;-0.029297;0.034180;0.014648;
512959;-0.030273;0.029297;0.023438;
513179;-0.033203;0.031250;0.016602;
513389;-0.032227;0.037109;0.018555;
513599;-0.034180;0.025391;0.025391;
513833;-0.041992;0.026367;0.039062;
514043;-0.032227;0.032227;0.022461;
514263;-0.035156;0.032227;0.011719;
514483;-0.037109;0.025391;0.002930;
514703;-0.038086;0.029297;-0.003906;
514923;-0.041016;0.028320;0.000977;
515133;-0.045898;0.030273;0.037109;
515353;-0.050781;0.027344;0.132812;
515573;-0.046875;0.026367;0.320312;
515793;-0.035156;0.023438;0.496094;
516003;-0.018555;0.027344;0.662109;
516223;-0.008789;0.023438;0.885742;
516433;0.006836;0.019531;1.035156;
516653;0.020508;0.027344;1.183594;
516879;0.027344;0.023438;1.279297;
517089;0.041016;0.024414;1.377930;
517319;0.049805;0.027344;1.443359;
517554;0.055664;0.033203;1.491211;
517763;0.054688;0.036133;1.558594;
517983;0.053711;0.031250;1.569336;
518203;0.054688;0.034180;1.595703;
518413;0.053711;0.037109;1.599609;
518633;0.048828;0.033203;1.627930;
518853;0.053711;0.030273;1.639648;
519063;0.053711;0.019531;1.654297;
519273;0.048828;0.012695;1.642578;
519493;0.051758;0.025391;1.680664;
519713;0.043945;0.020508;1.695312;
519933;0.042969;0.019531;1.698242;
520143;0.041992;0.026367;1.729492;
520359;0.041992;0.022461;1.753906;
520589;0.044922;0.015625;1.813477;
520810;0.043945;0.016602;1.829102;
521039;0.041992;0.012695;1.833008;
521253;0.046875;0.023438;1.869141;
521473;0.041016;0.017578;1.868164;
521683;0.042969;0.015625;1.864258;
521893;0.036133;0.014648;1.857422;
522113;0.036133;0.014648;1.853516;
522323;0.035156;0.019531;1.848633;
522533;0.034180;0.019531;1.845703;
522753;0.031250;0.024414;1.843750;
522963;0.025391;0.031250;1.829102;
523183;0.023438;0.033203;1.825195;
523393;0.019531;0.034180;1.812500;
523613;0.017578;0.031250;1.818359;
523833;0.019531;0.033203;1.826172;
524043;0.017578;0.031250;1.839844;
524249;0.021484;0.027344;1.863281;
524479;0.021484;0.016602;1.880859;
524713;0.020508;0.018555;1.895508;
524933;0.019531;0.015625;1.900391;
525143;0.018555;0.023438;1.928711;
525363;0.020508;0.025391;1.916016;
525573;0.013672;0.027344;1.917969;
525783;0.014648;0.025391;1.914062;
526003;0.012695;0.018555;1.906250;
526223;0.011719;0.014648;1.893555;
526443;0.007812;0.009766;1.876953;
526663;0.004883;0.005859;1.875000;
526883;0.005859;0.015625;1.878906;
527093;0.001953;0.017578;1.868164;
527303;0.000000;0.023438;1.859375;
527523;0.000000;0.023438;1.877930;
527729;-0.001953;0.028320;1.878906;
527948;-0.003906;0.022461;1.880859;
528179;-0.002930;0.022461;1.899414;
528413;-0.002930;0.017578;1.904297;
528633;-0.001953;0.015625;1.911133;
528843;0.000000;0.015625;1.912109;
529063;-0.000977;0.011719;1.902344;
529283;-0.000977;0.005859;1.897461;
529503;-0.004883;0.004883;1.891602;
529723;-0.007812;0.012695;1.872070;
529943;-0.009766;0.011719;1.855469;
530153;-0.011719;0.011719;1.836914;
530373;-0.016602;0.013672;1.823242;
530593;-0.017578;0.007812;1.806641;
530813;-0.018555;0.005859;1.787109;
531033;-0.021484;0.011719;1.789062;
531243;-0.021484;0.010742;1.791016;
531459;-0.024414;0.015625;1.781250;
531689;-0.024414;0.007812;1.763672;
531909;-0.024414;0.008789;1.763672;
532133;-0.027344;0.010742;1.744141;
532343;-0.031250;0.014648;1.717773;
532553;-0.036133;0.013672;1.669922;
532773;-0.038086;0.022461;1.625977;
532983;-0.044922;0.019531;1.571289;
533203;-0.048828;0.024414;1.519531;
533413;-0.052734;0.019531;1.467773;
533623;-0.058594;0.025391;1.413086;
533843;-0.063477;0.028320;1.363281;
534053;-0.066406;0.029297;1.317383;
534273;-0.068359;0.026367;1.289062;
534493;-0.072266;0.027344;1.260742;
534703;-0.073242;0.022461;1.257812;
534923;-0.071289;0.024414;1.252930;
535139;-0.070312;0.025391;1.247070;
535381;-0.073242;0.024414;1.236328;
535599;-0.075195;0.022461;1.225586;
535823;-0.074219;0.026367;1.227539;
536043;-0.076172;0.016602;1.219727;
536263;-0.074219;0.016602;1.232422;
536473;-0.073242;0.016602;1.227539;
536683;-0.076172;0.019531;1.191406;
536893;-0.077148;0.023438;1.159180;
537113;-0.083984;0.024414;1.109375;
537333;-0.084961;0.028320;1.069336;
537543;-0.089844;0.024414;1.020508;
537753;-0.091797;0.027344;0.994141;
537973;-0.088867;0.023438;0.975586;
538193;-0.090820;0.020508;0.969727;
538413;-0.088867;0.019531;0.988281;
538635;-0.083984;0.020508;1.021484;
538869;-0.084961;0.015625;1.053711;
539099;-0.083984;0.013672;1.086914;
539333;-0.083984;0.015625;1.117188;
539543;-0.083008;0.020508;1.142578;
539763;-0.078125;0.020508;1.188477;
539973;-0.076172;0.022461;1.226562;
540193;-0.072266;0.021484;1.283203;
540403;-0.070312;0.022461;1.339844;
540614;-0.066406;0.026367;1.387695;
540833;-0.061523;0.021484;1.442383;
541053;-0.059570;0.019531;1.488281;
541263;-0.056641;0.023438;1.508789;
541483;-0.056641;0.018555;1.497070;
541693;-0.057617;0.020508;1.453125;
541913;-0.063477;0.015625;1.423828;
542133;-0.065430;0.020508;1.397461;
542349;-0.063477;0.017578;1.382812;
542579;-0.064453;0.022461;1.406250;
542813;-0.063477;0.017578;1.428711;
543033;-0.063477;0.019531;1.446289;
543253;-0.057617;0.021484;1.461914;
543463;-0.056641;0.017578;1.476562;
543683;-0.057617;0.020508;1.487305;
543893;-0.059570;0.020508;1.474609;
544103;-0.062500;0.016602;1.428711;
544323;-0.067383;0.016602;1.338867;
544543;-0.068359;0.021484;1.286133;
544763;-0.075195;0.018555;1.189453;
544983;-0.077148;0.022461;1.116211;
545193;-0.082031;0.018555;1.064453;
545404;-0.082031;0.022461;1.027344;
545623;-0.085938;0.020508;1.000000;
545839;-0.085938;0.028320;1.015625;
546070;-0.082031;0.026367;0.998047;
546299;-0.083008;0.024414;1.002930;
546533;-0.083984;0.021484;1.003906;
546753;-0.083008;0.027344;1.005859;
546973;-0.080078;0.024414;1.006836;
547183;-0.079102;0.020508;1.007812;
547393;-0.075195;0.022461;1.040039;
547613;-0.068359;0.023438;1.073242;
547824;-0.063477;0.022461;1.107422;
548039;-0.061523;0.019531;1.109375;
548273;-0.053711;0.019531;1.129883;
548493;-0.047852;0.019531;1.132812;
548699;-0.045898;0.022461;1.126953;
548933;-0.031250;0.023438;1.129883;
549153;-0.026367;0.029297;1.122070;
549370;-0.015625;0.024414;1.125977;
549599;-0.006836;0.027344;1.115234;
549829;-0.000977;0.028320;1.111328;
550069;-0.000977;0.034180;1.099609;
550303;0.001953;0.029297;1.068359;
550513;-0.000977;0.028320;1.031250;
550733;-0.003906;0.029297;0.987305;
550953;-0.006836;0.025391;0.940430;
551173;-0.008789;0.029297;0.925781;
551383;-0.008789;0.024414;0.908203;
551593;-0.010742;0.023438;0.909180;
551813;-0.007812;0.022461;0.912109;
552033;-0.010742;0.018555;0.948242;
552253;-0.006836;0.021484;0.969727;
552473;-0.007812;0.021484;1.002930;
552683;-0.003906;0.025391;1.019531;
552903;-0.000977;0.024414;1.020508;
553121;-0.004883;0.024414;1.026367;
553329;-0.007812;0.023438;1.034180;
553558;-0.006836;0.026367;1.032227;
553789;-0.004883;0.026367;1.032227;
554013;-0.001953;0.028320;1.047852;
554233;0.000977;0.023438;1.080078;
554453;0.000000;0.026367;1.101562;
554673;0.000000;0.021484;1.116211;
554883;0.002930;0.026367;1.132812;
555093;0.000977;0.023438;1.133789;
555313;0.001953;0.024414;1.127930;
555523;-0.001953;0.022461;1.125977;
555743;-0.001953;0.023438;1.117188;
555963;-0.001953;0.024414;1.111328;
556173;-0.001953;0.020508;1.103516;
556393;0.000977;0.028320;1.098633;
556613;-0.002930;0.023438;1.082031;
556828;-0.001953;0.027344;1.075195;
557059;-0.000977;0.022461;1.066406;
557291;-0.000977;0.024414;1.050781;
557533;-0.005859;0.022461;1.022461;
557753;-0.006836;0.030273;0.999023;
557973;-0.005859;0.021484;0.959961;
558183;-0.008789;0.020508;0.928711;
558403;-0.009766;0.028320;0.913086;
558613;-0.011719;0.027344;0.894531;
558833;-0.012695;0.022461;0.890625;
559053;-0.007812;0.026367;0.914062;
559273;-0.008789;0.031250;0.964844;
559493;-0.009766;0.027344;0.991211;
559703;-0.004883;0.028320;1.024414;
559923;-0.002930;0.024414;1.047852;
560143;-0.005859;0.023438;1.068359;
560355;-0.007812;0.019531;1.062500;
560579;-0.004883;0.019531;1.049805;
560809;-0.007812;0.024414;1.034180;
561033;-0.004883;0.018555;1.018555;
561253;-0.002930;0.018555;1.021484;
561463;-0.005859;0.017578;1.030273;
561683;-0.004883;0.025391;1.048828;
561893;-0.006836;0.023438;1.053711;
562103;-0.004883;0.030273;1.057617;
562323;-0.005859;0.029297;1.081055;
562543;-0.004883;0.028320;1.095703;
562763;-0.002930;0.023438;1.094727;
562973;0.001953;0.023438;1.102539;
563193;-0.002930;0.020508;1.106445;
563413;-0.002930;0.022461;1.105469;
563623;-0.001953;0.023438;1.097656;
563843;-0.003906;0.021484;1.082031;
564049;-0.005859;0.019531;1.082031;
564279;-0.001953;0.019531;1.098633;
564519;-0.004883;0.022461;1.077148;
564759;-0.003906;0.026367;1.051758;
564973;-0.004883;0.026367;1.044922;
565180;-0.000977;0.023438;1.041992;
565403;-0.004883;0.024414;1.028320;
565623;-0.007812;0.027344;1.012695;
565834;-0.006836;0.026367;1.014648;
566039;-0.006836;0.024414;1.008789;
566263;-0.007812;0.023438;1.014648;
566483;-0.008789;0.020508;1.016602;
566689;-0.004883;0.022461;1.023438;
566923;-0.005859;0.021484;1.007812;
567143;-0.008789;0.023438;1.002930;
567359;-0.007812;0.021484;1.004883;
567583;-0.004883;0.023438;1.000977;
567793;-0.008789;0.021484;1.000000;
568009;-0.007812;0.021484;0.992188;
568239;-0.008789;0.022461;0.992188;
568459;-0.004883;0.021484;1.000000;
568709;-0.007812;0.024414;1.010742;
568920;-0.009766;0.025391;1.000000;
569139;-0.011719;0.024414;1.003906;
569373;-0.004883;0.024414;0.999023;
569583;-0.006836;0.025391;0.993164;
569800;-0.006836;0.019531;1.001953;
570033;-0.004883;0.018555;1.002930;
570253;-0.007812;0.023438;0.997070;
570480;-0.005859;0.024414;0.995117;
570713;-0.005859;0.022461;1.006836;
570923;-0.004883;0.020508;1.005859;
571129;-0.009766;0.024414;0.995117;
571343;-0.010742;0.024414;1.001953;
571563;-0.007812;0.025391;0.994141;
571769;-0.008789;0.027344;0.999023;
572003;-0.006836;0.022461;1.003906;
572220;-0.006836;0.026367;1.008789;
572449;-0.010742;0.028320;0.996094;
572679;-0.009766;0.023438;1.006836;
572909;-0.003906;0.020508;1.042969;
573143;-0.005859;0.025391;1.054688;
573363;-0.005859;0.026367;1.064453;
573580;-0.002930;0.023438;1.064453;
573793;-0.003906;0.024414;1.075195;
574013;-0.001953;0.018555;1.079102;
574229;0.000977;0.021484;1.091797;
574443;0.000977;0.026367;1.101562;
574663;-0.005859;0.021484;1.094727;
574869;-0.002930;0.024414;1.096680;
575093;-0.002930;0.024414;1.109375;
575303;0.000000;0.023438;1.116211;
575509;-0.000977;0.025391;1.117188;
575723;-0.003906;0.026367;1.104492;
575933;-0.002930;0.026367;1.104492;
576141;-0.005859;0.026367;1.094727;
576371;-0.002930;0.021484;1.096680;
576609;-0.000977;0.021484;1.096680;
576839;-0.003906;0.024414;1.092773;
577070;-0.006836;0.026367;1.081055;
577283;-0.003906;0.021484;1.072266;
577493;-0.000977;0.018555;1.072266;
577713;-0.003906;0.028320;1.068359;
577929;-0.006836;0.021484;1.058594;
578133;-0.004883;0.026367;1.072266;
578353;-0.006836;0.019531;1.063477;
578570;-0.005859;0.021484;1.055664;
578783;-0.003906;0.018555;1.074219;
578993;0.000000;0.022461;1.076172;
579199;-0.002930;0.028320;1.071289;
579433;-0.008789;0.024414;1.062500;
579653;-0.008789;0.024414;1.056641;
579859;-0.002930;0.020508;1.066406;
580089;-0.001953;0.019531;1.060547;
580318;-0.005859;0.024414;1.061523;
580549;-0.005859;0.017578;1.046875;
580783;-0.006836;0.023438;1.030273;
581003;-0.005859;0.017578;1.015625;
581225;-0.005859;0.021484;1.002930;
581463;-0.011719;0.019531;0.969727;
581673;-0.013672;0.020508;0.941406;
581879;-0.012695;0.021484;0.919922;
582102;-0.015625;0.022461;0.887695;
582313;-0.014648;0.020508;0.867188;
582533;-0.016602;0.021484;0.858398;
582749;-0.016602;0.024414;0.855469;
582983;-0.015625;0.020508;0.860352;
583203;-0.015625;0.023438;0.868164;
583418;-0.016602;0.016602;0.909180;
583633;-0.014648;0.019531;0.952148;
583849;-0.007812;0.014648;1.000977;
584079;-0.009766;0.020508;1.019531;
584309;-0.006836;0.016602;1.057617;
584539;-0.004883;0.018555;1.072266;
584763;-0.008789;0.017578;1.101562;
584983;-0.006836;0.022461;1.081055;
585189;-0.003906;0.022461;1.089844;
585403;-0.005859;0.020508;1.084961;
585613;-0.004883;0.024414;1.083984;
585833;-0.003906;0.024414;1.071289;
586039;-0.005859;0.020508;1.076172;
586273;-0.006836;0.023438;1.066406;
586493;-0.004883;0.024414;1.083008;
586699;-0.006836;0.017578;1.077148;
586923;-0.000977;0.021484;1.086914;
587143;-0.002930;0.019531;1.095703;
587365;-0.006836;0.020508;1.083984;
587589;-0.003906;0.012695;1.097656;
587819;-0.004883;0.017578;1.079102;
588061;-0.001953;0.016602;1.087891;
588293;-0.003906;0.022461;1.057617;
588513;-0.004883;0.018555;1.048828;
588729;-0.009766;0.018555;1.014648;
588953;-0.005859;0.019531;1.011719;
589173;-0.009766;0.021484;0.997070;
589389;-0.009766;0.022461;0.988281;
589600;-0.006836;0.019531;0.985352;
589823;-0.012695;0.022461;0.970703;
590043;-0.006836;0.021484;0.986328;
590263;-0.009766;0.025391;0.992188;
590483;-0.010742;0.018555;1.004883;
590703;-0.005859;0.021484;1.044922;
590923;-0.006836;0.017578;1.044922;
591140;-0.010742;0.021484;1.051758;
591369;-0.009766;0.018555;1.047852;
591608;-0.005859;0.017578;1.045898;
591843;-0.010742;0.017578;1.015625;
592063;-0.003906;0.017578;1.016602;
592279;-0.010742;0.020508;0.996094;
592493;-0.011719;0.019531;0.979492;
592713;-0.006836;0.021484;0.996094;
592931;-0.009766;0.020508;0.989258;
593143;-0.009766;0.019531;0.994141;
593363;-0.009766;0.022461;0.996094;
593583;-0.009766;0.019531;0.988281;
593803;-0.005859;0.017578;0.996094;
594023;-0.009766;0.018555;0.992188;
594243;-0.006836;0.019531;1.003906;
594463;-0.008789;0.022461;1.001953;
594679;-0.008789;0.020508;0.998047;
594909;-0.010742;0.022461;1.010742;
595139;-0.007812;0.022461;1.038086;
595373;-0.009766;0.025391;1.049805;
595589;-0.008789;0.020508;1.052734;
595823;-0.005859;0.022461;1.066406;
596034;-0.005859;0.020508;1.051758;
596239;-0.004883;0.015625;1.065430;
596483;-0.009766;0.019531;1.044922;
596703;-0.005859;0.015625;1.041016;
596921;-0.007812;0.018555;1.029297;
597153;-0.005859;0.020508;1.033203;
597363;-0.007812;0.017578;1.026367;
597569;-0.007812;0.017578;1.021484;
597793;-0.006836;0.021484;1.022461;
598013;-0.009766;0.018555;1.011719;
598235;-0.009766;0.020508;0.995117;
598469;-0.010742;0.022461;0.989258;
598700;-0.010742;0.021484;0.984375;
598930;-0.009766;0.022461;0.994141;
599141;-0.010742;0.019531;0.983398;
599374;-0.009766;0.023438;0.991211;
