Time;acc_x;acc_y;acc_z;

987566;0.041016;0.014648;1.157227;
987786;0.041992;0.013672;1.154297;
987936;0.039062;0.015625;1.160156;
988076;0.040039;0.012695;1.143555;
988216;0.041016;0.013672;1.156250;
988356;0.041992;0.012695;1.144531;
988496;0.036133;0.012695;1.131836;
988636;0.040039;0.015625;1.125977;
988776;0.037109;0.016602;1.139648;
988916;0.040039;0.013672;1.129883;
989056;0.036133;0.014648;1.112305;
989196;0.034180;0.016602;1.099609;
989336;0.036133;0.013672;1.109375;
989476;0.037109;0.011719;1.110352;
989616;0.035156;0.012695;1.101562;
989756;0.036133;0.011719;1.101562;
989896;0.036133;0.013672;1.106445;
990036;0.035156;0.016602;1.106445;
990172;0.038086;0.017578;1.110352;
990321;0.037109;0.009766;1.103516;
990471;0.031250;0.012695;1.098633;
990632;0.036133;0.017578;1.107422;
990761;0.038086;0.012695;1.105469;
990906;0.038086;0.011719;1.117188;
991046;0.035156;0.013672;1.106445;
991186;0.034180;0.012695;1.101562;
991322;0.036133;0.020508;1.123047;
991466;0.037109;0.014648;1.119141;
991606;0.036133;0.009766;1.109375;
991746;0.036133;0.016602;1.106445;
991886;0.036133;0.013672;1.118164;
992026;0.036133;0.016602;1.113281;
992166;0.040039;0.014648;1.123047;
992316;0.037109;0.015625;1.120117;
992456;0.037109;0.016602;1.119141;
992596;0.037109;0.013672;1.117188;
992736;0.038086;0.016602;1.131836;
992871;0.039062;0.014648;1.117188;
993021;0.037109;0.017578;1.115234;
993152;0.037109;0.015625;1.116211;
993301;0.040039;0.016602;1.120117;
993452;0.038086;0.011719;1.125000;
993596;0.038086;0.010742;1.121094;
993736;0.037109;0.015625;1.107422;
993876;0.033203;0.013672;1.108398;
994016;0.039062;0.015625;1.117188;
994156;0.037109;0.012695;1.112305;
994296;0.035156;0.016602;1.101562;
994436;0.033203;0.013672;1.097656;
994576;0.034180;0.012695;1.100586;
994716;0.034180;0.015625;1.088867;
994866;0.034180;0.011719;1.095703;
995006;0.034180;0.012695;1.082031;
995146;0.033203;0.015625;1.082031;
995286;0.035156;0.019531;1.087891;
995426;0.037109;0.017578;1.095703;
995562;0.035156;0.013672;1.078125;
995703;0.034180;0.018555;1.086914;
995841;0.035156;0.014648;1.089844;
996002;0.033203;0.015625;1.091797;
996151;0.036133;0.013672;1.099609;
996306;0.038086;0.012695;1.087891;
996446;0.033203;0.019531;1.097656;
996586;0.033203;0.015625;1.097656;
996726;0.039062;0.012695;1.116211;
996866;0.039062;0.015625;1.124023;
997006;0.039062;0.015625;1.123047;
997146;0.038086;0.018555;1.132812;
997286;0.041016;0.018555;1.157227;
997426;0.041992;0.017578;1.162109;
997566;0.039062;0.015625;1.155273;
997706;0.039062;0.018555;1.160156;
997846;0.040039;0.015625;1.154297;
997986;0.039062;0.017578;1.156250;
998126;0.040039;0.014648;1.137695;
998266;0.040039;0.014648;1.122070;
998411;0.036133;0.018555;1.112305;
998561;0.036133;0.017578;1.115234;
998712;0.037109;0.018555;1.097656;
998871;0.034180;0.016602;1.078125;
999026;0.034180;0.012695;1.062500;
999166;0.032227;0.018555;1.037109;
999306;0.028320;0.016602;1.034180;
999446;0.028320;0.017578;1.021484;
999586;0.030273;0.014648;1.015625;
999726;0.030273;0.018555;1.007812;
999866;0.024414;0.014648;0.987305;
1000006;0.026367;0.017578;1.000977;
1000146;0.032227;0.019531;1.026367;
1000286;0.031250;0.012695;1.016602;
1000436;0.030273;0.015625;1.025391;
1000576;0.030273;0.020508;1.036133;
1000716;0.030273;0.016602;1.054688;
1000866;0.034180;0.017578;1.055664;
1001002;0.033203;0.015625;1.058594;
1001142;0.030273;0.017578;1.065430;
1001292;0.034180;0.015625;1.078125;
1001446;0.037109;0.016602;1.089844;
1001581;0.038086;0.016602;1.101562;
1001726;0.036133;0.016602;1.100586;
1001866;0.037109;0.017578;1.103516;
1002016;0.036133;0.018555;1.109375;
1002156;0.038086;0.017578;1.118164;
1002296;0.040039;0.015625;1.105469;
1002436;0.036133;0.016602;1.092773;
1002576;0.035156;0.018555;1.105469;
1002716;0.035156;0.013672;1.101562;
1002866;0.038086;0.014648;1.108398;
1003006;0.035156;0.018555;1.097656;
1003146;0.035156;0.013672;1.090820;
1003296;0.034180;0.017578;1.101562;
1003436;0.036133;0.015625;1.099609;
1003576;0.039062;0.016602;1.105469;
1003721;0.034180;0.018555;1.091797;
1003872;0.033203;0.013672;1.094727;
1004021;0.034180;0.016602;1.100586;
1004176;0.037109;0.016602;1.111328;
1004331;0.037109;0.015625;1.114258;
1004496;0.039062;0.016602;1.112305;
1004646;0.037109;0.018555;1.109375;
1004786;0.031250;0.016602;1.100586;
1004926;0.038086;0.015625;1.119141;
1005066;0.039062;0.012695;1.124023;
1005206;0.040039;0.010742;1.120117;
1005356;0.038086;0.013672;1.115234;
1005496;0.037109;0.015625;1.114258;
1005636;0.038086;0.017578;1.127930;
1005776;0.040039;0.010742;1.116211;
1005916;0.039062;0.015625;1.118164;
1006056;0.036133;0.015625;1.116211;
1006206;0.036133;0.015625;1.113281;
1006346;0.039062;0.011719;1.123047;
1006482;0.040039;0.012695;1.117188;
1006626;0.036133;0.014648;1.097656;
1006752;0.035156;0.014648;1.108398;
1006891;0.035156;0.018555;1.107422;
1007032;0.038086;0.014648;1.107422;
1007182;0.036133;0.016602;1.093750;
1007331;0.032227;0.018555;1.083984;
1007482;0.036133;0.017578;1.086914;
1007626;0.040039;0.014648;1.091797;
1007766;0.036133;0.011719;1.083984;
1007906;0.033203;0.012695;1.075195;
1008046;0.032227;0.013672;1.082031;
1008186;0.034180;0.017578;1.091797;
1008326;0.037109;0.014648;1.089844;
1008466;0.035156;0.014648;1.083984;
1008606;0.032227;0.015625;1.080078;
1008746;0.036133;0.015625;1.083008;
1008886;0.038086;0.016602;1.092773;
1009026;0.038086;0.011719;1.085938;
1009166;0.037109;0.014648;1.078125;
1009306;0.033203;0.016602;1.072266;
1009446;0.039062;0.017578;1.081055;
1009582;0.036133;0.013672;1.070312;
1009733;0.031250;0.015625;1.062500;
1009882;0.032227;0.016602;1.063477;
1010032;0.035156;0.017578;1.063477;
1010196;0.038086;0.017578;1.064453;
1010346;0.033203;0.012695;1.054688;
1010486;0.035156;0.016602;1.042969;
1010626;0.031250;0.015625;1.041992;
1010776;0.029297;0.015625;1.041016;
1010916;0.032227;0.017578;1.043945;
1011056;0.032227;0.016602;1.047852;
1011206;0.029297;0.017578;1.042969;
1011346;0.029297;0.015625;1.037109;
1011486;0.031250;0.016602;1.044922;
1011626;0.032227;0.013672;1.049805;
1011766;0.036133;0.015625;1.049805;
1011916;0.031250;0.015625;1.041016;
1012056;0.031250;0.015625;1.046875;
1012192;0.034180;0.015625;1.038086;
1012331;0.033203;0.017578;1.053711;
1012482;0.033203;0.015625;1.048828;
1012621;0.031250;0.014648;1.038086;
1012776;0.029297;0.017578;1.041016;
1012916;0.031250;0.015625;1.043945;
1013056;0.032227;0.009766;1.032227;
1013196;0.027344;0.015625;1.024414;
1013336;0.028320;0.013672;1.020508;
1013476;0.029297;0.016602;1.024414;
1013616;0.034180;0.018555;1.033203;
1013756;0.030273;0.012695;1.027344;
1013906;0.027344;0.016602;1.019531;
1014046;0.027344;0.019531;1.020508;
1014186;0.030273;0.013672;1.023438;
1014326;0.033203;0.014648;1.029297;
1014466;0.028320;0.019531;1.025391;
1014606;0.029297;0.015625;1.030273;
1014741;0.031250;0.015625;1.039062;
1014882;0.034180;0.011719;1.054688;
1015032;0.037109;0.015625;1.052734;
1015182;0.030273;0.013672;1.037109;
1015312;0.029297;0.019531;1.057617;
1015451;0.033203;0.014648;1.073242;
1015596;0.034180;0.009766;1.066406;
1015736;0.030273;0.016602;1.065430;
1015876;0.032227;0.018555;1.085938;
1016016;0.035156;0.014648;1.107422;
1016156;0.037109;0.016602;1.116211;
1016296;0.041016;0.018555;1.113281;
1016436;0.034180;0.014648;1.108398;
1016576;0.034180;0.016602;1.130859;
1016716;0.041992;0.014648;1.143555;
1016856;0.042969;0.014648;1.153320;
1016996;0.037109;0.014648;1.139648;
1017136;0.038086;0.016602;1.146484;
1017276;0.041016;0.013672;1.161133;
1017416;0.040039;0.014648;1.154297;
1017552;0.040039;0.014648;1.138672;
1017702;0.038086;0.014648;1.143555;
1017866;0.039062;0.014648;1.147461;
1018001;0.043945;0.014648;1.154297;
1018146;0.043945;0.009766;1.147461;
1018292;0.042969;0.014648;1.146484;
1018441;0.038086;0.014648;1.135742;
1018594;0.039062;0.010742;1.131836;
1018746;0.037109;0.014648;1.140625;
1018886;0.039062;0.017578;1.133789;
1019036;0.039062;0.012695;1.135742;
1019176;0.038086;0.016602;1.127930;
1019316;0.039062;0.016602;1.128906;
1019456;0.039062;0.017578;1.141602;
1019596;0.040039;0.014648;1.132812;
1019736;0.038086;0.012695;1.125977;
1019876;0.033203;0.014648;1.115234;
1020026;0.038086;0.015625;1.132812;
1020166;0.036133;0.015625;1.136719;
1020306;0.037109;0.015625;1.122070;
1020446;0.036133;0.015625;1.116211;
1020586;0.036133;0.015625;1.123047;
1020721;0.039062;0.016602;1.128906;
1020861;0.039062;0.012695;1.128906;
1021012;0.036133;0.011719;1.117188;
1021161;0.039062;0.014648;1.114258;
1021316;0.035156;0.013672;1.113281;
1021456;0.039062;0.018555;1.130859;
1021596;0.039062;0.012695;1.124023;
1021746;0.036133;0.007812;1.119141;
1021886;0.036133;0.019531;1.117188;
1022026;0.035156;0.017578;1.122070;
1022176;0.040039;0.014648;1.138672;
1022316;0.041992;0.015625;1.132812;
1022456;0.037109;0.012695;1.112305;
1022596;0.034180;0.014648;1.117188;
1022736;0.040039;0.013672;1.134766;
1022876;0.039062;0.015625;1.120117;
1023016;0.036133;0.014648;1.116211;
1023156;0.034180;0.015625;1.112305;
1023295;0.037109;0.017578;1.128906;
1023441;0.036133;0.012695;1.121094;
1023593;0.037109;0.012695;1.112305;
1023741;0.038086;0.014648;1.101562;
1023891;0.033203;0.015625;1.100586;
1024046;0.031250;0.012695;1.091797;
1024196;0.035156;0.014648;1.090820;
1024336;0.036133;0.008789;1.085938;
1024476;0.034180;0.017578;1.082031;
1024616;0.032227;0.018555;1.069336;
1024756;0.032227;0.016602;1.077148;
1024896;0.036133;0.017578;1.081055;
1025036;0.033203;0.013672;1.061523;
1025176;0.033203;0.019531;1.064453;
1025316;0.028320;0.016602;1.072266;
1025456;0.032227;0.016602;1.069336;
1025596;0.035156;0.015625;1.065430;
1025736;0.032227;0.015625;1.057617;
1025876;0.029297;0.018555;1.060547;
1026011;0.032227;0.017578;1.070312;
1026142;0.032227;0.014648;1.075195;
1026291;0.034180;0.012695;1.075195;
1026442;0.032227;0.010742;1.077148;
1026592;0.030273;0.015625;1.072266;
1026736;0.034180;0.020508;1.096680;
1026876;0.033203;0.015625;1.094727;
1027016;0.035156;0.015625;1.091797;
1027156;0.034180;0.017578;1.084961;
1027306;0.034180;0.014648;1.089844;
1027446;0.033203;0.015625;1.104492;
1027586;0.039062;0.012695;1.098633;
1027726;0.036133;0.015625;1.091797;
1027866;0.036133;0.014648;1.093750;
1028006;0.036133;0.018555;1.099609;
1028146;0.036133;0.016602;1.107422;
1028296;0.036133;0.012695;1.097656;
1028436;0.035156;0.012695;1.094727;
1028576;0.036133;0.016602;1.101562;
1028712;0.032227;0.016602;1.099609;
1028862;0.035156;0.017578;1.098633;
1029012;0.038086;0.015625;1.101562;
1029161;0.033203;0.014648;1.087891;
1029316;0.034180;0.014648;1.092773;
1029466;0.034180;0.015625;1.093750;
1029606;0.038086;0.015625;1.115234;
1029746;0.037109;0.011719;1.112305;
1029896;0.037109;0.016602;1.108398;
1030036;0.035156;0.017578;1.098633;
1030176;0.034180;0.018555;1.101562;
1030316;0.037109;0.017578;1.107422;
1030456;0.035156;0.013672;1.098633;
1030596;0.031250;0.015625;1.077148;
1030736;0.029297;0.015625;1.073242;
1030876;0.033203;0.015625;1.086914;
1031016;0.034180;0.013672;1.072266;
1031166;0.033203;0.019531;1.073242;
1031301;0.029297;0.013672;1.057617;
1031461;0.030273;0.015625;1.049805;
1031623;0.030273;0.016602;1.061523;
1031773;0.029297;0.014648;1.056641;
1031936;0.029297;0.014648;1.059570;
1032076;0.029297;0.018555;1.053711;
1032216;0.030273;0.014648;1.042969;
1032356;0.031250;0.019531;1.053711;
1032496;0.032227;0.015625;1.067383;
1032636;0.032227;0.013672;1.057617;
1032776;0.031250;0.018555;1.054688;
1032916;0.031250;0.015625;1.048828;
1033056;0.030273;0.016602;1.062500;
1033196;0.032227;0.014648;1.067383;
1033346;0.032227;0.014648;1.067383;
1033486;0.028320;0.013672;1.052734;
1033626;0.028320;0.018555;1.061523;
1033766;0.033203;0.016602;1.078125;
1033901;0.032227;0.014648;1.075195;
1034043;0.030273;0.012695;1.076172;
1034191;0.031250;0.017578;1.082031;
1034343;0.032227;0.019531;1.092773;
1034492;0.033203;0.018555;1.098633;
1034636;0.035156;0.013672;1.110352;
1034776;0.031250;0.016602;1.097656;
1034916;0.035156;0.012695;1.101562;
1035056;0.034180;0.019531;1.114258;
1035196;0.037109;0.014648;1.120117;
1035336;0.035156;0.014648;1.112305;
1035476;0.035156;0.016602;1.114258;
1035616;0.033203;0.017578;1.119141;
1035756;0.036133;0.017578;1.119141;
1035896;0.037109;0.014648;1.125977;
1036036;0.035156;0.015625;1.109375;
1036176;0.032227;0.014648;1.101562;
1036316;0.034180;0.018555;1.112305;
1036456;0.037109;0.017578;1.116211;
1036593;0.036133;0.014648;1.109375;
1036742;0.034180;0.014648;1.110352;
1036891;0.032227;0.015625;1.095703;
1037043;0.036133;0.013672;1.108398;
1037196;0.037109;0.013672;1.109375;
1037336;0.035156;0.013672;1.107422;
1037476;0.033203;0.014648;1.095703;
1037616;0.033203;0.016602;1.099609;
1037756;0.034180;0.017578;1.114258;
1037896;0.037109;0.019531;1.118164;
1038046;0.036133;0.014648;1.114258;
1038186;0.033203;0.012695;1.099609;
1038326;0.029297;0.016602;1.091797;
1038476;0.035156;0.017578;1.111328;
1038616;0.035156;0.009766;1.115234;
1038756;0.035156;0.013672;1.120117;
1038896;0.031250;0.011719;1.108398;
1039036;0.036133;0.016602;1.123047;
1039176;0.038086;0.015625;1.129883;
1039323;0.038086;0.013672;1.125977;
1039471;0.035156;0.013672;1.124023;
1039622;0.031250;0.016602;1.121094;
1039762;0.033203;0.016602;1.129883;
1039901;0.037109;0.014648;1.146484;
1040046;0.037109;0.015625;1.140625;
1040196;0.039062;0.015625;1.143555;
1040336;0.034180;0.013672;1.125000;
1040476;0.035156;0.012695;1.122070;
1040616;0.037109;0.011719;1.133789;
1040756;0.037109;0.011719;1.137695;
1040906;0.034180;0.015625;1.117188;
1041046;0.033203;0.009766;1.119141;
1041186;0.037109;0.015625;1.127930;
1041326;0.036133;0.011719;1.125000;
1041466;0.036133;0.012695;1.128906;
1041606;0.033203;0.013672;1.111328;
1041746;0.033203;0.015625;1.105469;
1041886;0.033203;0.011719;1.114258;
1042022;0.035156;0.013672;1.125000;
1042171;0.030273;0.011719;1.110352;
1042321;0.029297;0.013672;1.095703;
1042461;0.029297;0.013672;1.101562;
1042596;0.036133;0.016602;1.116211;
1042734;0.036133;0.014648;1.117188;
1042871;0.034180;0.014648;1.111328;
1043026;0.032227;0.012695;1.105469;
1043176;0.032227;0.016602;1.113281;
1043316;0.037109;0.015625;1.119141;
1043456;0.036133;0.013672;1.116211;
1043606;0.031250;0.014648;1.105469;
1043746;0.030273;0.015625;1.096680;
1043886;0.033203;0.020508;1.124023;
1044026;0.034180;0.015625;1.128906;
1044166;0.036133;0.016602;1.110352;
1044306;0.033203;0.016602;1.108398;
1044446;0.031250;0.015625;1.109375;
1044586;0.034180;0.014648;1.115234;
1044726;0.035156;0.013672;1.109375;
1044866;0.031250;0.010742;1.109375;
1045001;0.034180;0.013672;1.117188;
1045133;0.032227;0.011719;1.108398;
1045282;0.034180;0.013672;1.113281;
1045431;0.037109;0.010742;1.111328;
1045583;0.035156;0.013672;1.112305;
1045736;0.033203;0.015625;1.105469;
1045876;0.034180;0.014648;1.117188;
1046016;0.032227;0.013672;1.108398;
1046166;0.036133;0.011719;1.120117;
1046306;0.031250;0.019531;1.105469;
1046446;0.033203;0.018555;1.096680;
1046586;0.031250;0.014648;1.100586;
1046726;0.030273;0.012695;1.102539;
1046866;0.031250;0.011719;1.079102;
1047006;0.029297;0.012695;1.080078;
1047146;0.031250;0.017578;1.083984;
1047286;0.030273;0.015625;1.083008;
1047436;0.031250;0.012695;1.093750;
1047576;0.031250;0.013672;1.083008;
1047718;0.029297;0.011719;1.075195;
1047872;0.028320;0.015625;1.076172;
1048011;0.028320;0.012695;1.082031;
1048162;0.032227;0.012695;1.086914;
1048311;0.034180;0.015625;1.087891;
1048466;0.029297;0.014648;1.082031;
1048616;0.027344;0.015625;1.071289;
1048756;0.026367;0.013672;1.074219;
1048896;0.033203;0.013672;1.088867;
1049036;0.031250;0.012695;1.077148;
1049176;0.026367;0.015625;1.069336;
1049316;0.025391;0.019531;1.066406;
1049456;0.029297;0.020508;1.075195;
1049596;0.029297;0.010742;1.083008;
1049736;0.031250;0.015625;1.091797;
1049876;0.025391;0.013672;1.062500;
1050016;0.028320;0.013672;1.070312;
1050156;0.028320;0.015625;1.091797;
1050296;0.034180;0.008789;1.102539;
1050452;0.034180;0.012695;1.115234;
1050611;0.034180;0.011719;1.114258;
1050762;0.031250;0.013672;1.112305;
1050912;0.032227;0.014648;1.121094;
1051066;0.033203;0.020508;1.144531;
1051206;0.034180;0.016602;1.155273;
1051346;0.035156;0.011719;1.151367;
1051486;0.035156;0.012695;1.146484;
1051626;0.035156;0.012695;1.141602;
1051766;0.034180;0.012695;1.150391;
1051916;0.037109;0.010742;1.162109;
1052056;0.037109;0.012695;1.155273;
1052196;0.035156;0.016602;1.142578;
1052336;0.032227;0.014648;1.146484;
1052476;0.036133;0.013672;1.148438;
1052616;0.036133;0.012695;1.148438;
1052756;0.037109;0.015625;1.140625;
1052896;0.031250;0.014648;1.128906;
1053032;0.033203;0.013672;1.138672;
1053172;0.033203;0.009766;1.125977;
1053322;0.034180;0.010742;1.131836;
1053471;0.036133;0.012695;1.125000;
1053621;0.029297;0.014648;1.103516;
1053776;0.031250;0.014648;1.114258;
1053916;0.028320;0.014648;1.118164;
1054056;0.035156;0.016602;1.122070;
1054196;0.034180;0.015625;1.119141;
1054336;0.029297;0.014648;1.095703;
1054476;0.029297;0.013672;1.109375;
1054626;0.031250;0.014648;1.116211;
1054766;0.030273;0.012695;1.123047;
1054906;0.034180;0.012695;1.111328;
1055056;0.028320;0.015625;1.110352;
1055196;0.027344;0.013672;1.105469;
1055336;0.031250;0.014648;1.113281;
1055476;0.030273;0.013672;1.105469;
1055616;0.028320;0.013672;1.091797;
1055751;0.026367;0.012695;1.081055;
1055896;0.027344;0.015625;1.091797;
1056022;0.029297;0.013672;1.079102;
1056156;0.029297;0.011719;1.074219;
1056296;0.027344;0.013672;1.058594;
1056441;0.024414;0.010742;1.049805;
1056583;0.026367;0.014648;1.059570;
1056736;0.026367;0.015625;1.052734;
1056871;0.025391;0.012695;1.059570;
1057011;0.024414;0.011719;1.046875;
1057161;0.023438;0.014648;1.048828;
1057301;0.022461;0.015625;1.043945;
1057456;0.025391;0.017578;1.052734;
1057606;0.026367;0.013672;1.052734;
1057746;0.025391;0.014648;1.042969;
1057886;0.025391;0.014648;1.044922;
1058026;0.026367;0.016602;1.057617;
1058166;0.026367;0.016602;1.063477;
1058316;0.025391;0.010742;1.055664;
1058456;0.024414;0.013672;1.054688;
1058596;0.022461;0.017578;1.056641;
1058736;0.023438;0.015625;1.063477;
1058876;0.026367;0.013672;1.072266;
1059016;0.026367;0.015625;1.070312;
1059156;0.025391;0.011719;1.060547;
1059296;0.023438;0.014648;1.068359;
1059441;0.022461;0.013672;1.069336;
1059592;0.029297;0.016602;1.089844;
1059742;0.028320;0.017578;1.084961;
1059884;0.028320;0.013672;1.085938;
1060031;0.029297;0.018555;1.073242;
1060183;0.024414;0.018555;1.071289;
1060322;0.025391;0.018555;1.074219;
1060466;0.028320;0.017578;1.083984;
1060606;0.028320;0.017578;1.085938;
1060746;0.026367;0.014648;1.066406;
1060886;0.022461;0.014648;1.066406;
1061036;0.024414;0.020508;1.073242;
1061176;0.026367;0.015625;1.080078;
1061316;0.029297;0.014648;1.083984;
1061466;0.027344;0.014648;1.080078;
1061606;0.022461;0.015625;1.060547;
1061746;0.026367;0.017578;1.070312;
1061896;0.027344;0.015625;1.090820;
1062036;0.027344;0.012695;1.079102;
1062186;0.027344;0.013672;1.072266;
1062331;0.024414;0.015625;1.069336;
1062472;0.025391;0.014648;1.061523;
1062622;0.024414;0.016602;1.077148;
1062771;0.029297;0.015625;1.076172;
1062906;0.027344;0.012695;1.081055;
1063046;0.024414;0.014648;1.063477;
1063181;0.024414;0.015625;1.067383;
1063321;0.026367;0.019531;1.084961;
1063461;0.028320;0.016602;1.085938;
1063616;0.030273;0.016602;1.086914;
1063756;0.025391;0.014648;1.076172;
1063896;0.024414;0.018555;1.068359;
1064046;0.023438;0.018555;1.078125;
1064186;0.026367;0.018555;1.083008;
1064336;0.027344;0.021484;1.086914;
1064476;0.024414;0.016602;1.072266;
1064616;0.023438;0.018555;1.067383;
1064756;0.023438;0.016602;1.068359;
1064896;0.024414;0.014648;1.073242;
1065036;0.025391;0.017578;1.069336;
1065176;0.024414;0.017578;1.056641;
1065316;0.020508;0.020508;1.060547;
1065456;0.022461;0.019531;1.055664;
1065611;0.026367;0.019531;1.062500;
1065762;0.024414;0.019531;1.066406;
1065911;0.027344;0.011719;1.057617;
1066042;0.023438;0.016602;1.064453;
1066194;0.021484;0.016602;1.054688;
1066341;0.023438;0.021484;1.064453;
1066481;0.025391;0.021484;1.067383;
1066636;0.021484;0.015625;1.070312;
1066776;0.026367;0.019531;1.070312;
1066916;0.023438;0.020508;1.058594;
1067066;0.024414;0.016602;1.060547;
1067206;0.026367;0.015625;1.072266;
1067346;0.028320;0.018555;1.072266;
1067486;0.024414;0.017578;1.067383;
1067626;0.024414;0.017578;1.055664;
1067776;0.024414;0.017578;1.060547;
1067916;0.023438;0.016602;1.070312;
1068056;0.024414;0.013672;1.069336;
1068196;0.025391;0.017578;1.067383;
1068336;0.022461;0.020508;1.056641;
1068476;0.023438;0.017578;1.062500;
1068616;0.025391;0.015625;1.073242;
1068751;0.025391;0.014648;1.068359;
1068891;0.023438;0.013672;1.055664;
1069042;0.021484;0.018555;1.054688;
1069193;0.021484;0.018555;1.052734;
1069341;0.020508;0.018555;1.063477;
1069496;0.020508;0.019531;1.061523;
1069636;0.025391;0.015625;1.063477;
1069776;0.022461;0.018555;1.057617;
1069926;0.024414;0.021484;1.057617;
1070066;0.025391;0.021484;1.056641;
1070216;0.022461;0.022461;1.055664;
1070366;0.025391;0.020508;1.059570;
1070506;0.025391;0.018555;1.049805;
1070646;0.024414;0.019531;1.055664;
1070786;0.020508;0.022461;1.043945;
1070926;0.024414;0.020508;1.056641;
1071066;0.024414;0.016602;1.057617;
1071206;0.025391;0.018555;1.058594;
1071346;0.023438;0.018555;1.045898;
1071481;0.019531;0.016602;1.042969;
1071632;0.020508;0.021484;1.050781;
1071782;0.025391;0.017578;1.052734;
1071932;0.024414;0.015625;1.049805;
1072073;0.021484;0.013672;1.054688;
1072216;0.020508;0.016602;1.047852;
1072356;0.020508;0.017578;1.046875;
1072506;0.022461;0.018555;1.061523;
1072646;0.021484;0.018555;1.053711;
1072786;0.025391;0.018555;1.060547;
1072926;0.021484;0.018555;1.050781;
1073066;0.023438;0.023438;1.062500;
1073206;0.022461;0.020508;1.067383;
1073346;0.024414;0.021484;1.067383;
1073486;0.027344;0.023438;1.064453;
1073626;0.022461;0.020508;1.050781;
1073766;0.019531;0.016602;1.049805;
1073916;0.021484;0.018555;1.055664;
1074066;0.022461;0.020508;1.054688;
1074201;0.023438;0.016602;1.053711;
1074342;0.019531;0.021484;1.046875;
1074492;0.017578;0.016602;1.039062;
1074641;0.021484;0.024414;1.039062;
1074792;0.018555;0.020508;1.028320;
1074936;0.020508;0.018555;1.010742;
1075076;0.017578;0.014648;0.978516;
1075226;0.018555;0.021484;0.959961;
1075366;0.013672;0.022461;0.944336;
1075506;0.013672;0.022461;0.927734;
1075646;0.014648;0.015625;0.921875;
1075786;0.013672;0.015625;0.923828;
1075926;0.011719;0.017578;0.922852;
1076066;0.012695;0.020508;0.929688;
1076206;0.014648;0.020508;0.958008;
1076346;0.019531;0.023438;0.990234;
1076496;0.020508;0.023438;1.009766;
1076636;0.017578;0.022461;1.010742;
1076776;0.020508;0.024414;1.033203;
1076921;0.021484;0.022461;1.047852;
1077061;0.023438;0.024414;1.074219;
1077212;0.025391;0.026367;1.090820;
1077351;0.021484;0.022461;1.084961;
1077483;0.026367;0.026367;1.099609;
1077631;0.026367;0.023438;1.099609;
1077776;0.026367;0.024414;1.097656;
1077916;0.027344;0.019531;1.085938;
1078056;0.022461;0.019531;1.092773;
1078206;0.022461;0.022461;1.066406;
1078346;0.023438;0.021484;1.071289;
1078486;0.022461;0.018555;1.055664;
1078626;0.022461;0.016602;1.040039;
1078766;0.024414;0.020508;1.029297;
1078906;0.015625;0.018555;1.011719;
1079046;0.012695;0.020508;1.000000;
1079186;0.018555;0.019531;0.995117;
1079326;0.017578;0.017578;0.981445;
1079466;0.016602;0.016602;0.968750;
1079606;0.016602;0.021484;0.966797;
1079752;0.014648;0.018555;0.957031;
1079896;0.019531;0.024414;0.966797;
1080036;0.018555;0.019531;0.969727;
1080182;0.016602;0.022461;0.959961;
1080332;0.012695;0.021484;0.951172;
1080483;0.013672;0.024414;0.956055;
1080633;0.013672;0.020508;0.943359;
1080771;0.016602;0.015625;0.952148;
1080916;0.015625;0.019531;0.950195;
1081056;0.013672;0.022461;0.935547;
1081196;0.014648;0.019531;0.934570;
1081336;0.012695;0.018555;0.926758;
1081476;0.015625;0.020508;0.936523;
1081616;0.016602;0.019531;0.934570;
1081756;0.010742;0.022461;0.925781;
1081896;0.013672;0.022461;0.928711;
1082036;0.012695;0.021484;0.946289;
1082186;0.014648;0.023438;0.965820;
1082326;0.016602;0.026367;0.987305;
1082466;0.019531;0.023438;1.012695;
1082616;0.017578;0.023438;1.038086;
1082756;0.015625;0.020508;1.064453;
1082891;0.019531;0.023438;1.109375;
1083034;0.021484;0.019531;1.144531;
1083183;0.021484;0.023438;1.176758;
1083332;0.021484;0.022461;1.206055;
1083491;0.025391;0.022461;1.236328;
1083646;0.026367;0.022461;1.247070;
1083786;0.025391;0.020508;1.254883;
1083936;0.027344;0.022461;1.273438;
1084076;0.023438;0.019531;1.253906;
1084216;0.026367;0.022461;1.263672;
1084356;0.025391;0.022461;1.256836;
1084496;0.022461;0.022461;1.237305;
1084636;0.020508;0.021484;1.223633;
1084776;0.019531;0.025391;1.195312;
1084916;0.017578;0.029297;1.185547;
1085056;0.014648;0.023438;1.159180;
1085196;0.011719;0.027344;1.143555;
1085336;0.010742;0.028320;1.130859;
1085486;0.011719;0.026367;1.117188;
1085621;0.006836;0.020508;1.105469;
1085762;0.007812;0.030273;1.098633;
1085902;0.006836;0.026367;1.098633;
1086041;0.004883;0.026367;1.083984;
1086181;0.004883;0.025391;1.077148;
1086316;0.002930;0.022461;1.070312;
1086456;0.004883;0.023438;1.076172;
1086596;0.000000;0.023438;1.065430;
1086736;0.000000;0.021484;1.059570;
1086876;0.002930;0.022461;1.063477;
1087016;0.001953;0.022461;1.066406;
1087156;-0.000977;0.025391;1.068359;
1087296;0.001953;0.027344;1.068359;
1087436;0.003906;0.024414;1.063477;
1087576;0.004883;0.026367;1.073242;
1087716;0.003906;0.024414;1.069336;
1087856;0.003906;0.026367;1.074219;
1087996;0.004883;0.023438;1.072266;
1088136;0.003906;0.025391;1.074219;
1088271;0.004883;0.027344;1.090820;
1088421;0.004883;0.027344;1.097656;
1088572;0.007812;0.026367;1.100586;
1088711;0.007812;0.025391;1.102539;
1088861;0.005859;0.023438;1.083984;
1089006;0.004883;0.019531;1.072266;
1089146;0.000977;0.024414;1.047852;
1089282;0.001953;0.026367;1.034180;
1089421;0.000000;0.024414;1.011719;
1089576;-0.000977;0.022461;0.999023;
1089716;-0.000977;0.028320;0.974609;
1089856;-0.001953;0.026367;0.958984;
1089996;-0.002930;0.029297;0.954102;
1090136;-0.006836;0.026367;0.918945;
1090276;-0.004883;0.029297;0.909180;
1090416;-0.006836;0.027344;0.905273;
1090566;-0.007812;0.031250;0.892578;
1090706;-0.010742;0.025391;0.871094;
1090846;-0.005859;0.028320;0.865234;
1090996;-0.007812;0.030273;0.870117;
1091136;-0.009766;0.029297;0.883789;
1091276;-0.009766;0.026367;0.899414;
1091416;-0.006836;0.030273;0.934570;
1091541;-0.006836;0.034180;0.953125;
1091682;-0.002930;0.030273;0.968750;
1091832;-0.001953;0.032227;0.994141;
1091982;0.000977;0.029297;1.018555;
1092123;0.003906;0.028320;1.043945;
1092272;0.004883;0.022461;1.054688;
1092426;0.003906;0.027344;1.062500;
1092566;0.006836;0.026367;1.072266;
1092706;0.004883;0.021484;1.061523;
1092846;0.002930;0.027344;1.077148;
1092986;0.005859;0.023438;1.070312;
1093126;0.004883;0.026367;1.070312;
1093266;0.005859;0.025391;1.055664;
1093406;0.004883;0.024414;1.041016;
1093546;0.000000;0.020508;1.017578;
1093686;0.000977;0.026367;1.011719;
1093836;0.001953;0.024414;0.994141;
1093976;-0.000977;0.025391;0.979492;
1094116;-0.002930;0.025391;0.958008;
1094256;-0.002930;0.025391;0.961914;
1094391;-0.002930;0.026367;0.964844;
1094541;-0.002930;0.027344;0.964844;
1094692;-0.001953;0.025391;0.981445;
1094843;0.000977;0.025391;0.969727;
1095006;0.000000;0.024414;0.981445;
1095156;-0.001953;0.027344;1.000977;
1095296;-0.003906;0.026367;0.998047;
1095436;0.001953;0.027344;1.004883;
1095576;0.000000;0.023438;1.005859;
1095716;0.002930;0.025391;1.010742;
1095856;0.003906;0.022461;1.026367;
1095996;0.001953;0.023438;1.021484;
1096136;0.002930;0.026367;1.024414;
1096276;0.001953;0.026367;1.040039;
1096416;0.004883;0.027344;1.040039;
1096556;0.003906;0.023438;1.047852;
1096696;0.004883;0.021484;1.064453;
1096836;0.005859;0.019531;1.080078;
1096972;0.006836;0.024414;1.078125;
1097123;0.008789;0.023438;1.101562;
1097273;0.008789;0.020508;1.087891;
1097432;0.008789;0.015625;1.089844;
1097582;0.007812;0.023438;1.102539;
1097736;0.008789;0.025391;1.097656;
1097876;0.010742;0.022461;1.093750;
1098016;0.008789;0.022461;1.092773;
1098156;0.008789;0.022461;1.086914;
1098296;0.008789;0.020508;1.097656;
1098436;0.006836;0.023438;1.087891;
1098576;0.004883;0.022461;1.074219;
1098716;0.006836;0.027344;1.067383;
1098866;0.005859;0.028320;1.057617;
1099006;0.006836;0.025391;1.063477;
1099146;0.003906;0.029297;1.056641;
1099286;0.003906;0.027344;1.046875;
1099426;0.003906;0.027344;1.050781;
1099566;0.002930;0.020508;1.033203;
1099711;0.006836;0.022461;1.041992;
1099861;0.003906;0.018555;1.041992;
1100001;0.003906;0.023438;1.048828;
1100151;0.005859;0.024414;1.042969;
1100302;0.004883;0.026367;1.045898;
1100446;0.004883;0.026367;1.050781;
1100586;0.006836;0.022461;1.047852;
1100726;0.004883;0.022461;1.061523;
1100866;0.004883;0.022461;1.069336;
1101016;0.003906;0.024414;1.072266;
1101156;0.005859;0.023438;1.081055;
1101306;0.002930;0.024414;1.068359;
1101446;0.002930;0.025391;1.079102;
1101586;0.004883;0.021484;1.078125;
1101736;0.003906;0.023438;1.074219;
1101876;0.002930;0.022461;1.064453;
1102016;0.003906;0.023438;1.062500;
1102166;0.001953;0.024414;1.055664;
1102306;0.004883;0.024414;1.060547;
1102441;0.001953;0.022461;1.054688;
1102592;0.001953;0.022461;1.050781;
1102741;0.000977;0.022461;1.041016;
1102882;0.002930;0.021484;1.048828;
1103031;0.000977;0.023438;1.038086;
1103181;0.000000;0.024414;1.046875;
1103326;0.000977;0.023438;1.028320;
1103466;-0.000977;0.022461;1.025391;
1103606;0.000000;0.028320;1.024414;
1103746;0.000977;0.021484;1.022461;
1103886;0.000000;0.023438;1.013672;
1104026;-0.000977;0.024414;1.020508;
1104166;-0.000977;0.021484;1.033203;
1104316;0.000000;0.026367;1.008789;
1104456;0.001953;0.026367;1.029297;
1104606;0.002930;0.026367;1.041992;
1104756;0.000977;0.019531;1.025391;
1104896;0.001953;0.021484;1.033203;
1105036;0.001953;0.022461;1.053711;
1105176;0.000977;0.022461;1.043945;
1105311;0.001953;0.023438;1.066406;
1105451;0.002930;0.023438;1.070312;
1105602;0.006836;0.022461;1.067383;
1105752;0.003906;0.027344;1.073242;
1105896;0.004883;0.022461;1.081055;
1106032;0.006836;0.025391;1.080078;
1106161;0.002930;0.023438;1.066406;
1106306;0.006836;0.020508;1.068359;
1106446;0.003906;0.023438;1.069336;
1106596;0.004883;0.023438;1.074219;
1106736;0.004883;0.021484;1.067383;
1106876;0.004883;0.025391;1.066406;
1107016;0.004883;0.026367;1.066406;
1107156;0.006836;0.024414;1.060547;
1107306;0.002930;0.026367;1.053711;
1107446;0.000000;0.022461;1.049805;
1107586;0.001953;0.020508;1.054688;
1107726;0.000977;0.024414;1.042969;
1107866;0.003906;0.022461;1.041016;
1108006;0.000000;0.023438;1.022461;
1108146;0.000977;0.021484;1.012695;
1108298;0.000000;0.025391;1.012695;
1108442;0.000000;0.021484;1.011719;
1108576;-0.002930;0.021484;1.014648;
1108712;0.000977;0.024414;1.014648;
1108846;-0.001953;0.023438;1.000000;
1108981;-0.000977;0.026367;1.004883;
1109131;0.000000;0.025391;1.009766;
1109272;0.000000;0.023438;1.010742;
1109421;0.001953;0.023438;1.013672;
1109576;0.000977;0.024414;1.019531;
1109716;0.002930;0.027344;1.030273;
1109856;0.002930;0.024414;1.031250;
1109996;0.000000;0.020508;1.039062;
1110136;0.001953;0.021484;1.034180;
1110276;0.000977;0.024414;1.041992;
1110416;0.003906;0.025391;1.041992;
1110556;0.004883;0.021484;1.051758;
1110696;0.004883;0.024414;1.043945;
1110836;0.005859;0.022461;1.050781;
1110976;0.004883;0.023438;1.046875;
1111116;0.005859;0.025391;1.050781;
1111256;0.002930;0.025391;1.041016;
1111396;0.002930;0.023438;1.033203;
1111531;0.000977;0.026367;1.032227;
1111682;0.005859;0.025391;1.028320;
1111831;0.002930;0.027344;1.042969;
1111982;0.003906;0.023438;1.028320;
1112131;0.003906;0.024414;1.042969;
1112286;0.002930;0.020508;1.027344;
1112426;0.003906;0.026367;1.041992;
1112566;0.002930;0.025391;1.043945;
1112716;0.006836;0.030273;1.044922;
1112856;0.004883;0.026367;1.035156;
1112996;0.001953;0.029297;1.042969;
1113146;0.003906;0.025391;1.024414;
1113286;0.003906;0.022461;1.020508;
1113426;0.000977;0.022461;1.000000;
1113576;0.000977;0.024414;0.989258;
1113716;-0.001953;0.023438;0.976562;
1113856;0.000000;0.026367;0.968750;
1113996;0.000977;0.025391;0.971680;
1114136;-0.001953;0.026367;0.951172;
1114272;0.001953;0.025391;0.948242;
1114421;-0.001953;0.028320;0.945312;
1114572;-0.000977;0.020508;0.946289;
1114711;-0.002930;0.020508;0.926758;
1114861;-0.005859;0.025391;0.933594;
1115016;-0.001953;0.024414;0.943359;
1115156;-0.000977;0.023438;0.959961;
1115296;-0.002930;0.024414;0.948242;
1115436;-0.002930;0.022461;0.956055;
1115576;-0.002930;0.027344;0.971680;
1115716;-0.000977;0.025391;0.958008;
1115856;0.000977;0.027344;0.971680;
1115996;-0.000977;0.028320;0.983398;
1116136;-0.000977;0.026367;0.994141;
1116276;0.000000;0.026367;0.977539;
1116416;-0.000977;0.022461;0.972656;
1116556;0.000000;0.021484;0.986328;
1116696;0.001953;0.023438;0.972656;
1116836;0.002930;0.026367;0.997070;
1116972;-0.000977;0.026367;0.997070;
1117122;0.003906;0.021484;0.996094;
1117272;0.003906;0.025391;1.017578;
1117421;0.001953;0.023438;1.033203;
1117573;0.004883;0.026367;1.025391;
1117726;0.005859;0.028320;1.062500;
1117876;0.003906;0.025391;1.039062;
1118016;0.006836;0.023438;1.046875;
1118156;0.004883;0.021484;1.063477;
1118296;0.008789;0.027344;1.064453;
1118446;0.007812;0.025391;1.046875;
1118586;0.006836;0.023438;1.045898;
1118726;0.004883;0.028320;1.059570;
1118876;0.006836;0.026367;1.049805;
1119016;0.008789;0.024414;1.041992;
1119156;0.006836;0.025391;1.036133;
1119306;0.005859;0.027344;1.033203;
1119446;0.000000;0.019531;1.015625;
1119586;0.002930;0.029297;1.018555;
1119726;0.001953;0.026367;1.000000;
1119861;0.000977;0.021484;0.988281;
1120011;-0.000977;0.024414;0.973633;
1120156;0.000000;0.025391;0.954102;
1120291;-0.000977;0.024414;0.947266;
1120431;-0.003906;0.025391;0.913086;
1120563;-0.005859;0.025391;0.905273;
1120701;-0.003906;0.025391;0.881836;
1120841;-0.005859;0.027344;0.857422;
1120992;-0.007812;0.023438;0.842773;
1121146;-0.008789;0.024414;0.825195;
1121286;-0.010742;0.020508;0.819336;
1121426;-0.010742;0.027344;0.810547;
1121566;-0.009766;0.023438;0.818359;
1121706;-0.007812;0.023438;0.825195;
1121846;-0.010742;0.025391;0.814453;
1121986;-0.009766;0.026367;0.825195;
1122126;-0.009766;0.026367;0.846680;
1122266;-0.007812;0.025391;0.867188;
1122416;-0.005859;0.022461;0.880859;
1122556;-0.005859;0.022461;0.899414;
1122696;-0.005859;0.027344;0.919922;
1122836;-0.004883;0.022461;0.914062;
1122976;-0.003906;0.023438;0.941406;
1123112;-0.002930;0.024414;0.937500;
1123256;-0.002930;0.025391;0.948242;
1123392;-0.003906;0.025391;0.961914;
1123541;-0.001953;0.024414;0.963867;
1123692;-0.003906;0.025391;0.954102;
1123841;0.000000;0.023438;0.965820;
1123991;-0.003906;0.023438;0.966797;
1124146;-0.002930;0.027344;0.958984;
1124286;-0.005859;0.024414;0.934570;
1124426;-0.003906;0.025391;0.953125;
1124566;-0.006836;0.024414;0.948242;
1124706;-0.005859;0.028320;0.943359;
1124846;-0.005859;0.023438;0.924805;
1124986;-0.007812;0.025391;0.933594;
1125126;-0.008789;0.025391;0.946289;
1125276;-0.009766;0.028320;0.950195;
1125416;-0.008789;0.028320;0.954102;
1125556;-0.009766;0.023438;0.958984;
1125696;-0.008789;0.023438;0.983398;
1125836;-0.007812;0.022461;0.978516;
1125986;-0.007812;0.026367;0.999023;
1126121;-0.006836;0.024414;1.016602;
1126271;-0.003906;0.029297;1.021484;
1126421;-0.008789;0.025391;1.028320;
1126561;-0.005859;0.027344;1.056641;
1126711;-0.002930;0.025391;1.047852;
1126866;-0.004883;0.022461;1.037109;
1127006;-0.004883;0.026367;1.043945;
1127146;-0.004883;0.027344;1.038086;
1127296;-0.008789;0.025391;1.024414;
1127436;-0.007812;0.026367;1.027344;
1127576;-0.004883;0.028320;1.026367;
1127716;-0.005859;0.027344;1.018555;
1127856;-0.007812;0.022461;1.014648;
1127996;-0.007812;0.024414;1.005859;
1128136;-0.007812;0.024414;1.006836;
1128286;-0.010742;0.024414;1.000977;
1128426;-0.010742;0.026367;1.013672;
1128566;-0.007812;0.023438;1.007812;
1128706;-0.008789;0.019531;1.004883;
1128841;-0.007812;0.025391;1.001953;
1128981;-0.007812;0.025391;1.011719;
1129141;-0.008789;0.024414;1.013672;
1129282;-0.010742;0.028320;1.012695;
1129433;-0.008789;0.027344;1.017578;
1129586;-0.008789;0.028320;1.025391;
1129726;-0.008789;0.027344;1.029297;
1129866;-0.010742;0.024414;1.019531;
1130006;-0.007812;0.029297;1.035156;
1130146;-0.004883;0.026367;1.041016;
1130286;-0.003906;0.028320;1.045898;
1130426;-0.006836;0.024414;1.043945;
1130566;-0.006836;0.027344;1.046875;
1130706;-0.003906;0.030273;1.044922;
1130846;-0.005859;0.025391;1.048828;
1130986;-0.006836;0.020508;1.037109;
1131126;-0.003906;0.022461;1.044922;
1131266;-0.007812;0.024414;1.035156;
1131406;-0.006836;0.026367;1.036133;
1131544;-0.007812;0.027344;1.042969;
1131692;-0.005859;0.026367;1.041992;
1131841;-0.006836;0.027344;1.036133;
1131992;-0.005859;0.028320;1.048828;
1132131;-0.003906;0.026367;1.037109;
1132286;-0.006836;0.027344;1.033203;
1132436;-0.007812;0.028320;1.022461;
1132576;-0.008789;0.029297;1.022461;
1132716;-0.004883;0.029297;1.027344;
1132866;-0.006836;0.027344;1.034180;
1133006;-0.008789;0.028320;1.021484;
1133146;-0.012695;0.023438;1.006836;
1133296;-0.005859;0.027344;1.019531;
1133436;-0.004883;0.020508;1.018555;
1133576;-0.009766;0.027344;1.020508;
1133716;-0.008789;0.026367;1.015625;
1133856;-0.006836;0.022461;1.003906;
1133996;-0.010742;0.020508;0.996094;
1134136;-0.009766;0.027344;0.997070;
1134271;-0.009766;0.024414;0.991211;
1134422;-0.011719;0.024414;0.980469;
1134571;-0.012695;0.026367;0.967773;
1134716;-0.014648;0.027344;0.960938;
1134856;-0.016602;0.026367;0.956055;
1134992;-0.010742;0.025391;0.928711;
1135143;-0.014648;0.024414;0.923828;
1135292;-0.013672;0.027344;0.925781;
1135436;-0.010742;0.027344;0.926758;
1135586;-0.013672;0.028320;0.924805;
1135726;-0.015625;0.028320;0.918945;
1135866;-0.014648;0.030273;0.919922;
1136016;-0.016602;0.030273;0.942383;
1136156;-0.014648;0.032227;0.944336;
1136296;-0.013672;0.029297;0.953125;
1136446;-0.013672;0.026367;0.957031;
1136586;-0.012695;0.026367;0.980469;
1136726;-0.011719;0.025391;0.991211;
1136866;-0.014648;0.029297;0.993164;
1137006;-0.011719;0.027344;0.996094;
1137146;-0.011719;0.025391;0.990234;
1137286;-0.012695;0.026367;0.993164;
1137431;-0.012695;0.024414;0.993164;
1137573;-0.009766;0.022461;1.009766;
1137702;-0.010742;0.026367;1.001953;
1137852;-0.010742;0.023438;1.004883;
1138002;-0.011719;0.026367;1.006836;
1138151;-0.009766;0.021484;1.006836;
1138306;-0.010742;0.021484;1.002930;
1138456;-0.007812;0.024414;1.009766;
1138596;-0.009766;0.027344;0.999023;
1138746;-0.008789;0.025391;1.012695;
1138886;-0.008789;0.024414;1.012695;
1139026;-0.010742;0.026367;1.014648;
1139166;-0.011719;0.023438;1.019531;
1139306;-0.006836;0.021484;1.017578;
1139446;-0.011719;0.019531;1.006836;
1139586;-0.012695;0.027344;1.004883;
1139726;-0.012695;0.021484;1.001953;
1139866;-0.011719;0.023438;0.995117;
1140006;-0.013672;0.021484;0.976562;
1140146;-0.016602;0.024414;0.962891;
1140286;-0.013672;0.025391;0.966797;
1140411;-0.015625;0.027344;0.952148;
1140552;-0.019531;0.027344;0.945312;
1140702;-0.021484;0.023438;0.941406;
1140851;-0.014648;0.027344;0.938477;
1141001;-0.016602;0.024414;0.938477;
1141156;-0.020508;0.023438;0.923828;
1141296;-0.017578;0.026367;0.933594;
1141436;-0.017578;0.024414;0.935547;
1141576;-0.016602;0.026367;0.945312;
1141716;-0.017578;0.025391;0.930664;
1141856;-0.019531;0.022461;0.916016;
1141996;-0.015625;0.023438;0.930664;
1142136;-0.019531;0.023438;0.924805;
1142276;-0.021484;0.026367;0.925781;
1142416;-0.019531;0.026367;0.932617;
1142556;-0.018555;0.027344;0.921875;
1142696;-0.020508;0.025391;0.920898;
1142836;-0.021484;0.023438;0.919922;
1142976;-0.019531;0.023438;0.913086;
1143111;-0.023438;0.020508;0.913086;
1143251;-0.020508;0.022461;0.900391;
1143401;-0.021484;0.023438;0.897461;
1143551;-0.022461;0.026367;0.885742;
1143702;-0.023438;0.022461;0.882812;
1143846;-0.020508;0.025391;0.876953;
1143996;-0.024414;0.021484;0.870117;
1144136;-0.024414;0.020508;0.867188;
1144276;-0.028320;0.024414;0.846680;
1144416;-0.028320;0.022461;0.839844;
1144556;-0.026367;0.025391;0.843750;
1144706;-0.027344;0.020508;0.844727;
1144846;-0.026367;0.021484;0.849609;
1144986;-0.030273;0.023438;0.847656;
1145126;-0.024414;0.019531;0.866211;
1145266;-0.027344;0.017578;0.870117;
1145406;-0.025391;0.019531;0.879883;
1145546;-0.028320;0.024414;0.894531;
1145686;-0.023438;0.023438;0.918945;
1145822;-0.023438;0.023438;0.914062;
1145972;-0.023438;0.022461;0.923828;
1146111;-0.025391;0.020508;0.935547;
1146263;-0.025391;0.027344;0.939453;
1146411;-0.023438;0.024414;0.954102;
1146556;-0.024414;0.026367;0.960938;
1146696;-0.026367;0.025391;0.952148;
1146836;-0.025391;0.023438;0.958008;
1146976;-0.022461;0.026367;0.959961;
1147116;-0.025391;0.023438;0.958984;
1147256;-0.023438;0.026367;0.956055;
1147396;-0.025391;0.024414;0.961914;
1147536;-0.020508;0.026367;0.967773;
1147676;-0.021484;0.023438;0.968750;
1147816;-0.022461;0.018555;0.961914;
1147956;-0.021484;0.016602;0.964844;
1148096;-0.025391;0.022461;0.989258;
1148236;-0.022461;0.021484;0.989258;
1148376;-0.022461;0.022461;0.993164;
1148526;-0.019531;0.018555;1.010742;
1148661;-0.024414;0.020508;1.011719;
1148821;-0.021484;0.014648;1.018555;
1148972;-0.021484;0.019531;1.033203;
1149121;-0.019531;0.017578;1.022461;
1149276;-0.021484;0.013672;1.030273;
1149426;-0.021484;0.014648;1.036133;
1149566;-0.021484;0.018555;1.036133;
1149706;-0.020508;0.021484;1.052734;
1149846;-0.024414;0.021484;1.046875;
1149986;-0.023438;0.020508;1.045898;
1150126;-0.023438;0.024414;1.039062;
1150276;-0.024414;0.027344;1.047852;
1150416;-0.026367;0.027344;1.044922;
1150556;-0.028320;0.027344;1.041016;
1150696;-0.026367;0.033203;1.052734;
1150836;-0.031250;0.031250;1.041992;
1150976;-0.030273;0.027344;1.035156;
1151116;-0.024414;0.029297;1.050781;
1151267;-0.034180;0.029297;1.030273;
1151391;-0.031250;0.024414;1.039062;
1151533;-0.032227;0.028320;1.037109;
1151681;-0.028320;0.027344;1.048828;
1151832;-0.033203;0.026367;1.032227;
1151981;-0.034180;0.025391;1.045898;
1152136;-0.033203;0.027344;1.038086;
1152276;-0.035156;0.027344;1.039062;
1152426;-0.034180;0.022461;1.045898;
1152566;-0.041016;0.025391;1.047852;
1152706;-0.036133;0.019531;1.036133;
1152856;-0.037109;0.026367;1.051758;
1152996;-0.038086;0.026367;1.054688;
1153136;-0.037109;0.022461;1.055664;
1153276;-0.038086;0.025391;1.053711;
1153416;-0.039062;0.030273;1.045898;
1153556;-0.041016;0.026367;1.056641;
1153696;-0.039062;0.028320;1.056641;
1153836;-0.041992;0.026367;1.059570;
1153976;-0.041016;0.027344;1.065430;
1154111;-0.042969;0.028320;1.073242;
1154261;-0.040039;0.024414;1.077148;
1154411;-0.039062;0.029297;1.088867;
1154561;-0.041016;0.031250;1.093750;
1154711;-0.041016;0.026367;1.100586;
1154866;-0.044922;0.023438;1.108398;
1155006;-0.040039;0.020508;1.099609;
1155146;-0.041992;0.024414;1.094727;
1155296;-0.043945;0.023438;1.097656;
1155436;-0.043945;0.019531;1.094727;
1155576;-0.042969;0.017578;1.099609;
1155726;-0.043945;0.024414;1.099609;
1155866;-0.042969;0.027344;1.092773;
1156006;-0.045898;0.024414;1.092773;
1156146;-0.044922;0.016602;1.097656;
1156286;-0.044922;0.016602;1.094727;
1156436;-0.044922;0.030273;1.083008;
1156576;-0.049805;0.027344;1.098633;
1156716;-0.046875;0.026367;1.097656;
1156851;-0.044922;0.024414;1.089844;
1157002;-0.049805;0.026367;1.081055;
1157151;-0.044922;0.026367;1.099609;
1157302;-0.047852;0.026367;1.083984;
1157452;-0.050781;0.027344;1.080078;
1157596;-0.051758;0.027344;1.062500;
1157736;-0.052734;0.031250;1.062500;
1157876;-0.052734;0.028320;1.054688;
1158016;-0.049805;0.031250;1.040039;
1158156;-0.054688;0.026367;1.033203;
1158296;-0.053711;0.031250;1.031250;
1158436;-0.052734;0.025391;1.020508;
1158576;-0.055664;0.025391;1.020508;
1158716;-0.056641;0.028320;1.010742;
1158856;-0.053711;0.024414;1.010742;
1158996;-0.057617;0.024414;1.006836;
1159136;-0.054688;0.015625;0.999023;
1159276;-0.059570;0.026367;0.995117;
1159426;-0.055664;0.022461;0.989258;
1159561;-0.059570;0.022461;0.990234;
1159701;-0.054688;0.018555;0.985352;
1159841;-0.056641;0.022461;0.984375;
1159992;-0.056641;0.016602;0.988281;
1160143;-0.056641;0.023438;0.992188;
1160296;-0.056641;0.019531;1.001953;
1160436;-0.056641;0.020508;1.003906;
1160576;-0.056641;0.025391;1.006836;
1160716;-0.056641;0.025391;1.013672;
1160856;-0.057617;0.024414;1.016602;
1161006;-0.054688;0.022461;1.023438;
1161146;-0.057617;0.023438;1.026367;
1161286;-0.055664;0.025391;1.028320;
1161426;-0.055664;0.022461;1.036133;
1161566;-0.054688;0.024414;1.039062;
1161706;-0.056641;0.019531;1.046875;
1161846;-0.056641;0.016602;1.041992;
1161986;-0.055664;0.021484;1.054688;
1162136;-0.054688;0.022461;1.055664;
1162272;-0.052734;0.022461;1.058594;
1162422;-0.055664;0.021484;1.052734;
1162561;-0.055664;0.020508;1.062500;
1162712;-0.054688;0.017578;1.059570;
1162861;-0.056641;0.018555;1.069336;
1163016;-0.056641;0.023438;1.075195;
1163156;-0.055664;0.023438;1.068359;
1163296;-0.057617;0.020508;1.072266;
1163436;-0.055664;0.023438;1.082031;
1163576;-0.058594;0.021484;1.070312;
1163716;-0.055664;0.025391;1.076172;
1163856;-0.056641;0.024414;1.077148;
1163996;-0.057617;0.029297;1.069336;
1164146;-0.059570;0.029297;1.066406;
1164286;-0.059570;0.023438;1.071289;
1164426;-0.058594;0.023438;1.075195;
1164566;-0.053711;0.022461;1.073242;
1164706;-0.053711;0.023438;1.098633;
1164846;-0.054688;0.021484;1.091797;
1164982;-0.053711;0.022461;1.090820;
1165124;-0.054688;0.023438;1.099609;
1165272;-0.055664;0.025391;1.098633;
1165421;-0.055664;0.022461;1.090820;
1165561;-0.054688;0.021484;1.093750;
1165692;-0.055664;0.022461;1.103516;
1165846;-0.052734;0.024414;1.123047;
1165986;-0.053711;0.016602;1.128906;
1166126;-0.052734;0.023438;1.138672;
1166266;-0.048828;0.030273;1.155273;
1166406;-0.053711;0.022461;1.152344;
1166546;-0.055664;0.024414;1.156250;
1166696;-0.048828;0.022461;1.167969;
1166836;-0.049805;0.017578;1.171875;
1166976;-0.053711;0.020508;1.159180;
1167116;-0.053711;0.019531;1.136719;
1167256;-0.052734;0.018555;1.116211;
1167406;-0.055664;0.015625;1.104492;
1167546;-0.059570;0.018555;1.071289;
1167686;-0.057617;0.020508;1.047852;
1167826;-0.058594;0.023438;1.017578;
1167972;-0.063477;0.020508;0.995117;
1168124;-0.065430;0.021484;0.978516;
1168262;-0.061523;0.020508;0.956055;
1168393;-0.065430;0.020508;0.941406;
1168542;-0.064453;0.029297;0.923828;
1168696;-0.070312;0.028320;0.900391;
1168836;-0.069336;0.027344;0.875000;
1168976;-0.071289;0.025391;0.862305;
1169116;-0.073242;0.026367;0.843750;
1169256;-0.071289;0.023438;0.845703;
1169406;-0.069336;0.025391;0.836914;
1169546;-0.068359;0.027344;0.836914;
1169686;-0.074219;0.027344;0.830078;
1169826;-0.073242;0.025391;0.811523;
1169966;-0.077148;0.026367;0.797852;
1170106;-0.074219;0.026367;0.808594;
1170246;-0.077148;0.026367;0.801758;
1170386;-0.073242;0.026367;0.807617;
1170526;-0.075195;0.020508;0.816406;
1170666;-0.074219;0.019531;0.824219;
1170801;-0.074219;0.018555;0.839844;
1170951;-0.068359;0.020508;0.855469;
1171091;-0.071289;0.021484;0.867188;
1171242;-0.067383;0.018555;0.874023;
1171391;-0.071289;0.023438;0.876953;
1171536;-0.072266;0.017578;0.877930;
1171676;-0.068359;0.020508;0.875000;
1171816;-0.071289;0.023438;0.882812;
1171956;-0.071289;0.023438;0.883789;
1172106;-0.072266;0.023438;0.882812;
1172246;-0.072266;0.024414;0.890625;
1172386;-0.072266;0.025391;0.875000;
1172526;-0.072266;0.029297;0.890625;
1172666;-0.072266;0.026367;0.898438;
1172816;-0.068359;0.023438;0.906250;
1172956;-0.072266;0.021484;0.930664;
1173096;-0.069336;0.026367;0.950195;
1173236;-0.066406;0.022461;0.983398;
1173376;-0.065430;0.026367;1.011719;
1173512;-0.065430;0.022461;1.038086;
1173662;-0.062500;0.024414;1.076172;
1173811;-0.063477;0.022461;1.086914;
1173961;-0.060547;0.024414;1.120117;
1174113;-0.058594;0.024414;1.142578;
1174256;-0.055664;0.028320;1.164062;
1174396;-0.056641;0.019531;1.160156;
1174536;-0.058594;0.022461;1.169922;
1174676;-0.057617;0.019531;1.174805;
1174816;-0.055664;0.022461;1.173828;
1174956;-0.058594;0.020508;1.165039;
1175096;-0.054688;0.027344;1.170898;
1175236;-0.056641;0.023438;1.162109;
1175376;-0.057617;0.023438;1.156250;
1175516;-0.056641;0.022461;1.144531;
1175656;-0.058594;0.022461;1.141602;
1175796;-0.057617;0.022461;1.124023;
1175936;-0.059570;0.020508;1.118164;
1176076;-0.059570;0.018555;1.115234;
1176212;-0.062500;0.017578;1.110352;
1176361;-0.064453;0.011719;1.098633;
1176511;-0.063477;0.016602;1.105469;
1176652;-0.062500;0.013672;1.103516;
1176806;-0.059570;0.014648;1.103516;
1176946;-0.062500;0.016602;1.108398;
1177086;-0.059570;0.014648;1.111328;
1177226;-0.060547;0.019531;1.114258;
1177366;-0.060547;0.019531;1.121094;
1177506;-0.063477;0.023438;1.120117;
1177646;-0.061523;0.020508;1.129883;
1177786;-0.061523;0.023438;1.127930;
1177926;-0.060547;0.026367;1.129883;
1178066;-0.062500;0.031250;1.133789;
1178206;-0.061523;0.035156;1.127930;
1178356;-0.065430;0.033203;1.121094;
1178496;-0.064453;0.031250;1.125977;
1178636;-0.061523;0.029297;1.124023;
1178786;-0.063477;0.028320;1.125977;
1178922;-0.063477;0.021484;1.124023;
1179061;-0.062500;0.024414;1.114258;
1179212;-0.061523;0.026367;1.118164;
1179351;-0.064453;0.024414;1.116211;
1179501;-0.065430;0.026367;1.117188;
1179646;-0.064453;0.030273;1.123047;
1179786;-0.062500;0.028320;1.120117;
1179936;-0.061523;0.025391;1.130859;
1180076;-0.062500;0.020508;1.130859;
1180226;-0.062500;0.021484;1.144531;
1180366;-0.064453;0.024414;1.146484;
1180506;-0.059570;0.020508;1.168945;
1180656;-0.056641;0.021484;1.175781;
1180796;-0.060547;0.018555;1.180664;
1180936;-0.060547;0.019531;1.188477;
1181076;-0.060547;0.017578;1.196289;
1181216;-0.057617;0.022461;1.206055;
1181366;-0.056641;0.019531;1.204102;
1181506;-0.057617;0.021484;1.198242;
1181642;-0.059570;0.020508;1.188477;
1181781;-0.059570;0.016602;1.179688;
1181932;-0.057617;0.020508;1.171875;
1182081;-0.058594;0.021484;1.161133;
1182232;-0.062500;0.020508;1.153320;
1182376;-0.062500;0.017578;1.154297;
1182526;-0.059570;0.022461;1.165039;
1182666;-0.062500;0.017578;1.169922;
1182806;-0.061523;0.022461;1.190430;
1182946;-0.057617;0.021484;1.202148;
1183086;-0.058594;0.025391;1.213867;
1183226;-0.059570;0.024414;1.226562;
1183366;-0.056641;0.021484;1.227539;
1183506;-0.056641;0.025391;1.243164;
1183646;-0.058594;0.024414;1.249023;
1183796;-0.052734;0.027344;1.273438;
1183936;-0.053711;0.021484;1.279297;
1184076;-0.051758;0.021484;1.291016;
1184216;-0.049805;0.023438;1.297852;
1184356;-0.050781;0.020508;1.301758;
1184496;-0.050781;0.018555;1.304688;
1184631;-0.049805;0.019531;1.327148;
1184774;-0.049805;0.016602;1.333984;
1184921;-0.045898;0.014648;1.337891;
1185063;-0.045898;0.010742;1.346680;
1185201;-0.047852;0.013672;1.346680;
1185352;-0.044922;0.015625;1.345703;
1185506;-0.046875;0.015625;1.352539;
1185646;-0.046875;0.014648;1.338867;
1185786;-0.047852;0.019531;1.340820;
1185926;-0.046875;0.013672;1.330078;
1186066;-0.045898;0.024414;1.339844;
1186206;-0.049805;0.020508;1.330078;
1186346;-0.050781;0.022461;1.334961;
1186486;-0.050781;0.025391;1.331055;
1186626;-0.049805;0.025391;1.313477;
1186766;-0.049805;0.023438;1.298828;
1186906;-0.050781;0.023438;1.263672;
1187046;-0.052734;0.021484;1.254883;
1187186;-0.052734;0.022461;1.242188;
1187326;-0.054688;0.018555;1.226562;
1187462;-0.054688;0.016602;1.205078;
1187606;-0.056641;0.021484;1.209961;
1187736;-0.054688;0.021484;1.201172;
1187861;-0.054688;0.022461;1.188477;
1187992;-0.055664;0.023438;1.184570;
1188132;-0.056641;0.024414;1.180664;
1188272;-0.059570;0.023438;1.173828;
1188414;-0.055664;0.027344;1.175781;
1188562;-0.054688;0.025391;1.184570;
1188706;-0.054688;0.026367;1.185547;
1188856;-0.059570;0.024414;1.187500;
1188996;-0.053711;0.027344;1.188477;
1189136;-0.055664;0.023438;1.197266;
1189286;-0.057617;0.024414;1.188477;
1189426;-0.054688;0.021484;1.203125;
1189566;-0.052734;0.022461;1.202148;
1189716;-0.052734;0.024414;1.203125;
1189856;-0.055664;0.020508;1.208008;
1189996;-0.051758;0.019531;1.203125;
1190136;-0.049805;0.015625;1.208984;
1190276;-0.051758;0.019531;1.208984;
1190426;-0.051758;0.017578;1.213867;
1190566;-0.047852;0.014648;1.205078;
1190711;-0.041992;0.014648;1.210938;
1190862;-0.043945;0.018555;1.211914;
1191011;-0.038086;0.016602;1.217773;
1191152;-0.038086;0.011719;1.208008;
1191306;-0.034180;0.014648;1.208984;
1191446;-0.029297;0.015625;1.219727;
1191586;-0.025391;0.012695;1.200195;
1191736;-0.018555;0.018555;1.206055;
1191876;-0.012695;0.017578;1.217773;
1192016;-0.013672;0.017578;1.206055;
1192156;-0.004883;0.017578;1.207031;
1192296;-0.006836;0.015625;1.193359;
1192436;-0.006836;0.016602;1.175781;
1192576;-0.005859;0.018555;1.165039;
1192716;-0.007812;0.024414;1.130859;
1192856;-0.009766;0.024414;1.099609;
1192996;-0.015625;0.030273;1.053711;
1193146;-0.019531;0.034180;0.998047;
1193286;-0.020508;0.028320;0.959961;
1193432;-0.023438;0.031250;0.935547;
1193582;-0.025391;0.025391;0.903320;
1193731;-0.024414;0.029297;0.881836;
1193882;-0.025391;0.030273;0.874023;
1194011;-0.024414;0.022461;0.889648;
1194156;-0.023438;0.024414;0.894531;
1194296;-0.022461;0.024414;0.911133;
1194436;-0.024414;0.027344;0.904297;
1194576;-0.025391;0.022461;0.936523;
1194716;-0.022461;0.023438;0.947266;
1194856;-0.019531;0.022461;0.943359;
1194996;-0.021484;0.025391;0.948242;
1195136;-0.018555;0.023438;0.961914;
1195286;-0.017578;0.025391;0.958984;
1195426;-0.014648;0.021484;0.957031;
1195566;-0.013672;0.021484;0.955078;
1195716;-0.009766;0.017578;0.957031;
1195856;-0.000977;0.021484;0.955078;
1195996;0.002930;0.027344;0.952148;
1196132;0.005859;0.020508;0.955078;
1196281;0.011719;0.026367;0.961914;
1196436;0.007812;0.023438;0.944336;
1196571;0.011719;0.021484;0.958008;
1196712;0.011719;0.027344;0.954102;
1196843;0.017578;0.020508;0.949219;
1196992;0.014648;0.023438;0.963867;
1197131;0.016602;0.025391;0.955078;
1197281;0.016602;0.027344;0.948242;
1197436;0.016602;0.023438;0.934570;
1197576;0.017578;0.029297;0.942383;
1197716;0.017578;0.030273;0.949219;
1197866;0.018555;0.024414;0.926758;
1198006;0.016602;0.029297;0.916992;
1198146;0.016602;0.033203;0.923828;
1198296;0.017578;0.026367;0.900391;
1198436;0.019531;0.028320;0.904297;
1198576;0.021484;0.027344;0.881836;
1198716;0.022461;0.027344;0.882812;
1198856;0.019531;0.023438;0.868164;
1198996;0.022461;0.024414;0.860352;
1199136;0.022461;0.026367;0.866211;
1199276;0.024414;0.024414;0.869141;
1199422;0.027344;0.022461;0.882812;
1199561;0.032227;0.023438;0.891602;
1199696;0.036133;0.027344;0.899414;
1199822;0.040039;0.026367;0.920898;
1199973;0.051758;0.027344;0.937500;
1200121;0.054688;0.024414;0.949219;
1200272;0.058594;0.025391;0.963867;
1200426;0.063477;0.031250;0.994141;
1200576;0.068359;0.028320;1.000977;
1200726;0.068359;0.025391;1.011719;
1200866;0.076172;0.026367;1.029297;
1201006;0.075195;0.025391;1.036133;
1201146;0.077148;0.022461;1.040039;
1201286;0.075195;0.029297;1.044922;
1201426;0.073242;0.023438;1.037109;
1201566;0.076172;0.021484;1.035156;
1201706;0.075195;0.022461;1.044922;
1201846;0.069336;0.023438;1.017578;
1201986;0.068359;0.028320;1.018555;
1202126;0.071289;0.024414;0.997070;
1202276;0.066406;0.021484;0.988281;
1202415;0.070312;0.024414;0.982422;
1202561;0.067383;0.024414;0.979492;
1202711;0.063477;0.023438;0.985352;
1202851;0.064453;0.028320;0.985352;
1202996;0.064453;0.026367;1.002930;
1203133;0.064453;0.023438;0.995117;
1203282;0.065430;0.026367;0.999023;
1203431;0.066406;0.024414;0.996094;
1203572;0.065430;0.024414;1.001953;
1203726;0.066406;0.030273;1.017578;
1203862;0.065430;0.027344;1.007812;
1204016;0.065430;0.023438;1.018555;
1204156;0.062500;0.023438;1.012695;
1204296;0.067383;0.027344;1.013672;
1204431;0.067383;0.023438;1.021484;
1204576;0.065430;0.024414;1.005859;
1204716;0.065430;0.024414;1.019531;
1204866;0.064453;0.013672;1.004883;
1205002;0.064453;0.021484;1.013672;
1205156;0.064453;0.018555;1.007812;
1205296;0.065430;0.019531;0.999023;
1205436;0.063477;0.021484;1.008789;
1205576;0.063477;0.024414;1.009766;
1205711;0.064453;0.025391;1.017578;
1205863;0.060547;0.023438;1.001953;
1206011;0.061523;0.027344;1.001953;
1206163;0.058594;0.024414;1.002930;
1206321;0.059570;0.022461;0.998047;
1206471;0.056641;0.029297;1.005859;
1206611;0.054688;0.031250;1.000000;
1206751;0.056641;0.021484;1.000977;
1206902;0.058594;0.022461;1.010742;
1207056;0.053711;0.022461;1.013672;
1207196;0.055664;0.019531;1.012695;
1207336;0.054688;0.019531;1.020508;
1207471;0.053711;0.017578;1.028320;
1207616;0.051758;0.020508;1.045898;
1207766;0.051758;0.020508;1.062500;
1207906;0.050781;0.018555;1.075195;
1208042;0.051758;0.021484;1.103516;
1208196;0.050781;0.025391;1.099609;
1208336;0.052734;0.019531;1.097656;
1208486;0.052734;0.016602;1.087891;
1208626;0.051758;0.015625;1.079102;
1208766;0.050781;0.022461;1.068359;
1208906;0.050781;0.021484;1.045898;
1209042;0.048828;0.021484;1.039062;
1209182;0.044922;0.016602;1.020508;
1209326;0.044922;0.022461;1.010742;
1209462;0.045898;0.028320;1.009766;
1209611;0.045898;0.022461;1.012695;
1209762;0.043945;0.024414;1.000000;
1209911;0.041016;0.022461;0.992188;
1210056;0.041016;0.022461;1.006836;
1210196;0.042969;0.018555;1.006836;
1210332;0.041992;0.017578;1.000977;
1210476;0.037109;0.014648;1.004883;
1210626;0.038086;0.014648;1.010742;
1210766;0.038086;0.010742;1.007812;
1210912;0.037109;0.013672;1.026367;
1211066;0.034180;0.010742;1.025391;
1211206;0.032227;0.016602;1.023438;
1211346;0.029297;0.012695;1.035156;
1211486;0.026367;0.012695;1.031250;
1211626;0.024414;0.016602;1.028320;
1211766;0.026367;0.015625;1.028320;
1211906;0.024414;0.012695;1.037109;
1212041;0.020508;0.019531;1.042969;
1212181;0.017578;0.018555;1.040039;
1212332;0.017578;0.022461;1.045898;
1212481;0.016602;0.021484;1.037109;
1212633;0.017578;0.024414;1.047852;
1212786;0.013672;0.026367;1.039062;
1212926;0.013672;0.026367;1.048828;
1213066;0.013672;0.022461;1.031250;
1213206;0.016602;0.025391;1.042969;
1213346;0.015625;0.019531;1.023438;
1213482;0.017578;0.018555;1.031250;
1213626;0.020508;0.022461;1.034180;
1213776;0.017578;0.017578;1.035156;
1213916;0.018555;0.016602;1.049805;
1214056;0.018555;0.011719;1.061523;
1214196;0.023438;0.014648;1.094727;
1214336;0.021484;0.018555;1.113281;
1214476;0.025391;0.011719;1.130859;
1214616;0.024414;0.013672;1.172852;
1214751;0.024414;0.016602;1.183594;
