Time;acc_x;acc_y;acc_z;

361961;0.009766;0.029297;1.120117;
362186;0.005859;0.025391;1.119141;
362336;0.011719;0.027344;1.118164;
362476;0.008789;0.026367;1.116211;
362616;0.006836;0.027344;1.107422;
362756;0.009766;0.026367;1.105469;
362896;0.006836;0.030273;1.098633;
363036;0.006836;0.029297;1.070312;
363176;0.006836;0.027344;1.046875;
363316;0.002930;0.028320;1.032227;
363456;0.000977;0.023438;0.992188;
363596;0.001953;0.029297;0.988281;
363736;0.003906;0.027344;0.991211;
363876;0.004883;0.028320;0.978516;
364016;-0.000977;0.024414;0.984375;
364156;0.000977;0.032227;0.993164;
364296;-0.000977;0.023438;0.979492;
364436;0.000000;0.034180;0.994141;
364573;0.000977;0.026367;0.998047;
364723;0.001953;0.027344;1.018555;
364871;0.001953;0.028320;1.041016;
365036;0.006836;0.027344;1.064453;
365176;0.009766;0.028320;1.100586;
365316;0.004883;0.023438;1.102539;
365456;0.005859;0.030273;1.123047;
365596;0.010742;0.027344;1.145508;
365731;0.010742;0.023438;1.142578;
365886;0.010742;0.027344;1.142578;
366026;0.009766;0.025391;1.156250;
366166;0.010742;0.027344;1.152344;
366306;0.011719;0.028320;1.158203;
366446;0.008789;0.030273;1.156250;
366586;0.013672;0.026367;1.149414;
366726;0.008789;0.027344;1.138672;
366866;0.010742;0.029297;1.140625;
367006;0.009766;0.022461;1.135742;
367141;0.008789;0.024414;1.126953;
367291;0.010742;0.031250;1.126953;
367451;0.008789;0.031250;1.125977;
367582;0.008789;0.027344;1.125000;
367736;0.008789;0.026367;1.111328;
367876;0.007812;0.028320;1.126953;
368016;0.009766;0.029297;1.126953;
368156;0.009766;0.031250;1.117188;
368296;0.006836;0.029297;1.129883;
368436;0.013672;0.026367;1.126953;
368576;0.007812;0.030273;1.117188;
368716;0.008789;0.027344;1.125977;
368856;0.010742;0.031250;1.129883;
368996;0.006836;0.027344;1.125977;
369136;0.009766;0.029297;1.134766;
369276;0.008789;0.028320;1.137695;
369416;0.007812;0.024414;1.134766;
369566;0.009766;0.026367;1.124023;
369701;0.008789;0.029297;1.130859;
369842;0.010742;0.028320;1.125000;
369981;0.007812;0.024414;1.125000;
370131;0.008789;0.025391;1.129883;
370286;0.009766;0.031250;1.128906;
370436;0.010742;0.023438;1.121094;
370576;0.006836;0.026367;1.116211;
370716;0.013672;0.029297;1.115234;
370856;0.006836;0.025391;1.118164;
370996;0.005859;0.024414;1.103516;
371136;0.009766;0.023438;1.121094;
371276;0.007812;0.026367;1.108398;
371426;0.009766;0.024414;1.104492;
371576;0.005859;0.028320;1.101562;
371716;0.007812;0.030273;1.107422;
371856;0.008789;0.028320;1.089844;
371996;0.003906;0.027344;1.078125;
372136;0.008789;0.027344;1.086914;
372271;0.008789;0.027344;1.073242;
372421;0.004883;0.025391;1.048828;
372581;0.002930;0.031250;1.052734;
372731;0.006836;0.026367;1.042969;
372886;0.004883;0.028320;1.029297;
373026;0.002930;0.028320;1.020508;
373166;0.004883;0.030273;1.019531;
373306;0.002930;0.029297;1.014648;
373446;0.001953;0.032227;1.003906;
373586;0.002930;0.031250;1.010742;
373726;0.003906;0.028320;1.000977;
373866;0.002930;0.030273;0.998047;
374006;0.000000;0.024414;0.996094;
374146;0.000977;0.028320;1.001953;
374296;0.004883;0.024414;0.994141;
374436;0.001953;0.031250;1.003906;
374576;0.002930;0.026367;1.009766;
374726;0.004883;0.030273;1.022461;
374861;0.000000;0.034180;1.000977;
375011;0.003906;0.033203;1.014648;
375171;0.004883;0.027344;1.032227;
375326;0.003906;0.027344;1.051758;
375466;0.002930;0.033203;1.072266;
375606;0.008789;0.031250;1.103516;
375746;0.005859;0.028320;1.113281;
375886;0.009766;0.024414;1.136719;
376026;0.009766;0.027344;1.148438;
376166;0.006836;0.033203;1.156250;
376306;0.011719;0.033203;1.170898;
376446;0.011719;0.028320;1.168945;
376586;0.009766;0.024414;1.166016;
376726;0.012695;0.022461;1.159180;
376876;0.008789;0.026367;1.159180;
377026;0.008789;0.024414;1.164062;
377166;0.008789;0.028320;1.148438;
377301;0.008789;0.024414;1.133789;
377452;0.007812;0.025391;1.149414;
377612;0.011719;0.022461;1.149414;
377772;0.009766;0.027344;1.143555;
377931;0.011719;0.028320;1.148438;
378076;0.009766;0.025391;1.151367;
378216;0.007812;0.026367;1.149414;
378356;0.011719;0.026367;1.158203;
378496;0.007812;0.031250;1.156250;
378636;0.007812;0.029297;1.169922;
378776;0.010742;0.024414;1.152344;
378916;0.009766;0.023438;1.161133;
379071;0.008789;0.024414;1.154297;
379236;0.009766;0.027344;1.146484;
379376;0.005859;0.028320;1.132812;
379516;0.006836;0.027344;1.112305;
379661;0.005859;0.029297;1.118164;
379816;0.007812;0.029297;1.112305;
379966;0.006836;0.030273;1.091797;
380112;0.004883;0.024414;1.083984;
380271;0.005859;0.026367;1.087891;
380421;0.006836;0.026367;1.077148;
380572;0.005859;0.024414;1.077148;
380736;0.002930;0.024414;1.076172;
380876;0.006836;0.024414;1.082031;
381016;0.006836;0.029297;1.088867;
381156;0.003906;0.032227;1.083984;
381296;0.005859;0.031250;1.104492;
381446;0.008789;0.030273;1.103516;
381586;0.003906;0.024414;1.106445;
381726;0.005859;0.029297;1.116211;
381863;0.007812;0.025391;1.110352;
381996;0.003906;0.030273;1.103516;
382136;0.007812;0.027344;1.119141;
382276;0.007812;0.030273;1.121094;
382416;0.004883;0.027344;1.122070;
382551;0.006836;0.028320;1.134766;
382703;0.007812;0.029297;1.157227;
382861;0.009766;0.026367;1.152344;
383022;0.010742;0.023438;1.169922;
383182;0.009766;0.026367;1.193359;
383336;0.013672;0.028320;1.212891;
383476;0.012695;0.029297;1.221680;
383616;0.012695;0.031250;1.214844;
383756;0.013672;0.034180;1.215820;
383891;0.012695;0.033203;1.210938;
384036;0.011719;0.035156;1.185547;
384186;0.009766;0.036133;1.176758;
384326;0.011719;0.032227;1.169922;
384461;0.008789;0.037109;1.145508;
384606;0.007812;0.038086;1.127930;
384756;0.004883;0.033203;1.121094;
384896;0.005859;0.035156;1.105469;
385031;0.007812;0.035156;1.102539;
385186;0.004883;0.038086;1.087891;
385321;0.004883;0.030273;1.084961;
385471;0.006836;0.029297;1.090820;
385631;0.003906;0.027344;1.083984;
385791;0.006836;0.028320;1.095703;
385946;0.005859;0.028320;1.108398;
386086;0.005859;0.029297;1.106445;
386226;0.006836;0.031250;1.115234;
386361;0.010742;0.028320;1.132812;
386516;0.006836;0.030273;1.132812;
386656;0.007812;0.024414;1.126953;
386806;0.007812;0.023438;1.134766;
386941;0.009766;0.025391;1.144531;
387082;0.011719;0.024414;1.137695;
387226;0.005859;0.028320;1.144531;
387366;0.008789;0.026367;1.142578;
387506;0.010742;0.028320;1.141602;
387646;0.005859;0.027344;1.143555;
387786;0.008789;0.027344;1.133789;
387921;0.010742;0.027344;1.134766;
388071;0.007812;0.027344;1.115234;
388232;0.005859;0.027344;1.103516;
388402;0.007812;0.029297;1.087891;
388546;0.006836;0.030273;1.094727;
388686;0.004883;0.029297;1.083008;
388826;0.004883;0.032227;1.086914;
388966;0.005859;0.035156;1.090820;
389102;0.002930;0.030273;1.085938;
389256;0.005859;0.035156;1.083984;
389406;0.001953;0.034180;1.079102;
389546;0.004883;0.030273;1.081055;
389681;0.004883;0.030273;1.069336;
389831;0.003906;0.027344;1.061523;
389966;0.004883;0.025391;1.049805;
390116;0.003906;0.027344;1.039062;
390256;-0.000977;0.025391;1.023438;
390391;0.003906;0.025391;1.014648;
390551;0.003906;0.027344;1.004883;
390713;-0.001953;0.023438;0.988281;
390871;-0.000977;0.028320;0.993164;
391021;0.000000;0.027344;0.977539;
391151;0.002930;0.027344;0.981445;
391306;-0.000977;0.023438;0.972656;
391446;-0.001953;0.027344;0.979492;
391586;0.000977;0.022461;0.986328;
391726;0.000977;0.025391;0.977539;
391866;-0.001953;0.023438;0.987305;
392006;0.001953;0.021484;0.997070;
392146;0.001953;0.016602;0.996094;
392286;0.001953;0.018555;1.015625;
392421;0.002930;0.018555;1.025391;
392586;0.001953;0.016602;1.024414;
392726;0.000000;0.015625;1.021484;
392866;0.002930;0.013672;1.030273;
393011;0.002930;0.017578;1.036133;
393163;0.001953;0.012695;1.034180;
393311;0.002930;0.011719;1.041016;
393446;0.001953;0.010742;1.032227;
393586;0.003906;0.015625;1.037109;
393711;0.001953;0.010742;1.031250;
393853;0.001953;0.015625;1.035156;
394011;0.003906;0.020508;1.029297;
394172;0.001953;0.016602;1.024414;
394316;0.000977;0.019531;1.013672;
394456;0.001953;0.021484;1.021484;
394591;0.001953;0.019531;1.015625;
394746;0.000977;0.021484;1.012695;
394886;0.000977;0.025391;1.025391;
395036;0.000977;0.022461;1.029297;
395171;0.000977;0.025391;1.042969;
395326;0.001953;0.025391;1.060547;
395466;0.006836;0.021484;1.077148;
395606;0.003906;0.021484;1.086914;
395741;0.005859;0.023438;1.092773;
395896;0.004883;0.026367;1.108398;
396036;0.006836;0.021484;1.098633;
396176;0.007812;0.016602;1.097656;
396314;0.005859;0.020508;1.098633;
396471;0.005859;0.016602;1.096680;
396622;0.007812;0.018555;1.082031;
396781;0.001953;0.021484;1.079102;
396941;0.001953;0.017578;1.074219;
397092;0.004883;0.019531;1.068359;
397256;0.008789;0.015625;1.055664;
397396;0.000977;0.020508;1.043945;
397546;0.003906;0.020508;1.043945;
397681;0.001953;0.020508;1.028320;
397836;0.003906;0.020508;1.032227;
397976;0.001953;0.017578;1.029297;
398116;0.000977;0.015625;1.024414;
398256;0.000000;0.016602;1.005859;
398391;0.000977;0.011719;1.000977;
398546;-0.000977;0.011719;0.996094;
398686;0.000000;0.013672;0.978516;
398826;0.000000;0.009766;0.965820;
398961;-0.003906;0.013672;0.969727;
399112;0.000000;0.015625;0.977539;
399271;-0.001953;0.015625;0.988281;
399423;0.001953;0.019531;1.000000;
399571;0.001953;0.020508;1.023438;
399711;0.001953;0.022461;1.044922;
399856;0.004883;0.027344;1.045898;
399992;0.000977;0.020508;1.057617;
400146;0.003906;0.027344;1.066406;
400286;0.002930;0.025391;1.076172;
400426;0.000977;0.025391;1.075195;
400577;0.000000;0.028320;1.074219;
400736;0.004883;0.031250;1.079102;
400876;0.003906;0.024414;1.067383;
401016;0.004883;0.024414;1.065430;
401166;-0.001953;0.023438;1.036133;
401301;0.004883;0.026367;1.036133;
401446;0.002930;0.019531;1.016602;
401586;0.000000;0.022461;1.000977;
401726;-0.001953;0.018555;0.992188;
401861;0.000000;0.021484;0.981445;
402002;-0.001953;0.020508;0.972656;
402152;0.001953;0.022461;0.981445;
402296;-0.002930;0.020508;0.963867;
402431;-0.001953;0.020508;0.964844;
402572;-0.003906;0.024414;0.960938;
402731;-0.001953;0.020508;0.976562;
402891;-0.000977;0.022461;0.988281;
403056;0.000000;0.020508;0.992188;
403196;0.000000;0.024414;1.018555;
403346;0.000977;0.020508;1.031250;
403487;0.001953;0.021484;1.039062;
403646;0.003906;0.023438;1.059570;
403786;0.002930;0.019531;1.081055;
403926;0.002930;0.024414;1.075195;
404066;0.003906;0.024414;1.068359;
404201;0.001953;0.025391;1.065430;
404356;0.001953;0.025391;1.053711;
404506;0.000977;0.026367;1.046875;
404646;0.000977;0.025391;1.039062;
404781;0.002930;0.022461;1.021484;
404936;0.001953;0.023438;1.001953;
405071;0.000977;0.022461;1.004883;
405202;-0.001953;0.025391;0.994141;
405332;-0.000977;0.025391;0.992188;
405481;-0.000977;0.020508;0.977539;
405641;-0.001953;0.026367;0.981445;
405791;-0.001953;0.023438;0.976562;
405946;-0.002930;0.021484;0.979492;
406086;0.000000;0.023438;0.975586;
406226;0.000000;0.025391;0.984375;
406371;0.000000;0.017578;0.978516;
406516;0.000000;0.019531;0.982422;
406666;-0.002930;0.022461;0.985352;
406806;-0.001953;0.024414;0.985352;
406946;-0.000977;0.025391;0.990234;
407086;0.000000;0.024414;0.980469;
407226;0.000000;0.025391;1.000977;
407366;-0.002930;0.022461;0.986328;
407506;0.000977;0.023438;0.994141;
407642;-0.001953;0.024414;1.012695;
407781;-0.002930;0.028320;1.005859;
407932;0.000977;0.023438;1.002930;
408081;-0.000977;0.026367;1.014648;
408231;0.002930;0.027344;1.020508;
408386;0.000977;0.028320;1.016602;
408526;0.000977;0.027344;1.035156;
408666;0.000977;0.024414;1.040039;
408806;0.001953;0.022461;1.033203;
408946;0.000977;0.025391;1.040039;
409086;0.000977;0.023438;1.041016;
409226;0.000000;0.021484;1.036133;
409366;0.000977;0.019531;1.030273;
409516;0.004883;0.024414;1.026367;
409656;0.003906;0.024414;1.028320;
409796;0.001953;0.024414;1.013672;
409946;-0.000977;0.023438;1.018555;
410086;0.003906;0.027344;1.024414;
410226;0.003906;0.024414;1.037109;
410351;-0.001953;0.025391;1.037109;
410501;0.001953;0.025391;1.052734;
410652;0.001953;0.023438;1.055664;
410801;0.001953;0.022461;1.054688;
410956;0.000977;0.029297;1.056641;
411096;0.002930;0.027344;1.065430;
411236;0.000977;0.023438;1.055664;
411376;0.002930;0.031250;1.059570;
411516;0.002930;0.030273;1.063477;
411656;0.001953;0.024414;1.064453;
411796;0.000977;0.025391;1.075195;
411936;0.003906;0.027344;1.081055;
412076;0.000977;0.024414;1.082031;
412216;0.003906;0.025391;1.085938;
412356;0.005859;0.020508;1.090820;
412496;0.005859;0.029297;1.089844;
412636;0.003906;0.022461;1.075195;
412776;0.003906;0.025391;1.062500;
412921;0.002930;0.026367;1.049805;
413072;0.001953;0.027344;1.026367;
413222;-0.001953;0.031250;1.005859;
413371;-0.001953;0.028320;0.996094;
413526;0.000000;0.035156;1.001953;
413666;-0.002930;0.030273;0.979492;
413806;-0.002930;0.030273;0.970703;
413946;0.000000;0.028320;0.974609;
414086;-0.002930;0.032227;0.966797;
414236;-0.003906;0.026367;0.969727;
414376;-0.001953;0.026367;0.970703;
414516;-0.001953;0.027344;0.978516;
414656;-0.000977;0.019531;0.985352;
414796;-0.000977;0.022461;0.987305;
414936;0.002930;0.014648;1.000000;
415076;0.001953;0.018555;1.000000;
415216;0.000000;0.016602;1.006836;
415356;0.001953;0.017578;1.022461;
415491;0.004883;0.018555;1.019531;
415641;-0.000977;0.020508;1.005859;
415791;0.000977;0.018555;1.010742;
415941;0.000977;0.025391;1.019531;
416086;0.000000;0.026367;1.020508;
416226;0.000977;0.023438;1.023438;
416366;0.000000;0.027344;1.039062;
416506;0.001953;0.029297;1.057617;
416646;0.000977;0.026367;1.058594;
416786;0.001953;0.023438;1.065430;
416926;0.004883;0.024414;1.076172;
417066;0.000000;0.025391;1.080078;
417206;0.000000;0.027344;1.104492;
417346;0.006836;0.025391;1.114258;
417486;0.006836;0.025391;1.116211;
417626;0.002930;0.026367;1.112305;
417776;0.005859;0.018555;1.105469;
417916;0.003906;0.017578;1.071289;
418051;-0.000977;0.018555;1.071289;
418201;0.002930;0.013672;1.044922;
418356;0.001953;0.016602;1.048828;
418481;0.000977;0.018555;1.030273;
418621;0.000977;0.017578;1.035156;
418761;-0.000977;0.016602;1.034180;
418906;0.001953;0.014648;1.026367;
419046;0.002930;0.016602;1.039062;
419186;0.000977;0.019531;1.051758;
419336;0.004883;0.017578;1.055664;
419476;0.000000;0.014648;1.058594;
419616;0.001953;0.019531;1.084961;
419766;0.005859;0.020508;1.098633;
419906;0.004883;0.022461;1.101562;
420046;0.004883;0.023438;1.105469;
420186;0.006836;0.024414;1.118164;
420326;0.001953;0.029297;1.098633;
420466;0.002930;0.027344;1.095703;
420606;0.004883;0.023438;1.097656;
420746;0.003906;0.024414;1.078125;
420892;0.000000;0.020508;1.053711;
421046;-0.000977;0.022461;1.041016;
421181;-0.000977;0.017578;1.033203;
421316;-0.000977;0.021484;1.036133;
421451;-0.001953;0.017578;1.020508;
421611;-0.000977;0.020508;1.012695;
421776;0.000977;0.020508;1.011719;
421916;-0.001953;0.021484;0.993164;
422056;-0.002930;0.020508;1.006836;
422196;0.001953;0.019531;1.001953;
422336;0.000000;0.018555;1.000977;
422476;-0.004883;0.018555;0.991211;
422616;0.000977;0.021484;1.000000;
422756;-0.002930;0.018555;1.005859;
422906;-0.003906;0.028320;1.006836;
423046;-0.000977;0.023438;1.011719;
423186;-0.001953;0.025391;1.014648;
423326;0.001953;0.024414;1.016602;
423466;-0.001953;0.023438;1.025391;
423606;0.000977;0.021484;1.038086;
423751;0.003906;0.019531;1.033203;
423902;-0.001953;0.018555;1.027344;
424051;-0.002930;0.023438;1.031250;
424201;0.002930;0.019531;1.037109;
424366;-0.000977;0.016602;1.019531;
424506;-0.002930;0.020508;1.018555;
424646;-0.001953;0.019531;1.012695;
424786;0.000977;0.018555;1.022461;
424926;-0.001953;0.021484;1.007812;
425066;0.000000;0.021484;0.999023;
425206;0.000977;0.019531;1.010742;
425346;-0.002930;0.023438;0.997070;
425486;-0.000977;0.022461;0.989258;
425626;-0.002930;0.021484;0.995117;
425776;0.000000;0.020508;0.991211;
425926;-0.000977;0.020508;0.992188;
426066;-0.004883;0.023438;1.000977;
426206;-0.000977;0.024414;1.002930;
426343;-0.001953;0.023438;1.000977;
426491;-0.002930;0.023438;1.000977;
426651;0.000000;0.022461;1.013672;
426811;0.001953;0.023438;1.015625;
426966;-0.004883;0.020508;1.002930;
427106;-0.002930;0.020508;0.995117;
427256;-0.002930;0.018555;1.007812;
427396;-0.002930;0.020508;0.996094;
427536;-0.000977;0.019531;1.003906;
427676;0.000977;0.024414;1.007812;
427816;0.000000;0.019531;1.019531;
427956;-0.000977;0.018555;1.011719;
428096;-0.000977;0.019531;1.031250;
428236;0.000000;0.020508;1.033203;
428376;-0.001953;0.021484;1.027344;
428516;0.000977;0.021484;1.032227;
428656;0.000000;0.023438;1.026367;
428796;0.000000;0.018555;1.018555;
428932;0.000000;0.024414;1.012695;
429081;-0.001953;0.019531;1.010742;
429231;-0.000977;0.020508;1.001953;
429366;-0.002930;0.019531;0.990234;
429511;-0.001953;0.023438;1.001953;
429656;-0.002930;0.021484;0.994141;
429796;-0.003906;0.026367;0.974609;
429946;-0.002930;0.025391;0.972656;
430086;-0.004883;0.026367;0.987305;
430226;-0.003906;0.027344;0.982422;
430366;-0.001953;0.027344;0.989258;
430506;-0.000977;0.026367;1.012695;
430646;-0.001953;0.022461;1.027344;
430786;0.000000;0.021484;1.033203;
430926;0.002930;0.019531;1.058594;
431066;0.000977;0.015625;1.071289;
431206;-0.000977;0.017578;1.068359;
431346;0.001953;0.018555;1.071289;
431486;0.001953;0.014648;1.080078;
431621;0.003906;0.016602;1.083984;
431761;0.000000;0.014648;1.068359;
431901;0.000977;0.016602;1.070312;
432051;0.003906;0.020508;1.061523;
432202;-0.001953;0.014648;1.041992;
432356;-0.000977;0.016602;1.042969;
432496;-0.000977;0.018555;1.035156;
432636;-0.000977;0.020508;1.033203;
432776;-0.006836;0.023438;1.009766;
432926;-0.000977;0.023438;1.030273;
433066;0.000977;0.023438;1.033203;
433206;-0.001953;0.017578;1.027344;
433346;0.000000;0.029297;1.042969;
433486;0.002930;0.026367;1.050781;
433626;0.001953;0.023438;1.045898;
433766;-0.003906;0.024414;1.039062;
433906;-0.000977;0.024414;1.054688;
434046;0.003906;0.017578;1.051758;
434186;-0.000977;0.020508;1.055664;
434322;0.000000;0.020508;1.058594;
434462;0.000000;0.018555;1.057617;
434612;-0.002930;0.016602;1.051758;
434751;0.001953;0.017578;1.054688;
434901;-0.000977;0.019531;1.056641;
435056;-0.000977;0.021484;1.060547;
435206;0.000977;0.015625;1.052734;
435346;-0.002930;0.018555;1.045898;
435486;0.000977;0.019531;1.060547;
435636;0.000977;0.021484;1.049805;
435776;-0.001953;0.024414;1.054688;
435916;0.001953;0.021484;1.062500;
436066;0.001953;0.020508;1.057617;
436206;-0.003906;0.020508;1.044922;
436346;0.001953;0.023438;1.063477;
436486;0.002930;0.028320;1.051758;
436626;-0.001953;0.023438;1.037109;
436766;0.000000;0.023438;1.028320;
436906;0.000000;0.020508;1.021484;
437042;-0.003906;0.023438;0.998047;
437181;-0.002930;0.024414;0.997070;
437331;-0.005859;0.021484;0.984375;
437476;-0.002930;0.022461;0.974609;
437621;-0.005859;0.019531;0.952148;
437771;-0.006836;0.021484;0.939453;
437926;-0.006836;0.022461;0.932617;
438066;-0.003906;0.021484;0.924805;
438216;-0.006836;0.019531;0.922852;
438356;-0.007812;0.015625;0.923828;
438496;-0.005859;0.020508;0.938477;
438636;-0.008789;0.017578;0.940430;
438776;-0.006836;0.021484;0.945312;
438916;-0.001953;0.021484;0.963867;
439056;-0.003906;0.020508;0.985352;
439196;-0.004883;0.020508;1.003906;
439336;-0.000977;0.023438;1.020508;
439476;-0.001953;0.021484;1.029297;
439616;0.000000;0.020508;1.042969;
439766;-0.000977;0.024414;1.048828;
439902;-0.000977;0.021484;1.058594;
440051;-0.000977;0.021484;1.048828;
440202;-0.001953;0.023438;1.056641;
440351;-0.000977;0.021484;1.052734;
440506;0.001953;0.026367;1.049805;
440646;-0.000977;0.023438;1.035156;
440786;-0.002930;0.022461;1.041016;
440926;0.000977;0.022461;1.051758;
441066;-0.000977;0.020508;1.048828;
441206;-0.004883;0.018555;1.050781;
441356;0.001953;0.018555;1.068359;
441496;0.001953;0.018555;1.080078;
441636;0.001953;0.020508;1.076172;
441776;0.003906;0.014648;1.075195;
441916;0.000000;0.019531;1.089844;
442066;0.001953;0.018555;1.070312;
442206;-0.001953;0.017578;1.070312;
442346;-0.003906;0.015625;1.078125;
442481;-0.004883;0.016602;1.073242;
442631;-0.005859;0.017578;1.068359;
442781;-0.008789;0.025391;1.062500;
442921;-0.006836;0.026367;1.071289;
443071;-0.010742;0.026367;1.074219;
443216;-0.011719;0.024414;1.084961;
443356;-0.007812;0.027344;1.088867;
443496;-0.009766;0.031250;1.084961;
443636;-0.012695;0.023438;1.078125;
443776;-0.010742;0.027344;1.080078;
443916;-0.010742;0.026367;1.087891;
444056;-0.007812;0.022461;1.093750;
444196;-0.004883;0.024414;1.091797;
444336;-0.006836;0.020508;1.104492;
444476;-0.004883;0.020508;1.102539;
444616;-0.009766;0.020508;1.092773;
444756;-0.009766;0.016602;1.085938;
444896;-0.006836;0.025391;1.092773;
445036;-0.006836;0.022461;1.102539;
445172;-0.004883;0.016602;1.099609;
445500;-0.007812;0.021484;1.071289;
445671;-0.005859;0.022461;1.064453;
445816;-0.009766;0.025391;1.057617;
445951;-0.012695;0.017578;1.043945;
446106;-0.008789;0.021484;1.045898;
446256;-0.010742;0.019531;1.046875;
446396;-0.010742;0.023438;1.040039;
446536;-0.008789;0.021484;1.034180;
446676;-0.009766;0.024414;1.038086;
446816;-0.012695;0.025391;1.007812;
446956;-0.013672;0.022461;0.988281;
447096;-0.012695;0.025391;0.964844;
447236;-0.013672;0.024414;0.941406;
447376;-0.013672;0.024414;0.929688;
447516;-0.018555;0.023438;0.913086;
447656;-0.015625;0.028320;0.916016;
447806;-0.011719;0.024414;0.921875;
447946;-0.013672;0.025391;0.941406;
448086;-0.013672;0.018555;0.948242;
448233;-0.016602;0.021484;0.950195;
448382;-0.013672;0.024414;0.958984;
448521;-0.013672;0.022461;0.971680;
448671;-0.012695;0.025391;0.980469;
448822;-0.009766;0.019531;0.990234;
448976;-0.010742;0.021484;0.988281;
449126;-0.014648;0.020508;0.987305;
449266;-0.011719;0.020508;0.988281;
449406;-0.012695;0.016602;0.970703;
449546;-0.012695;0.017578;0.983398;
449686;-0.011719;0.015625;0.990234;
449826;-0.010742;0.018555;1.010742;
449966;-0.009766;0.023438;1.037109;
450106;-0.008789;0.018555;1.039062;
450246;-0.005859;0.017578;1.037109;
450386;-0.010742;0.017578;1.040039;
450526;-0.007812;0.022461;1.042969;
450666;-0.007812;0.022461;1.050781;
450806;-0.006836;0.021484;1.057617;
450946;-0.008789;0.022461;1.060547;
451081;-0.010742;0.023438;1.055664;
451221;-0.008789;0.024414;1.061523;
451383;-0.009766;0.025391;1.057617;
451532;-0.009766;0.021484;1.052734;
451681;-0.009766;0.021484;1.051758;
451836;-0.008789;0.020508;1.036133;
451976;-0.007812;0.021484;1.028320;
452116;-0.007812;0.024414;1.021484;
452256;-0.009766;0.021484;1.008789;
452396;-0.012695;0.022461;0.993164;
452536;-0.011719;0.022461;1.005859;
452676;-0.010742;0.022461;1.010742;
452816;-0.009766;0.020508;1.016602;
452956;-0.008789;0.021484;1.007812;
453096;-0.010742;0.022461;1.009766;
453236;-0.008789;0.023438;1.030273;
453376;-0.011719;0.022461;1.022461;
453516;-0.006836;0.027344;1.041016;
453656;-0.009766;0.024414;1.036133;
453791;-0.009766;0.021484;1.026367;
453941;-0.011719;0.019531;1.021484;
454092;-0.010742;0.019531;1.022461;
454242;-0.014648;0.019531;1.023438;
454406;-0.010742;0.021484;1.017578;
454546;-0.008789;0.018555;1.023438;
454686;-0.009766;0.019531;1.030273;
454826;-0.007812;0.019531;1.023438;
454966;-0.008789;0.017578;1.022461;
455106;-0.012695;0.019531;1.026367;
455246;-0.010742;0.020508;1.026367;
455386;-0.008789;0.023438;1.048828;
455526;-0.008789;0.021484;1.060547;
455676;-0.007812;0.024414;1.056641;
455816;-0.007812;0.018555;1.057617;
455956;-0.009766;0.018555;1.051758;
456096;-0.005859;0.019531;1.049805;
456236;-0.002930;0.023438;1.062500;
456372;-0.005859;0.020508;1.057617;
456521;-0.006836;0.019531;1.054688;
456671;-0.006836;0.021484;1.046875;
456821;-0.008789;0.023438;1.041016;
456976;-0.008789;0.024414;1.039062;
457116;-0.012695;0.020508;1.030273;
457266;-0.012695;0.019531;1.022461;
457406;-0.006836;0.026367;1.022461;
457546;-0.006836;0.024414;1.035156;
457686;-0.009766;0.021484;1.023438;
457826;-0.008789;0.021484;1.022461;
457976;-0.010742;0.018555;1.026367;
458116;-0.011719;0.020508;1.029297;
458256;-0.009766;0.015625;1.023438;
458406;-0.007812;0.021484;1.029297;
458546;-0.007812;0.019531;1.041992;
458686;-0.007812;0.023438;1.034180;
458826;-0.011719;0.021484;1.021484;
458961;-0.007812;0.024414;1.031250;
459111;-0.008789;0.021484;1.034180;
459261;-0.008789;0.019531;1.044922;
459412;-0.009766;0.020508;1.046875;
459551;-0.007812;0.025391;1.059570;
459706;-0.008789;0.024414;1.067383;
459846;-0.007812;0.016602;1.062500;
459986;-0.007812;0.018555;1.073242;
460126;-0.005859;0.023438;1.087891;
460266;-0.005859;0.018555;1.105469;
460406;-0.004883;0.023438;1.109375;
460546;-0.004883;0.021484;1.101562;
460686;-0.007812;0.024414;1.096680;
460836;-0.007812;0.016602;1.093750;
460976;-0.006836;0.022461;1.088867;
461116;-0.005859;0.021484;1.081055;
461256;-0.008789;0.020508;1.079102;
461396;-0.005859;0.018555;1.071289;
461536;-0.003906;0.020508;1.055664;
461681;-0.007812;0.015625;1.040039;
461831;-0.008789;0.020508;1.037109;
461981;-0.008789;0.018555;1.031250;
462111;-0.006836;0.019531;1.022461;
462266;-0.006836;0.021484;1.017578;
462416;-0.008789;0.019531;0.997070;
462556;-0.009766;0.017578;0.987305;
462696;-0.010742;0.022461;0.992188;
462836;-0.013672;0.020508;0.970703;
462976;-0.010742;0.024414;0.977539;
463116;-0.010742;0.024414;0.988281;
463256;-0.008789;0.023438;0.986328;
463396;-0.009766;0.021484;0.982422;
463546;-0.010742;0.026367;0.984375;
463686;-0.009766;0.023438;0.988281;
463826;-0.012695;0.022461;0.975586;
463976;-0.007812;0.023438;0.996094;
464116;-0.005859;0.022461;0.990234;
464257;-0.005859;0.018555;0.986328;
464401;-0.006836;0.021484;0.992188;
464561;-0.003906;0.023438;1.000977;
464711;-0.003906;0.022461;1.003906;
464862;0.004883;0.019531;1.019531;
465006;0.002930;0.023438;1.014648;
465146;0.006836;0.017578;1.016602;
465286;0.010742;0.019531;1.025391;
465426;0.011719;0.020508;1.042969;
465576;0.010742;0.013672;1.042969;
465716;0.014648;0.019531;1.049805;
465856;0.015625;0.020508;1.061523;
466006;0.016602;0.019531;1.062500;
466146;0.019531;0.014648;1.048828;
466286;0.020508;0.019531;1.062500;
466426;0.027344;0.022461;1.064453;
466566;0.032227;0.020508;1.065430;
466706;0.037109;0.022461;1.056641;
466846;0.039062;0.022461;1.056641;
466991;0.041992;0.023438;1.058594;
467141;0.045898;0.023438;1.069336;
467281;0.046875;0.021484;1.067383;
467432;0.044922;0.027344;1.040039;
467572;0.050781;0.022461;1.022461;
467716;0.048828;0.021484;0.985352;
467856;0.047852;0.023438;0.968750;
467996;0.052734;0.021484;0.956055;
468136;0.055664;0.021484;0.950195;
468276;0.058594;0.021484;0.945312;
468426;0.062500;0.024414;0.951172;
468566;0.064453;0.020508;0.956055;
468706;0.068359;0.023438;0.960938;
468846;0.075195;0.022461;0.986328;
468986;0.083008;0.023438;1.009766;
469126;0.085938;0.019531;1.027344;
469276;0.091797;0.023438;1.041992;
469416;0.098633;0.021484;1.058594;
469556;0.098633;0.021484;1.071289;
469701;0.097656;0.017578;1.070312;
469841;0.099609;0.015625;1.060547;
469981;0.099609;0.020508;1.067383;
470131;0.100586;0.020508;1.041992;
470281;0.099609;0.015625;1.036133;
470431;0.094727;0.018555;1.024414;
470586;0.095703;0.022461;1.005859;
470726;0.098633;0.015625;1.001953;
470866;0.091797;0.014648;1.000977;
471006;0.092773;0.025391;1.017578;
471146;0.093750;0.023438;1.019531;
471286;0.092773;0.022461;0.995117;
471426;0.097656;0.027344;1.024414;
471566;0.093750;0.026367;1.006836;
471706;0.098633;0.023438;1.028320;
471846;0.095703;0.020508;1.030273;
471986;0.094727;0.022461;1.037109;
472126;0.094727;0.014648;1.042969;
472266;0.095703;0.023438;1.062500;
472406;0.097656;0.020508;1.050781;
472541;0.095703;0.017578;1.059570;
472691;0.096680;0.015625;1.064453;
472842;0.096680;0.016602;1.057617;
472991;0.096680;0.018555;1.050781;
473146;0.093750;0.016602;1.054688;
473286;0.094727;0.023438;1.041016;
473426;0.091797;0.017578;1.029297;
473566;0.088867;0.017578;1.026367;
473706;0.088867;0.020508;1.022461;
473846;0.086914;0.022461;1.013672;
473986;0.093750;0.018555;1.011719;
474126;0.092773;0.025391;1.014648;
474266;0.088867;0.023438;1.029297;
474406;0.092773;0.023438;1.024414;
474546;0.089844;0.020508;1.038086;
474686;0.090820;0.023438;1.042969;
474836;0.092773;0.022461;1.047852;
474976;0.088867;0.019531;1.042969;
475112;0.088867;0.020508;1.048828;
475266;0.089844;0.020508;1.052734;
475406;0.086914;0.016602;1.064453;
475551;0.090820;0.017578;1.046875;
475701;0.088867;0.026367;1.051758;
475852;0.087891;0.023438;1.047852;
476003;0.087891;0.023438;1.032227;
476156;0.086914;0.022461;1.041992;
476296;0.088867;0.020508;1.023438;
476436;0.087891;0.020508;1.014648;
476576;0.090820;0.022461;1.006836;
476716;0.085938;0.018555;1.002930;
476856;0.083008;0.014648;0.988281;
476996;0.084961;0.016602;0.998047;
477136;0.082031;0.020508;0.985352;
477276;0.083008;0.023438;0.988281;
477416;0.085938;0.026367;0.987305;
477556;0.084961;0.027344;0.994141;
477696;0.085938;0.015625;0.981445;
477836;0.083984;0.022461;0.977539;
477976;0.084961;0.022461;0.980469;
478111;0.083984;0.012695;0.984375;
478261;0.081055;0.022461;0.996094;
478421;0.085938;0.019531;0.999023;
478571;0.086914;0.019531;0.997070;
478701;0.085938;0.016602;1.017578;
478846;0.084961;0.023438;0.995117;
478986;0.085938;0.022461;1.000977;
479126;0.080078;0.020508;0.974609;
479266;0.084961;0.022461;0.969727;
479406;0.083008;0.019531;0.965820;
479556;0.081055;0.019531;0.958984;
479696;0.080078;0.022461;0.941406;
479836;0.079102;0.015625;0.952148;
479976;0.076172;0.017578;0.958984;
480116;0.080078;0.027344;0.977539;
480256;0.078125;0.026367;0.980469;
480396;0.081055;0.023438;0.968750;
480536;0.083008;0.018555;0.978516;
480686;0.080078;0.023438;0.981445;
480821;0.079102;0.021484;0.992188;
480972;0.079102;0.015625;0.984375;
481121;0.081055;0.015625;0.999023;
481271;0.079102;0.019531;0.994141;
481402;0.080078;0.023438;1.010742;
481556;0.079102;0.020508;1.001953;
481696;0.080078;0.017578;0.999023;
481836;0.081055;0.019531;1.017578;
481976;0.081055;0.019531;0.997070;
482116;0.083984;0.013672;1.015625;
482256;0.076172;0.023438;1.011719;
482396;0.077148;0.016602;1.014648;
482546;0.082031;0.020508;1.022461;
482686;0.076172;0.025391;1.035156;
482826;0.080078;0.024414;1.032227;
482976;0.083984;0.020508;1.041016;
483116;0.081055;0.022461;1.069336;
483256;0.079102;0.025391;1.083008;
483396;0.079102;0.020508;1.110352;
483531;0.082031;0.026367;1.126953;
483681;0.082031;0.022461;1.178711;
483836;0.084961;0.019531;1.237305;
483961;0.085938;0.019531;1.277344;
484112;0.089844;0.023438;1.349609;
484261;0.092773;0.018555;1.399414;
484416;0.099609;0.014648;1.476562;
484566;0.102539;0.013672;1.518555;
484706;0.106445;0.013672;1.592773;
484846;0.111328;0.018555;1.637695;
484986;0.113281;0.011719;1.690430;
485126;0.115234;0.012695;1.729492;
485266;0.121094;0.015625;1.764648;
485406;0.119141;0.013672;1.778320;
485546;0.119141;0.014648;1.810547;
485686;0.124023;0.012695;1.810547;
485826;0.125000;0.012695;1.841797;
485966;0.122070;0.014648;1.842773;
486106;0.124023;0.012695;1.840820;
486246;0.123047;0.019531;1.851562;
486381;0.123047;0.009766;1.851562;
486533;0.125000;0.015625;1.848633;
486681;0.125000;0.019531;1.849609;
486831;0.124023;0.017578;1.857422;
486961;0.125977;0.016602;1.858398;
487116;0.124023;0.012695;1.864258;
487256;0.123047;0.014648;1.867188;
487396;0.123047;0.014648;1.866211;
487536;0.125977;0.013672;1.869141;
487686;0.126953;0.009766;1.865234;
487826;0.126953;0.012695;1.862305;
487966;0.130859;0.012695;1.865234;
488106;0.124023;0.011719;1.868164;
488246;0.127930;0.015625;1.854492;
488386;0.127930;0.011719;1.873047;
488526;0.130859;0.012695;1.868164;
488676;0.126953;0.009766;1.856445;
488816;0.130859;0.015625;1.857422;
488956;0.130859;0.010742;1.863281;
489091;0.129883;0.007812;1.851562;
489246;0.131836;0.009766;1.854492;
489393;0.131836;0.004883;1.861328;
489542;0.131836;0.004883;1.855469;
489676;0.131836;0.005859;1.845703;
489811;0.133789;0.006836;1.854492;
489966;0.136719;0.005859;1.846680;
490106;0.131836;0.006836;1.854492;
490246;0.133789;0.006836;1.855469;
490386;0.132812;0.004883;1.838867;
490536;0.134766;0.006836;1.843750;
490676;0.131836;0.008789;1.846680;
490816;0.133789;0.007812;1.844727;
490956;0.136719;0.009766;1.848633;
491096;0.133789;0.009766;1.855469;
491236;0.136719;0.012695;1.837891;
491376;0.133789;0.009766;1.840820;
491516;0.136719;0.009766;1.851562;
491656;0.136719;0.008789;1.844727;
491796;0.134766;0.011719;1.848633;
491931;0.141602;0.008789;1.847656;
492073;0.139648;0.005859;1.845703;
492211;0.143555;0.011719;1.852539;
492351;0.144531;0.011719;1.836914;
492501;0.142578;0.012695;1.841797;
492656;0.148438;0.015625;1.863281;
492796;0.147461;0.010742;1.849609;
492936;0.143555;0.010742;1.837891;
493076;0.148438;0.013672;1.839844;
493216;0.151367;0.012695;1.852539;
493356;0.146484;0.008789;1.841797;
493496;0.149414;0.018555;1.860352;
493646;0.153320;0.014648;1.858398;
493786;0.150391;0.008789;1.866211;
493926;0.155273;0.016602;1.872070;
494076;0.155273;0.009766;1.889648;
494216;0.155273;0.010742;1.890625;
494356;0.159180;0.013672;1.878906;
494496;0.156250;0.011719;1.890625;
494636;0.161133;0.011719;1.897461;
494771;0.158203;0.019531;1.893555;
494911;0.159180;0.017578;1.890625;
495061;0.161133;0.004883;1.887695;
495212;0.162109;0.003906;1.888672;
495361;0.166016;0.008789;1.886719;
495516;0.166992;0.004883;1.874023;
495666;0.169922;0.010742;1.862305;
495806;0.166016;0.010742;1.878906;
495946;0.168945;0.017578;1.860352;
496096;0.171875;0.013672;1.894531;
496236;0.169922;0.018555;1.865234;
496376;0.167969;0.019531;1.877930;
496516;0.167969;0.026367;1.873047;
496656;0.170898;0.020508;1.864258;
496796;0.170898;0.028320;1.846680;
496936;0.169922;0.021484;1.835938;
497076;0.167969;0.024414;1.813477;
497216;0.170898;0.025391;1.821289;
497356;0.168945;0.023438;1.813477;
497491;0.174805;0.030273;1.812500;
497631;0.173828;0.028320;1.789062;
497781;0.175781;0.014648;1.795898;
497933;0.176758;0.009766;1.814453;
498076;0.181641;0.002930;1.809570;
498216;0.182617;0.002930;1.829102;
498356;0.188477;0.001953;1.848633;
498496;0.188477;0.000000;1.855469;
498636;0.190430;-0.003906;1.870117;
498776;0.195312;-0.000977;1.875000;
498916;0.194336;0.000977;1.882812;
499056;0.193359;-0.004883;1.876953;
499196;0.198242;-0.003906;1.878906;
499336;0.201172;-0.003906;1.868164;
499476;0.202148;-0.002930;1.881836;
499616;0.201172;-0.001953;1.872070;
499766;0.201172;-0.000977;1.876953;
499906;0.203125;0.002930;1.880859;
500041;0.203125;0.012695;1.875977;
500191;0.203125;0.011719;1.874023;
500342;0.202148;0.017578;1.881836;
500491;0.202148;0.024414;1.862305;
500656;0.205078;0.025391;1.837891;
500796;0.205078;0.014648;1.833984;
500936;0.208008;0.022461;1.841797;
501076;0.204102;0.016602;1.828125;
501216;0.203125;0.029297;1.845703;
501356;0.208984;0.017578;1.849609;
501496;0.209961;0.034180;1.829102;
501636;0.210938;0.019531;1.804688;
501786;0.209961;0.023438;1.807617;
501926;0.206055;0.010742;1.777344;
502066;0.196289;0.009766;1.750977;
502216;0.192383;0.007812;1.742188;
502356;0.190430;0.000000;1.712891;
502506;0.183594;-0.005859;1.702148;
502642;0.178711;-0.005859;1.658203;
502791;0.169922;-0.012695;1.605469;
502941;0.156250;-0.006836;1.578125;
503091;0.154297;-0.008789;1.556641;
503226;0.139648;-0.005859;1.502930;
503361;0.128906;-0.003906;1.458008;
503506;0.121094;0.008789;1.427734;
503646;0.112305;0.016602;1.408203;
503786;0.107422;0.020508;1.376953;
503926;0.102539;0.029297;1.365234;
504066;0.094727;0.039062;1.302734;
504206;0.083008;0.035156;1.267578;
504346;0.075195;0.034180;1.159180;
504486;0.062500;0.035156;1.067383;
504626;0.049805;0.031250;0.954102;
504766;0.038086;0.027344;0.882812;
504906;0.030273;0.023438;0.744141;
505056;0.018555;0.021484;0.615234;
505196;0.016602;0.021484;0.548828;
505336;0.007812;0.020508;0.444336;
505481;0.002930;0.024414;0.372070;
505631;0.000977;0.021484;0.321289;
505781;0.003906;0.022461;0.233398;
505931;-0.002930;0.021484;0.182617;
506092;-0.000977;0.020508;0.138672;
506236;0.000000;0.022461;0.110352;
506376;0.000000;0.023438;0.090820;
506526;-0.004883;0.027344;0.058594;
506666;-0.003906;0.035156;0.073242;
506806;-0.009766;0.034180;0.028320;
506946;-0.001953;0.034180;0.059570;
507086;-0.006836;0.039062;0.036133;
507226;-0.005859;0.034180;0.049805;
507366;-0.002930;0.036133;0.044922;
507516;-0.006836;0.033203;0.040039;
507656;-0.008789;0.038086;0.038086;
507796;-0.005859;0.036133;0.037109;
507946;-0.006836;0.029297;0.034180;
508086;-0.008789;0.030273;0.039062;
508221;-0.011719;0.035156;0.034180;
508361;-0.009766;0.035156;0.042969;
508511;-0.010742;0.039062;0.050781;
508673;-0.009766;0.041992;0.047852;
508821;-0.012695;0.041992;0.040039;
508966;-0.011719;0.047852;0.041016;
509106;-0.011719;0.042969;0.040039;
509256;-0.012695;0.042969;0.033203;
509396;-0.011719;0.041016;0.034180;
509536;-0.011719;0.040039;0.026367;
509676;-0.009766;0.035156;0.023438;
509816;-0.008789;0.034180;0.023438;
509956;-0.007812;0.031250;0.021484;
510096;-0.009766;0.033203;0.020508;
510236;-0.007812;0.029297;0.010742;
510372;-0.016602;0.029297;0.002930;
510526;-0.013672;0.029297;0.006836;
510666;-0.011719;0.028320;0.002930;
510822;-0.014648;0.027344;-0.009766;
510971;-0.012695;0.027344;-0.003906;
511121;-0.009766;0.026367;-0.004883;
511271;-0.014648;0.026367;-0.002930;
511416;-0.014648;0.027344;-0.016602;
511551;-0.015625;0.025391;-0.010742;
511696;-0.016602;0.026367;-0.013672;
511836;-0.014648;0.024414;-0.012695;
511976;-0.012695;0.026367;-0.008789;
512126;-0.015625;0.022461;0.000000;
512266;-0.012695;0.024414;0.003906;
512401;-0.016602;0.022461;0.008789;
512556;-0.013672;0.023438;0.014648;
512696;-0.018555;0.023438;0.014648;
512836;-0.013672;0.020508;0.029297;
512976;-0.012695;0.022461;0.031250;
513116;-0.018555;0.021484;0.025391;
513256;-0.013672;0.018555;0.042969;
513396;-0.013672;0.018555;0.050781;
513536;-0.014648;0.024414;0.039062;
513671;-0.014648;0.026367;0.036133;
513821;-0.015625;0.026367;0.039062;
513971;-0.017578;0.027344;0.041016;
514122;-0.016602;0.026367;0.035156;
514261;-0.016602;0.022461;0.045898;
514416;-0.016602;0.019531;0.041992;
514551;-0.015625;0.019531;0.032227;
514706;-0.017578;0.021484;0.033203;
514846;-0.018555;0.023438;0.032227;
514986;-0.016602;0.021484;0.032227;
515121;-0.014648;0.020508;0.036133;
515276;-0.014648;0.021484;0.022461;
515416;-0.011719;0.027344;0.058594;
515556;-0.013672;0.022461;0.029297;
515706;-0.015625;0.021484;0.041992;
515846;-0.027344;0.033203;-0.029297;
515986;-0.011719;0.026367;0.041992;
516136;-0.016602;0.021484;0.000000;
516276;-0.012695;0.021484;0.022461;
516431;-0.013672;0.020508;0.017578;
516582;-0.017578;0.024414;0.010742;
516721;-0.014648;0.017578;0.010742;
516866;-0.019531;0.019531;-0.035156;
517001;-0.015625;0.019531;0.036133;
517156;-0.017578;0.023438;0.019531;
517296;-0.018555;0.020508;0.015625;
517436;-0.015625;0.021484;0.015625;
517576;-0.020508;0.021484;0.023438;
517716;-0.017578;0.021484;0.016602;
517856;-0.017578;0.021484;0.017578;
517996;-0.019531;0.021484;0.013672;
518136;-0.020508;0.020508;0.008789;
518276;-0.022461;0.024414;0.007812;
518416;-0.019531;0.019531;0.012695;
518556;-0.020508;0.024414;0.016602;
518696;-0.016602;0.022461;0.012695;
518836;-0.016602;0.022461;0.015625;
518976;-0.016602;0.022461;0.016602;
519111;-0.017578;0.021484;0.019531;
519251;-0.017578;0.022461;0.016602;
519401;-0.017578;0.018555;0.022461;
519551;-0.018555;0.020508;0.011719;
519702;-0.019531;0.023438;0.007812;
519856;-0.022461;0.023438;0.005859;
519996;-0.019531;0.021484;0.005859;
520136;-0.020508;0.024414;0.003906;
520276;-0.020508;0.022461;0.006836;
520416;-0.018555;0.022461;0.005859;
520556;-0.021484;0.020508;0.007812;
520696;-0.021484;0.020508;0.007812;
520836;-0.023438;0.024414;0.003906;
520976;-0.021484;0.018555;0.004883;
521116;-0.019531;0.024414;0.010742;
521266;-0.026367;0.021484;0.002930;
521406;-0.021484;0.024414;0.009766;
521546;-0.026367;0.025391;0.000000;
521696;-0.020508;0.026367;0.006836;
521831;-0.021484;0.024414;0.009766;
521981;-0.023438;0.024414;0.010742;
522131;-0.022461;0.023438;0.011719;
522283;-0.022461;0.024414;0.007812;
522436;-0.022461;0.025391;0.007812;
522576;-0.025391;0.025391;0.005859;
522716;-0.023438;0.025391;0.014648;
522856;-0.024414;0.023438;0.014648;
522996;-0.024414;0.025391;0.015625;
523136;-0.027344;0.023438;0.015625;
523276;-0.025391;0.028320;0.011719;
523416;-0.023438;0.025391;0.014648;
523556;-0.026367;0.022461;0.008789;
523696;-0.026367;0.022461;0.021484;
523836;-0.026367;0.022461;0.026367;
523976;-0.026367;0.023438;0.017578;
524126;-0.029297;0.027344;0.012695;
524266;-0.027344;0.025391;0.020508;
524402;-0.029297;0.025391;0.008789;
524551;-0.028320;0.028320;0.013672;
524702;-0.028320;0.027344;0.016602;
