Time;acc_x;acc_y;acc_z;

1600;-0.063477;0.024414;1.329102;
1743;-0.067383;0.027344;1.314453;
1883;-0.068359;0.023438;1.305664;
2023;-0.066406;0.026367;1.301758;
2163;-0.065430;0.025391;1.285156;
2303;-0.070312;0.026367;1.286133;
2443;-0.071289;0.022461;1.262695;
2583;-0.068359;0.022461;1.272461;
2723;-0.074219;0.021484;1.254883;
2863;-0.073242;0.021484;1.239258;
3003;-0.071289;0.020508;1.243164;
3143;-0.073242;0.024414;1.245117;
3283;-0.074219;0.022461;1.226562;
3423;-0.072266;0.026367;1.235352;
3563;-0.075195;0.021484;1.225586;
3703;-0.074219;0.023438;1.221680;
3843;-0.076172;0.020508;1.223633;
3979;-0.075195;0.025391;1.224609;
4129;-0.076172;0.020508;1.217773;
4280;-0.073242;0.018555;1.237305;
4443;-0.073242;0.016602;1.239258;
4583;-0.074219;0.018555;1.265625;
4723;-0.071289;0.015625;1.275391;
4863;-0.073242;0.017578;1.292969;
5003;-0.071289;0.019531;1.320312;
5143;-0.068359;0.016602;1.334961;
5283;-0.067383;0.018555;1.357422;
5423;-0.067383;0.018555;1.363281;
5563;-0.066406;0.017578;1.373047;
5713;-0.064453;0.017578;1.405273;
5854;-0.065430;0.014648;1.418945;
5993;-0.057617;0.016602;1.456055;
6133;-0.059570;0.020508;1.472656;
6273;-0.053711;0.016602;1.502930;
6409;-0.057617;0.013672;1.518555;
6558;-0.052734;0.025391;1.554688;
6709;-0.049805;0.020508;1.576172;
6869;-0.050781;0.025391;1.603516;
7033;-0.045898;0.024414;1.621094;
7183;-0.047852;0.021484;1.622070;
7323;-0.049805;0.017578;1.614258;
7463;-0.048828;0.020508;1.615234;
7603;-0.046875;0.023438;1.623047;
7743;-0.047852;0.019531;1.614258;
7883;-0.046875;0.017578;1.605469;
8023;-0.045898;0.018555;1.603516;
8163;-0.047852;0.018555;1.598633;
8303;-0.047852;0.016602;1.597656;
8443;-0.046875;0.021484;1.592773;
8583;-0.050781;0.016602;1.569336;
8723;-0.049805;0.016602;1.550781;
8863;-0.053711;0.013672;1.513672;
8999;-0.052734;0.017578;1.496094;
9149;-0.057617;0.014648;1.469727;
9289;-0.056641;0.015625;1.450195;
9441;-0.058594;0.018555;1.426758;
9603;-0.061523;0.021484;1.405273;
9753;-0.061523;0.026367;1.377930;
9893;-0.064453;0.022461;1.330078;
10033;-0.068359;0.019531;1.298828;
10173;-0.069336;0.020508;1.254883;
10313;-0.073242;0.021484;1.231445;
10453;-0.074219;0.019531;1.182617;
10593;-0.074219;0.023438;1.152344;
10733;-0.080078;0.018555;1.107422;
10883;-0.083008;0.023438;1.063477;
11023;-0.083008;0.021484;1.041992;
11163;-0.083984;0.021484;1.000000;
11303;-0.084961;0.022461;0.972656;
11443;-0.087891;0.020508;0.943359;
11589;-0.088867;0.020508;0.918945;
11740;-0.087891;0.020508;0.916992;
11879;-0.090820;0.023438;0.918945;
12029;-0.084961;0.022461;0.935547;
12253;-0.085938;0.020508;0.961914;
12473;-0.083984;0.023438;1.003906;
12693;-0.079102;0.020508;1.045898;
12904;-0.078125;0.022461;1.090820;
13113;-0.077148;0.024414;1.119141;
13333;-0.075195;0.021484;1.143555;
13543;-0.072266;0.021484;1.155273;
13763;-0.074219;0.018555;1.160156;
13983;-0.074219;0.018555;1.133789;
14193;-0.074219;0.016602;1.125000;
14404;-0.071289;0.018555;1.133789;
14623;-0.069336;0.021484;1.144531;
14843;-0.067383;0.016602;1.136719;
15063;-0.070312;0.017578;1.130859;
15279;-0.070312;0.019531;1.110352;
15509;-0.068359;0.016602;1.098633;
15733;-0.062500;0.019531;1.090820;
15943;-0.062500;0.019531;1.098633;
16163;-0.056641;0.018555;1.093750;
16373;-0.056641;0.017578;1.096680;
16583;-0.049805;0.016602;1.104492;
16793;-0.047852;0.018555;1.091797;
17004;-0.041016;0.015625;1.091797;
17223;-0.033203;0.015625;1.083008;
17443;-0.024414;0.015625;1.099609;
17663;-0.018555;0.019531;1.092773;
17873;-0.010742;0.012695;1.090820;
18083;-0.007812;0.019531;1.082031;
18303;-0.003906;0.017578;1.083008;
18523;0.000977;0.021484;1.083008;
18743;0.003906;0.028320;1.083984;
18960;0.007812;0.026367;1.076172;
19199;0.007812;0.020508;1.040039;
19443;0.010742;0.024414;1.008789;
19663;0.008789;0.019531;0.960938;
19873;0.008789;0.028320;0.943359;
20093;0.006836;0.019531;0.925781;
20313;0.001953;0.018555;0.899414;
20533;-0.001953;0.019531;0.889648;
20753;0.001953;0.019531;0.891602;
20973;-0.000977;0.017578;0.891602;
21193;0.000000;0.019531;0.900391;
21413;0.001953;0.021484;0.913086;
21633;0.000000;0.024414;0.942383;
21844;0.004883;0.020508;0.988281;
22063;0.003906;0.021484;1.018555;
22273;0.006836;0.019531;1.044922;
22499;0.008789;0.023438;1.087891;
22740;0.009766;0.024414;1.112305;
22983;0.007812;0.027344;1.145508;
23203;0.004883;0.029297;1.128906;
23413;0.001953;0.029297;1.111328;
23623;0.000977;0.029297;1.087891;
23843;-0.003906;0.029297;1.059570;
24063;-0.001953;0.028320;1.046875;
24283;-0.000977;0.027344;1.053711;
24493;-0.000977;0.019531;1.053711;
24703;0.000000;0.016602;1.056641;
24923;-0.000977;0.013672;1.053711;
25143;0.000000;0.015625;1.047852;
25353;-0.001953;0.010742;1.022461;
25563;-0.002930;0.014648;1.010742;
25773;-0.002930;0.013672;0.987305;
25991;-0.004883;0.020508;0.974609;
26229;-0.006836;0.024414;1.005859;
26453;-0.002930;0.029297;1.015625;
26663;0.000000;0.025391;1.052734;
26873;0.000977;0.028320;1.055664;
27093;-0.000977;0.026367;1.065430;
27303;-0.001953;0.026367;1.052734;
27523;0.002930;0.025391;1.050781;
27743;0.000000;0.022461;1.045898;
27963;0.000000;0.020508;1.051758;
28183;0.000977;0.023438;1.065430;
28403;0.003906;0.018555;1.080078;
28623;0.001953;0.020508;1.078125;
28843;0.000000;0.018555;1.071289;
29063;0.000000;0.021484;1.070312;
29269;-0.000977;0.024414;1.068359;
29499;0.000000;0.019531;1.061523;
29743;0.001953;0.018555;1.062500;
29963;0.001953;0.023438;1.060547;
30183;0.001953;0.019531;1.061523;
30404;-0.001953;0.023438;1.056641;
30623;0.000000;0.027344;1.087891;
30833;0.005859;0.019531;1.109375;
31043;0.005859;0.020508;1.131836;
31263;0.003906;0.022461;1.122070;
31474;0.003906;0.019531;1.101562;
31683;0.001953;0.020508;1.079102;
31893;0.000977;0.021484;1.039062;
32113;-0.003906;0.020508;0.996094;
32333;-0.005859;0.022461;0.969727;
32553;-0.003906;0.020508;0.938477;
32759;-0.004883;0.017578;0.920898;
32989;-0.005859;0.025391;0.925781;
33233;-0.010742;0.018555;0.924805;
33453;-0.007812;0.022461;0.941406;
33673;-0.006836;0.022461;0.962891;
33893;0.001953;0.025391;0.997070;
34113;-0.001953;0.022461;1.006836;
34323;-0.000977;0.022461;1.012695;
34533;-0.002930;0.020508;1.016602;
34753;-0.006836;0.019531;1.000000;
34973;-0.005859;0.019531;1.004883;
35193;-0.003906;0.021484;1.010742;
35403;0.001953;0.021484;1.030273;
35623;0.000000;0.015625;1.036133;
35843;0.000977;0.020508;1.036133;
36063;0.001953;0.018555;1.043945;
36270;0.000000;0.020508;1.042969;
36500;0.000000;0.020508;1.037109;
36743;0.001953;0.018555;1.044922;
36953;0.001953;0.016602;1.037109;
37173;0.002930;0.017578;1.029297;
37393;0.000000;0.020508;1.032227;
37613;-0.000977;0.023438;1.029297;
37823;-0.002930;0.016602;1.022461;
38033;0.000977;0.025391;1.024414;
38243;0.000000;0.021484;1.017578;
38463;-0.001953;0.021484;0.993164;
38673;-0.001953;0.022461;0.984375;
38883;-0.003906;0.027344;0.975586;
39103;-0.003906;0.017578;0.957031;
39313;-0.005859;0.021484;0.955078;
39533;-0.006836;0.023438;0.939453;
39750;-0.003906;0.022461;0.951172;
39959;-0.006836;0.027344;0.944336;
40189;-0.003906;0.020508;0.948242;
40433;-0.004883;0.023438;0.956055;
40653;-0.006836;0.016602;0.956055;
40873;-0.003906;0.021484;0.958984;
41093;-0.001953;0.025391;0.976562;
41313;-0.002930;0.019531;0.976562;
41523;-0.001953;0.026367;0.980469;
41733;-0.007812;0.019531;0.965820;
41953;-0.006836;0.026367;0.961914;
42163;-0.003906;0.019531;0.960938;
42383;-0.006836;0.023438;0.969727;
42603;-0.001953;0.017578;0.971680;
42823;-0.000977;0.024414;0.981445;
43043;-0.001953;0.024414;0.990234;
43263;-0.001953;0.023438;1.022461;
43481;-0.000977;0.021484;1.044922;
43719;0.001953;0.021484;1.063477;
43963;0.006836;0.015625;1.095703;
44183;0.003906;0.021484;1.105469;
44403;0.003906;0.021484;1.119141;
44613;0.005859;0.021484;1.128906;
44823;0.002930;0.019531;1.125000;
45033;0.004883;0.018555;1.123047;
45254;0.004883;0.020508;1.108398;
45463;0.005859;0.019531;1.106445;
45683;0.006836;0.021484;1.112305;
45903;0.000000;0.020508;1.098633;
46113;0.001953;0.023438;1.098633;
46333;-0.000977;0.017578;1.088867;
46553;0.001953;0.018555;1.089844;
46763;0.000000;0.016602;1.084961;
46981;0.004883;0.022461;1.107422;
47219;0.000000;0.020508;1.102539;
47463;-0.000977;0.024414;1.083008;
47683;-0.000977;0.021484;1.060547;
47903;0.000977;0.018555;1.023438;
48113;0.000000;0.019531;0.984375;
48333;-0.003906;0.023438;0.952148;
48543;-0.006836;0.018555;0.933594;
48764;-0.010742;0.023438;0.911133;
48983;-0.008789;0.025391;0.908203;
49203;-0.007812;0.023438;0.909180;
49423;-0.008789;0.026367;0.925781;
49643;-0.001953;0.022461;0.956055;
49863;0.000000;0.023438;0.978516;
50083;-0.002930;0.023438;0.979492;
50303;-0.002930;0.024414;0.968750;
50509;-0.006836;0.023438;0.930664;
50749;-0.006836;0.021484;0.907227;
50993;-0.003906;0.019531;0.897461;
51213;-0.006836;0.020508;0.895508;
51423;-0.008789;0.019531;0.874023;
51633;-0.010742;0.025391;0.875000;
51843;-0.010742;0.025391;0.890625;
52063;-0.006836;0.024414;0.939453;
52283;-0.001953;0.023438;0.980469;
52503;-0.001953;0.018555;1.014648;
52723;0.001953;0.025391;1.024414;
52933;-0.003906;0.023438;0.992188;
53143;-0.006836;0.024414;0.990234;
53363;-0.002930;0.019531;1.004883;
53573;-0.000977;0.021484;1.048828;
53793;0.001953;0.018555;1.090820;
54009;0.002930;0.021484;1.143555;
54249;0.006836;0.024414;1.166992;
54493;0.005859;0.020508;1.155273;
54703;0.004883;0.018555;1.149414;
54924;0.003906;0.024414;1.125000;
55143;0.008789;0.024414;1.115234;
55353;0.005859;0.019531;1.102539;
55573;0.000977;0.020508;1.087891;
55783;-0.000977;0.022461;1.083984;
56003;0.000977;0.020508;1.092773;
56224;-0.000977;0.027344;1.089844;
56433;0.004883;0.027344;1.118164;
56653;0.003906;0.031250;1.121094;
56863;0.005859;0.023438;1.125977;
57083;0.003906;0.025391;1.126953;
57304;0.004883;0.022461;1.140625;
57519;0.004883;0.020508;1.135742;
57760;0.001953;0.020508;1.127930;
58003;0.002930;0.019531;1.106445;
58223;0.003906;0.022461;1.082031;
58433;-0.000977;0.016602;1.053711;
58643;0.000000;0.024414;1.049805;
58863;-0.001953;0.019531;1.039062;
59083;0.000000;0.026367;1.040039;
59303;-0.000977;0.020508;1.033203;
59523;0.000000;0.020508;1.047852;
59743;-0.001953;0.022461;1.050781;
59963;0.000977;0.021484;1.070312;
60183;-0.000977;0.023438;1.071289;
60393;-0.000977;0.017578;1.065430;
60613;0.000977;0.023438;1.076172;
60833;0.001953;0.024414;1.075195;
61049;0.001953;0.024414;1.064453;
61289;-0.002930;0.021484;1.051758;
61530;-0.003906;0.020508;1.037109;
61763;-0.000977;0.020508;1.036133;
61973;-0.001953;0.022461;1.019531;
62193;-0.001953;0.022461;1.026367;
62413;-0.006836;0.017578;1.012695;
62633;-0.001953;0.023438;1.010742;
62843;0.000977;0.023438;1.009766;
63063;-0.003906;0.020508;0.998047;
63283;-0.003906;0.022461;1.000000;
63503;-0.003906;0.021484;0.983398;
63713;-0.003906;0.024414;0.985352;
63933;-0.005859;0.023438;0.974609;
64153;-0.002930;0.020508;0.966797;
64373;-0.004883;0.021484;0.971680;
64589;0.001953;0.023438;0.977539;
64829;-0.005859;0.026367;0.979492;
65039;-0.004883;0.026367;0.975586;
65273;-0.010742;0.017578;0.923828;
65483;-0.010742;0.018555;0.922852;
65703;-0.002930;0.020508;0.949219;
65923;0.000000;0.022461;0.977539;
66143;-0.001953;0.020508;0.990234;
66363;-0.003906;0.026367;1.001953;
66583;-0.002930;0.022461;1.003906;
66793;-0.005859;0.021484;0.995117;
67013;0.001953;0.017578;1.016602;
67223;0.000000;0.019531;1.001953;
67443;-0.001953;0.019531;1.018555;
67663;-0.004883;0.024414;1.006836;
67883;-0.007812;0.023438;1.004883;
68093;-0.003906;0.019531;0.995117;
68309;-0.000977;0.023438;1.005859;
68529;0.001953;0.022461;1.020508;
68739;0.000000;0.022461;1.005859;
68973;0.000000;0.021484;1.008789;
69193;-0.007812;0.023438;1.007812;
69403;-0.004883;0.024414;1.017578;
69614;-0.002930;0.018555;1.040039;
69833;0.000977;0.022461;1.077148;
70053;0.001953;0.021484;1.087891;
70263;0.007812;0.021484;1.098633;
70473;0.000977;0.025391;1.077148;
70693;0.000000;0.021484;1.068359;
70914;-0.002930;0.018555;1.037109;
71133;-0.001953;0.019531;1.027344;
71343;0.001953;0.020508;1.045898;
71563;0.000977;0.017578;1.046875;
71783;0.000000;0.024414;1.054688;
71999;-0.001953;0.021484;1.066406;
72218;-0.002930;0.021484;1.064453;
72449;0.000000;0.023438;1.091797;
72673;0.004883;0.019531;1.106445;
72893;0.001953;0.019531;1.122070;
73103;0.004883;0.022461;1.124023;
73323;0.004883;0.024414;1.130859;
73534;0.001953;0.018555;1.122070;
73753;0.001953;0.022461;1.110352;
73973;0.003906;0.018555;1.113281;
74193;0.003906;0.021484;1.102539;
74413;0.003906;0.021484;1.095703;
74623;0.002930;0.019531;1.071289;
74843;-0.002930;0.018555;1.044922;
75063;-0.002930;0.023438;1.027344;
75283;-0.001953;0.021484;1.014648;
75503;-0.002930;0.021484;1.000977;
75719;-0.003906;0.023438;0.996094;
75959;-0.002930;0.017578;0.974609;
76189;-0.003906;0.019531;0.973633;
76413;-0.003906;0.021484;0.983398;
76633;-0.000977;0.024414;0.997070;
76853;-0.004883;0.025391;0.996094;
77063;-0.004883;0.023438;0.999023;
77273;-0.003906;0.020508;0.995117;
77493;-0.006836;0.021484;0.990234;
77703;-0.003906;0.018555;0.993164;
77913;-0.002930;0.022461;0.995117;
78133;0.000977;0.022461;0.998047;
78353;-0.001953;0.023438;0.994141;
78573;-0.003906;0.024414;0.997070;
78793;-0.002930;0.029297;0.988281;
79013;-0.002930;0.031250;0.997070;
79231;-0.002930;0.029297;0.995117;
79469;-0.000977;0.031250;1.016602;
79693;-0.004883;0.026367;1.026367;
79899;-0.003906;0.024414;1.025391;
80123;-0.001953;0.020508;1.035156;
80333;-0.000977;0.018555;1.033203;
80553;0.002930;0.024414;1.035156;
80773;-0.000977;0.017578;1.042969;
80993;0.002930;0.019531;1.056641;
81213;-0.002930;0.020508;1.057617;
81423;-0.000977;0.014648;1.066406;
81643;0.000977;0.016602;1.074219;
81853;0.001953;0.016602;1.087891;
82073;0.001953;0.016602;1.088867;
82293;0.007812;0.014648;1.111328;
82503;0.004883;0.015625;1.120117;
82723;0.002930;0.021484;1.120117;
82929;0.001953;0.015625;1.117188;
83153;0.004883;0.020508;1.110352;
83363;0.005859;0.025391;1.100586;
83579;0.004883;0.026367;1.092773;
83813;0.002930;0.024414;1.085938;
84033;0.000977;0.026367;1.066406;
84253;-0.000977;0.025391;1.068359;
84463;-0.002930;0.018555;1.052734;
84683;0.001953;0.023438;1.068359;
84903;0.000977;0.015625;1.066406;
85123;0.001953;0.017578;1.079102;
85333;0.001953;0.019531;1.081055;
85553;0.001953;0.019531;1.097656;
85773;0.002930;0.021484;1.099609;
85993;0.001953;0.021484;1.083008;
86203;0.001953;0.019531;1.069336;
86423;0.002930;0.021484;1.047852;
86633;-0.000977;0.021484;1.011719;
86853;-0.004883;0.019531;0.964844;
87073;-0.005859;0.022461;0.940430;
87278;-0.003906;0.017578;0.927734;
87509;-0.007812;0.022461;0.921875;
87753;-0.007812;0.020508;0.930664;
87963;-0.005859;0.025391;0.925781;
88183;-0.004883;0.022461;0.933594;
88404;-0.006836;0.024414;0.936523;
88623;-0.004883;0.017578;0.934570;
88833;-0.005859;0.022461;0.933594;
89043;-0.004883;0.026367;0.932617;
89253;-0.003906;0.022461;0.920898;
89474;-0.006836;0.026367;0.918945;
89693;-0.008789;0.021484;0.914062;
89913;-0.007812;0.020508;0.905273;
90133;-0.008789;0.020508;0.917969;
90343;-0.005859;0.019531;0.941406;
90563;-0.002930;0.023438;0.984375;
90779;-0.001953;0.018555;1.014648;
91009;-0.002930;0.020508;1.041992;
91253;0.001953;0.020508;1.058594;
91463;0.004883;0.017578;1.086914;
91683;0.004883;0.021484;1.095703;
91903;0.002930;0.020508;1.094727;
92113;0.000977;0.025391;1.083008;
92333;-0.000977;0.019531;1.048828;
92543;-0.004883;0.019531;1.022461;
92763;-0.001953;0.021484;1.019531;
92983;0.001953;0.018555;1.013672;
93203;-0.000977;0.016602;0.997070;
93413;-0.001953;0.025391;1.001953;
93633;-0.002930;0.021484;1.004883;
93854;-0.003906;0.024414;1.008789;
94063;-0.001953;0.024414;1.019531;
94279;0.000977;0.020508;1.043945;
94520;-0.000977;0.022461;1.059570;
94763;0.000000;0.023438;1.074219;
94983;-0.003906;0.025391;1.083008;
95193;0.002930;0.018555;1.080078;
95413;0.001953;0.021484;1.079102;
95633;0.000977;0.021484;1.076172;
95843;0.000977;0.020508;1.071289;
96063;-0.000977;0.021484;1.053711;
96273;-0.001953;0.017578;1.033203;
96484;-0.002930;0.019531;1.023438;
96703;-0.001953;0.020508;1.017578;
96923;0.000000;0.019531;1.025391;
97143;0.000977;0.020508;1.031250;
97353;-0.000977;0.020508;1.011719;
97573;0.000000;0.024414;1.013672;
97789;-0.004883;0.024414;1.003906;
98009;0.000000;0.021484;1.023438;
98253;0.000977;0.020508;1.035156;
98463;0.001953;0.023438;1.041992;
98673;0.003906;0.024414;1.048828;
98893;0.005859;0.021484;1.046875;
99113;0.009766;0.022461;1.047852;
99333;0.017578;0.016602;1.038086;
99543;0.023438;0.013672;1.036133;
99753;0.024414;0.017578;1.019531;
99973;0.025391;0.012695;1.011719;
100193;0.030273;0.014648;0.996094;
100403;0.032227;0.016602;0.991211;
100623;0.037109;0.022461;1.001953;
100843;0.038086;0.020508;1.000000;
101063;0.045898;0.026367;1.015625;
101279;0.047852;0.025391;1.024414;
101520;0.049805;0.028320;1.026367;
101763;0.054688;0.020508;1.010742;
101973;0.057617;0.024414;1.007812;
102183;0.063477;0.021484;0.999023;
102404;0.069336;0.021484;0.970703;
102623;0.076172;0.026367;0.972656;
102833;0.087891;0.022461;0.959961;
103053;0.094727;0.019531;0.984375;
103273;0.096680;0.021484;0.977539;
103483;0.096680;0.020508;1.016602;
103703;0.099609;0.021484;1.023438;
103923;0.099609;0.021484;1.038086;
104143;0.103516;0.026367;1.050781;
104353;0.100586;0.027344;1.048828;
104573;0.098633;0.020508;1.057617;
104789;0.100586;0.019531;1.070312;
105019;0.101562;0.016602;1.073242;
105249;0.102539;0.020508;1.073242;
105483;0.101562;0.018555;1.076172;
105703;0.096680;0.024414;1.055664;
105923;0.096680;0.024414;1.048828;
106143;0.097656;0.021484;1.015625;
106353;0.096680;0.026367;1.002930;
106563;0.095703;0.024414;1.008789;
106783;0.097656;0.019531;0.997070;
107003;0.092773;0.026367;0.988281;
107223;0.093750;0.022461;0.991211;
107443;0.091797;0.026367;1.002930;
107653;0.094727;0.022461;0.997070;
107873;0.091797;0.011719;0.995117;
108083;0.088867;0.022461;0.984375;
108299;0.089844;0.015625;0.978516;
108519;0.090820;0.024414;0.979492;
108759;0.087891;0.016602;0.965820;
109003;0.085938;0.022461;0.972656;
109223;0.087891;0.017578;0.949219;
109433;0.087891;0.022461;0.974609;
109654;0.086914;0.022461;0.993164;
109863;0.087891;0.024414;1.032227;
110083;0.089844;0.024414;1.041992;
110303;0.089844;0.022461;1.090820;
110523;0.094727;0.024414;1.095703;
110733;0.090820;0.021484;1.094727;
110953;0.091797;0.019531;1.109375;
111173;0.092773;0.022461;1.114258;
111383;0.090820;0.012695;1.108398;
111603;0.092773;0.017578;1.092773;
111813;0.087891;0.014648;1.074219;
112030;0.087891;0.014648;1.061523;
112259;0.085938;0.020508;1.040039;
112479;0.086914;0.021484;1.038086;
112703;0.087891;0.023438;1.041992;
112923;0.088867;0.021484;1.037109;
113143;0.083984;0.017578;1.024414;
113363;0.084961;0.020508;1.019531;
113583;0.084961;0.017578;1.014648;
113803;0.083008;0.020508;1.007812;
114023;0.083984;0.023438;1.009766;
114243;0.083984;0.018555;1.007812;
114463;0.084961;0.022461;0.984375;
114683;0.081055;0.022461;0.966797;
114903;0.082031;0.023438;0.961914;
115123;0.081055;0.013672;0.956055;
115343;0.080078;0.016602;0.964844;
115563;0.078125;0.018555;0.962891;
115771;0.079102;0.024414;0.968750;
115990;0.079102;0.017578;1.000977;
116209;0.081055;0.016602;1.011719;
116439;0.077148;0.016602;1.013672;
116674;0.083008;0.019531;1.029297;
116893;0.081055;0.015625;1.035156;
117113;0.083008;0.017578;1.025391;
117333;0.078125;0.014648;1.027344;
117543;0.083984;0.020508;1.039062;
117753;0.081055;0.017578;1.037109;
117973;0.081055;0.022461;1.063477;
118183;0.083984;0.021484;1.089844;
118403;0.079102;0.019531;1.109375;
118623;0.084961;0.016602;1.148438;
118833;0.085938;0.022461;1.170898;
119053;0.089844;0.019531;1.223633;
119263;0.088867;0.017578;1.269531;
119475;0.094727;0.016602;1.336914;
119700;0.096680;0.017578;1.412109;
119923;0.102539;0.014648;1.485352;
120143;0.105469;0.015625;1.580078;
120349;0.108398;0.011719;1.651367;
120583;0.116211;0.014648;1.727539;
120803;0.124023;0.014648;1.792969;
121023;0.123047;0.012695;1.827148;
121233;0.124023;0.010742;1.847656;
121444;0.128906;0.015625;1.873047;
121663;0.125977;0.010742;1.877930;
121873;0.127930;0.011719;1.863281;
122083;0.126953;0.007812;1.855469;
122303;0.123047;0.014648;1.867188;
122523;0.125977;0.008789;1.859375;
122743;0.125977;0.009766;1.850586;
122963;0.124023;0.009766;1.847656;
123183;0.126953;0.010742;1.848633;
123393;0.128906;0.005859;1.859375;
123608;0.126953;0.008789;1.855469;
123839;0.125977;0.018555;1.847656;
124049;0.126953;0.017578;1.846680;
124270;0.126953;0.026367;1.866211;
124513;0.125977;0.018555;1.862305;
124723;0.130859;0.021484;1.839844;
124943;0.125977;0.006836;1.846680;
125163;0.134766;0.006836;1.849609;
125383;0.134766;0.006836;1.838867;
125603;0.131836;0.006836;1.848633;
125813;0.131836;0.001953;1.831055;
126023;0.136719;0.011719;1.859375;
126243;0.133789;0.004883;1.858398;
126453;0.137695;0.006836;1.855469;
126673;0.137695;0.007812;1.856445;
126883;0.136719;0.005859;1.859375;
127093;0.135742;0.003906;1.841797;
127303;0.141602;0.004883;1.844727;
127519;0.145508;0.007812;1.852539;
127743;0.137695;0.010742;1.853516;
127959;0.142578;0.013672;1.855469;
128193;0.146484;0.026367;1.863281;
128403;0.145508;0.012695;1.875977;
128613;0.146484;0.017578;1.875000;
128833;0.152344;0.013672;1.883789;
129053;0.152344;0.013672;1.885742;
129273;0.154297;0.013672;1.901367;
129493;0.156250;0.018555;1.901367;
129703;0.159180;0.025391;1.901367;
129913;0.159180;0.021484;1.894531;
130133;0.163086;0.019531;1.885742;
130353;0.160156;0.025391;1.874023;
130573;0.160156;0.018555;1.847656;
130783;0.163086;0.023438;1.865234;
131003;0.164062;0.016602;1.833984;
131219;0.161133;0.009766;1.818359;
131429;0.167969;0.010742;1.846680;
131659;0.167969;0.009766;1.839844;
131903;0.170898;0.000977;1.856445;
132113;0.174805;0.002930;1.874023;
132323;0.174805;0.002930;1.868164;
132543;0.180664;0.000000;1.889648;
132763;0.183594;0.008789;1.894531;
132983;0.183594;0.006836;1.904297;
133203;0.185547;0.014648;1.895508;
133423;0.183594;0.016602;1.863281;
133643;0.180664;0.020508;1.859375;
133863;0.188477;0.019531;1.836914;
134083;0.187500;0.017578;1.811523;
134303;0.186523;0.011719;1.823242;
134523;0.188477;0.018555;1.823242;
134739;0.192383;0.011719;1.839844;
134969;0.195312;0.019531;1.852539;
135199;0.197266;0.010742;1.844727;
135413;0.203125;0.017578;1.832031;
135633;0.199219;0.000000;1.852539;
135843;0.206055;-0.016602;1.843750;
136063;0.209961;-0.011719;1.848633;
136283;0.209961;-0.002930;1.842773;
136493;0.210938;-0.012695;1.848633;
136713;0.210938;0.004883;1.832031;
136933;0.209961;0.006836;1.788086;
137153;0.207031;0.009766;1.781250;
137363;0.203125;-0.000977;1.742188;
137583;0.194336;0.013672;1.725586;
137803;0.187500;0.001953;1.700195;
138023;0.175781;0.011719;1.653320;
138233;0.165039;0.000000;1.613281;
138449;0.150391;0.024414;1.592773;
138679;0.139648;0.027344;1.562500;
138908;0.128906;0.027344;1.507812;
139133;0.119141;0.022461;1.482422;
139353;0.111328;0.022461;1.379883;
139573;0.088867;0.021484;1.251953;
139793;0.074219;0.024414;1.107422;
140013;0.045898;0.026367;0.949219;
140233;0.026367;0.026367;0.726562;
140453;0.017578;0.020508;0.592773;
140673;0.003906;0.017578;0.425781;
140893;-0.001953;0.015625;0.314453;
141103;0.001953;0.015625;0.255859;
141313;0.000977;0.025391;0.160156;
141523;-0.002930;0.027344;0.134766;
141733;-0.000977;0.028320;0.101562;
141949;-0.002930;0.034180;0.048828;
142179;-0.003906;0.031250;0.036133;
142403;-0.004883;0.040039;0.047852;
142619;-0.007812;0.034180;0.050781;
142829;-0.007812;0.043945;0.058594;
143053;-0.010742;0.028320;0.049805;
143263;-0.005859;0.029297;0.066406;
143473;-0.007812;0.041016;0.052734;
143683;-0.010742;0.031250;0.057617;
143899;-0.008789;0.029297;0.051758;
144123;-0.009766;0.031250;0.044922;
144333;-0.012695;0.041992;0.031250;
144543;-0.013672;0.039062;0.014648;
144763;-0.015625;0.037109;0.036133;
144983;-0.012695;0.041992;0.032227;
145203;-0.012695;0.038086;0.040039;
145413;-0.010742;0.032227;0.020508;
145633;-0.014648;0.032227;0.020508;
145849;-0.007812;0.031250;0.016602;
146089;-0.011719;0.030273;-0.000977;
146310;-0.010742;0.024414;-0.004883;
146543;-0.013672;0.024414;-0.013672;
146763;-0.014648;0.027344;-0.003906;
146973;-0.011719;0.024414;-0.006836;
147183;-0.014648;0.025391;-0.009766;
147393;-0.020508;0.030273;-0.014648;
147613;-0.014648;0.026367;0.000977;
147823;-0.013672;0.022461;0.009766;
148033;-0.015625;0.025391;0.018555;
148253;-0.016602;0.030273;0.024414;
148463;-0.017578;0.028320;0.033203;
148683;-0.017578;0.034180;0.037109;
148903;-0.017578;0.027344;0.034180;
149123;-0.017578;0.028320;0.051758;
149333;-0.016602;0.032227;0.037109;
149549;-0.018555;0.028320;0.041016;
149769;-0.015625;0.026367;0.037109;
149981;-0.015625;0.030273;0.039062;
150199;-0.022461;0.030273;0.033203;
150433;-0.023438;0.034180;0.005859;
150653;-0.019531;0.020508;0.050781;
150873;-0.013672;0.029297;0.030273;
151093;-0.016602;0.024414;0.014648;
151313;-0.014648;0.031250;0.020508;
151533;-0.019531;0.023438;0.016602;
151743;-0.020508;0.031250;0.006836;
151963;-0.016602;0.029297;0.041016;
152173;-0.019531;0.028320;0.010742;
152383;-0.018555;0.025391;-0.001953;
152593;-0.019531;0.023438;0.004883;
152803;-0.019531;0.017578;0.000977;
153023;-0.021484;0.023438;0.002930;
153243;-0.016602;0.024414;0.005859;
153449;-0.018555;0.022461;-0.001953;
153660;-0.021484;0.024414;0.000977;
153879;-0.022461;0.025391;0.009766;
154113;-0.018555;0.023438;0.006836;
154333;-0.019531;0.021484;0.010742;
154553;-0.020508;0.024414;0.002930;
154773;-0.020508;0.022461;0.015625;
154983;-0.023438;0.018555;0.006836;
155193;-0.021484;0.021484;0.004883;
155403;-0.022461;0.022461;0.007812;
155623;-0.019531;0.019531;0.007812;
155833;-0.020508;0.021484;0.002930;
156053;-0.023438;0.019531;0.001953;
156263;-0.021484;0.021484;0.008789;
156473;-0.023438;0.019531;0.016602;
156683;-0.024414;0.020508;0.017578;
156903;-0.025391;0.024414;0.017578;
157120;-0.022461;0.021484;0.021484;
157353;-0.025391;0.023438;0.008789;
157569;-0.024414;0.023438;0.014648;
157803;-0.025391;0.019531;0.017578;
158023;-0.026367;0.021484;0.022461;
158243;-0.025391;0.024414;0.022461;
158453;-0.026367;0.022461;0.021484;
158673;-0.026367;0.018555;0.019531;
158893;-0.029297;0.024414;0.018555;
159113;-0.028320;0.019531;0.013672;
159333;-0.027344;0.023438;0.014648;
159553;-0.027344;0.026367;0.025391;
159773;-0.029297;0.023438;0.031250;
159993;-0.029297;0.024414;0.032227;
160213;-0.028320;0.025391;0.033203;
160423;-0.029297;0.027344;0.022461;
160643;-0.029297;0.028320;0.012695;
160871;-0.030273;0.027344;0.002930;
161099;-0.029297;0.028320;-0.001953;
161331;-0.031250;0.028320;-0.006836;
161563;-0.032227;0.035156;-0.007812;
161783;-0.032227;0.032227;-0.023438;
161993;-0.034180;0.028320;-0.005859;
162203;-0.035156;0.027344;0.010742;
162423;-0.032227;0.021484;0.050781;
162643;-0.034180;0.011719;0.051758;
162859;-0.037109;0.023438;0.023438;
163073;-0.026367;0.019531;0.074219;
163283;-0.035156;0.023438;0.015625;
163493;-0.036133;0.020508;-0.000977;
163713;-0.038086;0.020508;-0.004883;
163933;-0.041016;0.020508;-0.012695;
164143;-0.040039;0.012695;0.007812;
164359;-0.041016;0.017578;0.059570;
164589;-0.045898;0.020508;0.118164;
164823;-0.045898;0.025391;0.223633;
165033;-0.042969;0.022461;0.332031;
165253;-0.032227;0.020508;0.520508;
165473;-0.021484;0.023438;0.695312;
165683;-0.004883;0.021484;0.893555;
165905;0.005859;0.028320;1.032227;
166113;0.010742;0.026367;1.165039;
166333;0.018555;0.025391;1.251953;
166553;0.029297;0.031250;1.317383;
166773;0.038086;0.025391;1.375000;
166993;0.045898;0.032227;1.421875;
167203;0.046875;0.028320;1.459961;
167414;0.049805;0.025391;1.500000;
167633;0.048828;0.025391;1.525391;
167839;0.046875;0.034180;1.539062;
168070;0.040039;0.034180;1.538086;
168299;0.039062;0.032227;1.557617;
168523;0.041016;0.027344;1.576172;
168743;0.043945;0.011719;1.608398;
168963;0.043945;0.017578;1.641602;
169183;0.045898;0.022461;1.692383;
169403;0.050781;0.024414;1.728516;
169623;0.044922;0.032227;1.748047;
169843;0.048828;0.041992;1.769531;
170063;0.044922;0.041992;1.780273;
170273;0.044922;0.048828;1.794922;
170493;0.038086;0.033203;1.758789;
170713;0.041016;0.035156;1.763672;
170934;0.034180;0.024414;1.768555;
171153;0.035156;0.029297;1.780273;
171371;0.037109;0.029297;1.800781;
171599;0.035156;0.023438;1.801758;
171840;0.034180;0.039062;1.828125;
172073;0.036133;0.030273;1.837891;
172293;0.036133;0.025391;1.847656;
172513;0.033203;0.016602;1.861328;
172733;0.036133;0.013672;1.849609;
172943;0.032227;0.008789;1.838867;
173163;0.024414;0.012695;1.819336;
173383;0.017578;0.016602;1.792969;
173603;0.012695;0.020508;1.765625;
173813;0.008789;0.020508;1.746094;
174023;0.003906;0.025391;1.743164;
174243;0.003906;0.023438;1.738281;
174463;0.001953;0.024414;1.752930;
174683;0.000977;0.028320;1.763672;
174889;0.002930;0.021484;1.778320;
175119;0.000977;0.022461;1.797852;
175359;0.003906;0.026367;1.816406;
175593;0.003906;0.022461;1.833984;
175813;0.003906;0.019531;1.842773;
176023;0.002930;0.014648;1.848633;
176243;0.000977;0.014648;1.859375;
176453;0.001953;0.014648;1.865234;
176673;0.000977;0.012695;1.874023;
176893;0.000000;0.010742;1.868164;
177113;-0.000977;0.011719;1.878906;
177333;-0.003906;0.008789;1.879883;
177543;-0.001953;0.015625;1.880859;
177763;-0.003906;0.012695;1.883789;
177973;-0.003906;0.015625;1.895508;
178193;-0.007812;0.017578;1.902344;
178405;-0.007812;0.022461;1.908203;
178639;-0.008789;0.019531;1.894531;
178849;-0.009766;0.018555;1.899414;
179083;-0.008789;0.012695;1.905273;
179303;-0.008789;0.011719;1.907227;
179523;-0.008789;0.015625;1.901367;
179743;-0.010742;0.018555;1.899414;
179963;-0.013672;0.017578;1.890625;
180183;-0.014648;0.018555;1.875000;
180403;-0.017578;0.021484;1.851562;
180623;-0.023438;0.023438;1.801758;
180843;-0.027344;0.014648;1.752930;
181053;-0.033203;0.019531;1.704102;
181273;-0.036133;0.015625;1.648438;
181483;-0.042969;0.018555;1.606445;
181693;-0.044922;0.014648;1.578125;
181914;-0.047852;0.018555;1.549805;
182129;-0.050781;0.023438;1.519531;
182359;-0.053711;0.026367;1.496094;
182593;-0.058594;0.022461;1.475586;
182813;-0.057617;0.026367;1.449219;
183033;-0.060547;0.020508;1.420898;
183253;-0.064453;0.020508;1.390625;
183463;-0.063477;0.018555;1.351562;
183673;-0.069336;0.018555;1.303711;
183893;-0.072266;0.017578;1.246094;
184103;-0.079102;0.019531;1.176758;
184323;-0.081055;0.022461;1.141602;
184533;-0.081055;0.019531;1.137695;
184743;-0.079102;0.019531;1.154297;
184963;-0.079102;0.028320;1.196289;
185173;-0.077148;0.022461;1.242188;
185393;-0.071289;0.022461;1.303711;
185599;-0.071289;0.023438;1.359375;
185829;-0.063477;0.024414;1.401367;
186063;-0.063477;0.021484;1.432617;
186273;-0.058594;0.021484;1.457031;
186493;-0.059570;0.020508;1.468750;
186713;-0.057617;0.023438;1.483398;
186933;-0.056641;0.015625;1.486328;
187143;-0.057617;0.018555;1.486328;
187363;-0.061523;0.015625;1.481445;
187573;-0.057617;0.016602;1.488281;
187793;-0.055664;0.018555;1.492188;
188013;-0.058594;0.019531;1.490234;
188233;-0.054688;0.017578;1.506836;
188454;-0.053711;0.024414;1.529297;
188663;-0.054688;0.021484;1.544922;
188873;-0.052734;0.023438;1.552734;
189089;-0.051758;0.022461;1.570312;
189320;-0.049805;0.015625;1.580078;
189549;-0.047852;0.012695;1.578125;
189793;-0.048828;0.017578;1.574219;
190013;-0.049805;0.015625;1.563477;
190223;-0.050781;0.019531;1.549805;
190433;-0.047852;0.026367;1.546875;
190653;-0.051758;0.021484;1.522461;
190863;-0.048828;0.029297;1.511719;
191083;-0.052734;0.025391;1.494141;
191303;-0.054688;0.033203;1.480469;
191513;-0.056641;0.031250;1.439453;
191733;-0.055664;0.033203;1.416992;
191953;-0.059570;0.029297;1.380859;
192173;-0.059570;0.030273;1.357422;
192393;-0.060547;0.029297;1.335938;
192599;-0.060547;0.023438;1.308594;
192819;-0.062500;0.024414;1.296875;
193050;-0.061523;0.013672;1.297852;
193283;-0.059570;0.016602;1.322266;
193503;-0.054688;0.012695;1.338867;
193713;-0.050781;0.014648;1.347656;
193933;-0.048828;0.007812;1.331055;
194153;-0.050781;0.008789;1.305664;
194363;-0.047852;0.007812;1.280273;
194583;-0.048828;0.009766;1.235352;
194803;-0.048828;0.013672;1.209961;
195023;-0.045898;0.015625;1.175781;
195233;-0.042969;0.019531;1.147461;
195443;-0.036133;0.018555;1.138672;
195663;-0.027344;0.025391;1.140625;
195883;-0.019531;0.017578;1.138672;
196103;-0.010742;0.017578;1.145508;
196319;-0.006836;0.021484;1.166992;
196549;-0.001953;0.022461;1.181641;
196793;0.000000;0.019531;1.173828;
197013;0.000000;0.023438;1.143555;
197233;-0.003906;0.023438;1.084961;
197443;-0.007812;0.024414;1.005859;
197663;-0.012695;0.020508;0.936523;
197874;-0.013672;0.019531;0.875977;
198093;-0.018555;0.021484;0.850586;
198313;-0.021484;0.020508;0.837891;
198533;-0.018555;0.018555;0.867188;
198753;-0.015625;0.018555;0.909180;
198963;-0.014648;0.017578;0.960938;
199183;-0.008789;0.020508;1.041016;
199403;-0.005859;0.017578;1.086914;
199623;-0.002930;0.019531;1.130859;
199839;-0.005859;0.017578;1.148438;
200070;-0.000977;0.021484;1.168945;
200313;0.000977;0.018555;1.168945;
200533;0.000000;0.018555;1.173828;
200753;0.001953;0.023438;1.164062;
200973;0.001953;0.020508;1.152344;
201193;0.000000;0.018555;1.153320;
201413;0.000977;0.019531;1.163086;
201633;0.001953;0.014648;1.164062;
201853;0.001953;0.020508;1.174805;
202073;0.002930;0.020508;1.187500;
202283;0.006836;0.019531;1.200195;
202503;0.003906;0.016602;1.205078;
202713;0.006836;0.017578;1.191406;
202933;0.003906;0.021484;1.173828;
203153;0.002930;0.020508;1.162109;
203359;0.004883;0.020508;1.132812;
203599;0.002930;0.022461;1.106445;
203843;0.000000;0.019531;1.086914;
204063;-0.000977;0.022461;1.056641;
204283;-0.001953;0.018555;1.038086;
204493;-0.002930;0.018555;1.020508;
204713;-0.001953;0.021484;1.013672;
204923;-0.000977;0.023438;1.010742;
205134;-0.001953;0.021484;1.000977;
205353;-0.001953;0.017578;1.002930;
205573;0.000000;0.023438;1.016602;
205793;-0.000977;0.018555;1.017578;
206013;-0.002930;0.019531;1.014648;
206223;-0.000977;0.021484;1.012695;
206443;-0.001953;0.017578;1.012695;
206653;0.001953;0.020508;1.017578;
206860;0.000000;0.020508;1.011719;
207089;-0.000977;0.019531;1.000977;
207319;-0.001953;0.020508;1.009766;
207553;-0.000977;0.022461;0.997070;
207773;0.001953;0.018555;1.000000;
207993;0.001953;0.022461;1.006836;
208203;-0.000977;0.022461;0.989258;
208423;-0.001953;0.023438;0.991211;
208643;0.000000;0.019531;0.995117;
208863;0.002930;0.023438;1.005859;
209083;0.000977;0.018555;0.990234;
209303;0.001953;0.019531;0.970703;
209523;0.000977;0.020508;0.965820;
209744;-0.000977;0.021484;0.960938;
209963;0.001953;0.021484;0.967773;
210183;0.000000;0.019531;0.948242;
210403;-0.001953;0.022461;0.950195;
210619;0.001953;0.023438;0.945312;
210849;0.000977;0.017578;0.943359;
211089;0.000000;0.020508;0.958008;
211313;0.002930;0.022461;0.960938;
211524;0.001953;0.021484;0.936523;
211733;0.000977;0.022461;0.944336;
211953;-0.000977;0.021484;0.934570;
212163;-0.002930;0.022461;0.923828;
212383;0.000000;0.022461;0.915039;
212603;-0.000977;0.025391;0.920898;
212823;0.000977;0.022461;0.902344;
213033;-0.001953;0.020508;0.893555;
213243;0.001953;0.025391;0.903320;
213463;0.001953;0.025391;0.932617;
213683;0.006836;0.020508;0.953125;
213903;0.002930;0.023438;0.973633;
214123;0.009766;0.018555;1.007812;
214339;0.011719;0.019531;1.033203;
214579;0.010742;0.022461;1.046875;
214823;0.011719;0.018555;1.050781;
215043;0.011719;0.022461;1.051758;
215263;0.015625;0.021484;1.045898;
215473;0.014648;0.019531;1.043945;
215683;0.011719;0.020508;1.041016;
215893;0.011719;0.019531;1.028320;
216113;0.011719;0.023438;1.039062;
216333;0.012695;0.024414;1.028320;
216543;0.011719;0.021484;1.008789;
216753;0.011719;0.021484;1.020508;
216973;0.013672;0.026367;1.028320;
217193;0.011719;0.020508;1.026367;
217403;0.013672;0.020508;1.022461;
217623;0.014648;0.021484;1.028320;
217839;0.016602;0.023438;1.040039;
218069;0.014648;0.022461;1.031250;
218303;0.015625;0.019531;1.032227;
218513;0.016602;0.023438;1.041016;
218733;0.014648;0.020508;1.056641;
218953;0.018555;0.020508;1.060547;
219173;0.017578;0.024414;1.052734;
219393;0.021484;0.018555;1.067383;
219603;0.017578;0.021484;1.079102;
219823;0.020508;0.020508;1.089844;
220033;0.024414;0.027344;1.107422;
220253;0.026367;0.019531;1.118164;
220473;0.025391;0.025391;1.137695;
220693;0.030273;0.022461;1.166992;
220914;0.032227;0.019531;1.202148;
221133;0.035156;0.018555;1.199219;
221349;0.033203;0.020508;1.200195;
221579;0.034180;0.020508;1.199219;
221803;0.031250;0.023438;1.197266;
222013;0.034180;0.023438;1.192383;
222233;0.036133;0.024414;1.184570;
222453;0.033203;0.023438;1.200195;
222673;0.036133;0.018555;1.181641;
222883;0.036133;0.024414;1.185547;
223093;0.037109;0.024414;1.178711;
223313;0.033203;0.021484;1.163086;
223533;0.033203;0.025391;1.134766;
223753;0.030273;0.025391;1.105469;
223973;0.024414;0.018555;1.079102;
224183;0.030273;0.019531;1.055664;
224403;0.023438;0.020508;1.039062;
224623;0.026367;0.015625;1.040039;
224843;0.025391;0.021484;1.028320;
225059;0.024414;0.022461;1.040039;
225290;0.023438;0.024414;1.053711;
225530;0.027344;0.025391;1.049805;
225763;0.026367;0.028320;1.054688;
225983;0.029297;0.026367;1.057617;
226203;0.026367;0.018555;1.061523;
226413;0.027344;0.022461;1.052734;
226633;0.031250;0.023438;1.038086;
226853;0.027344;0.024414;1.019531;
227073;0.027344;0.024414;1.000977;
227293;0.023438;0.018555;0.983398;
227513;0.026367;0.017578;0.981445;
227733;0.024414;0.017578;0.964844;
227943;0.025391;0.019531;0.958984;
228163;0.024414;0.017578;0.971680;
228384;0.025391;0.019531;0.980469;
228603;0.026367;0.020508;0.984375;
228819;0.028320;0.021484;1.015625;
229050;0.031250;0.021484;1.023438;
229279;0.027344;0.020508;1.020508;
229503;0.030273;0.015625;1.030273;
229723;0.035156;0.019531;1.042969;
229943;0.032227;0.018555;1.037109;
230153;0.034180;0.017578;1.045898;
230373;0.032227;0.021484;1.042969;
230593;0.031250;0.019531;1.020508;
230813;0.033203;0.018555;1.037109;
231033;0.032227;0.018555;1.018555;
231253;0.033203;0.014648;1.005859;
231473;0.035156;0.013672;1.011719;
231683;0.030273;0.013672;0.983398;
231893;0.030273;0.011719;0.977539;
232114;0.030273;0.016602;0.986328;
232329;0.032227;0.013672;0.994141;
232549;0.032227;0.010742;1.016602;
232779;0.034180;0.015625;1.014648;
233013;0.031250;0.019531;1.030273;
233223;0.039062;0.019531;1.051758;
233443;0.037109;0.017578;1.045898;
233663;0.040039;0.018555;1.065430;
233873;0.040039;0.015625;1.070312;
234083;0.040039;0.017578;1.074219;
234303;0.042969;0.015625;1.076172;
234513;0.041992;0.016602;1.060547;
234733;0.040039;0.016602;1.060547;
234943;0.043945;0.021484;1.062500;
235163;0.041016;0.015625;1.040039;
235373;0.040039;0.017578;1.039062;
235583;0.036133;0.015625;1.029297;
235803;0.041016;0.018555;1.035156;
236019;0.035156;0.016602;1.015625;
236248;0.042969;0.014648;1.017578;
236483;0.040039;0.015625;1.027344;
236703;0.039062;0.016602;1.024414;
236914;0.040039;0.010742;1.029297;
237123;0.043945;0.017578;1.053711;
237333;0.045898;0.014648;1.063477;
237543;0.047852;0.014648;1.071289;
237763;0.045898;0.022461;1.072266;
237983;0.048828;0.026367;1.089844;
238203;0.050781;0.022461;1.083008;
238413;0.051758;0.024414;1.102539;
238623;0.047852;0.025391;1.077148;
238833;0.044922;0.025391;1.047852;
239043;0.044922;0.017578;1.025391;
239263;0.040039;0.021484;0.990234;
239469;0.041016;0.017578;0.970703;
239709;0.037109;0.023438;0.919922;
239949;0.033203;0.019531;0.855469;
240163;0.028320;0.018555;0.816406;
240383;0.025391;0.018555;0.759766;
240593;0.020508;0.023438;0.738281;
240813;0.019531;0.021484;0.701172;
241033;0.017578;0.016602;0.691406;
241243;0.017578;0.020508;0.669922;
241463;0.018555;0.024414;0.681641;
241683;0.018555;0.024414;0.681641;
241903;0.018555;0.023438;0.692383;
242123;0.021484;0.029297;0.706055;
242333;0.018555;0.027344;0.696289;
242553;0.020508;0.028320;0.718750;
242763;0.018555;0.027344;0.709961;
242979;0.022461;0.031250;0.733398;
243209;0.017578;0.030273;0.717773;
243439;0.020508;0.024414;0.721680;
243673;0.020508;0.028320;0.737305;
243893;0.021484;0.025391;0.724609;
244113;0.023438;0.023438;0.734375;
244323;0.019531;0.020508;0.734375;
244543;0.025391;0.026367;0.758789;
244753;0.027344;0.022461;0.773438;
244973;0.028320;0.023438;0.800781;
245183;0.027344;0.024414;0.815430;
245393;0.029297;0.020508;0.840820;
245603;0.036133;0.021484;0.872070;
245813;0.034180;0.022461;0.890625;
246033;0.035156;0.022461;0.904297;
246253;0.038086;0.021484;0.911133;
246473;0.040039;0.021484;0.945312;
246689;0.041992;0.023438;0.963867;
246919;0.045898;0.025391;0.987305;
247153;0.044922;0.022461;1.005859;
247373;0.049805;0.022461;1.014648;
247593;0.051758;0.021484;1.031250;
247813;0.048828;0.022461;1.037109;
248023;0.049805;0.024414;1.041016;
248233;0.051758;0.022461;1.040039;
248453;0.048828;0.024414;1.030273;
248663;0.049805;0.019531;1.027344;
248883;0.047852;0.018555;1.017578;
249103;0.047852;0.018555;1.011719;
249313;0.044922;0.023438;0.997070;
249533;0.046875;0.021484;1.000977;
249754;0.046875;0.019531;1.014648;
249973;0.049805;0.021484;1.020508;
250189;0.051758;0.026367;1.027344;
250419;0.046875;0.025391;1.019531;
250653;0.051758;0.023438;1.052734;
250863;0.053711;0.027344;1.076172;
251083;0.056641;0.031250;1.092773;
251303;0.057617;0.025391;1.099609;
251513;0.054688;0.029297;1.087891;
251723;0.054688;0.031250;1.071289;
251933;0.051758;0.026367;1.064453;
252153;0.048828;0.023438;1.039062;
252373;0.047852;0.024414;1.011719;
252593;0.045898;0.020508;1.002930;
252803;0.041992;0.017578;0.962891;
253013;0.041016;0.020508;0.965820;
253223;0.042969;0.022461;0.951172;
253433;0.040039;0.021484;0.944336;
253651;0.039062;0.024414;0.929688;
253859;0.037109;0.024414;0.924805;
254088;0.039062;0.025391;0.923828;
254323;0.039062;0.029297;0.925781;
254533;0.039062;0.024414;0.933594;
254753;0.039062;0.023438;0.944336;
254963;0.042969;0.026367;0.983398;
255183;0.047852;0.025391;1.027344;
255403;0.053711;0.023438;1.056641;
255623;0.054688;0.022461;1.072266;
255833;0.052734;0.023438;1.071289;
256043;0.054688;0.020508;1.081055;
256263;0.053711;0.024414;1.067383;
256483;0.049805;0.018555;1.043945;
256703;0.045898;0.017578;1.021484;
256913;0.043945;0.019531;1.004883;
257123;0.045898;0.019531;0.997070;
257339;0.043945;0.022461;0.997070;
257569;0.044922;0.019531;0.999023;
257789;0.048828;0.021484;1.025391;
258009;0.053711;0.019531;1.052734;
258243;0.050781;0.025391;1.057617;
258463;0.051758;0.020508;1.058594;
258683;0.055664;0.021484;1.081055;
258893;0.051758;0.024414;1.073242;
259113;0.055664;0.023438;1.078125;
259333;0.052734;0.025391;1.070312;
259553;0.049805;0.022461;1.071289;
259763;0.052734;0.022461;1.065430;
259973;0.052734;0.022461;1.073242;
260183;0.052734;0.023438;1.087891;
260403;0.052734;0.027344;1.093750;
260623;0.053711;0.023438;1.082031;
260833;0.050781;0.020508;1.071289;
261043;0.050781;0.021484;1.068359;
261269;0.049805;0.019531;1.035156;
261481;0.045898;0.019531;1.033203;
261709;0.043945;0.018555;1.015625;
261939;0.042969;0.022461;0.999023;
262163;0.042969;0.020508;0.995117;
262383;0.044922;0.020508;1.004883;
262593;0.042969;0.020508;1.000000;
262803;0.042969;0.020508;1.023438;
263023;0.046875;0.021484;1.020508;
263233;0.047852;0.022461;1.029297;
263453;0.045898;0.024414;1.022461;
263673;0.044922;0.023438;1.026367;
263894;0.043945;0.022461;1.014648;
264113;0.043945;0.028320;1.009766;
264333;0.045898;0.023438;1.002930;
264553;0.040039;0.023438;0.983398;
264763;0.041016;0.022461;0.988281;
264974;0.038086;0.021484;0.972656;
265180;0.039062;0.023438;0.974609;
265412;0.037109;0.020508;0.958008;
265643;0.040039;0.025391;0.963867;
265863;0.039062;0.025391;0.961914;
266083;0.036133;0.023438;0.955078;
266303;0.039062;0.026367;0.957031;
266513;0.036133;0.021484;0.953125;
266723;0.036133;0.024414;0.963867;
266943;0.038086;0.022461;0.967773;
267163;0.035156;0.022461;0.958984;
267383;0.039062;0.026367;0.975586;
267593;0.038086;0.025391;0.959961;
267813;0.035156;0.024414;0.974609;
268033;0.037109;0.020508;0.971680;
268243;0.039062;0.021484;0.973633;
268453;0.038086;0.021484;0.982422;
268673;0.040039;0.019531;0.990234;
268889;0.045898;0.023438;1.031250;
269120;0.049805;0.021484;1.085938;
269348;0.050781;0.022461;1.085938;
269583;0.053711;0.018555;1.111328;
269793;0.052734;0.020508;1.099609;
270013;0.056641;0.023438;1.119141;
270233;0.054688;0.020508;1.136719;
270453;0.052734;0.022461;1.119141;
270673;0.054688;0.024414;1.109375;
270883;0.050781;0.023438;1.083008;
271103;0.048828;0.025391;1.070312;
271323;0.044922;0.025391;1.040039;
271543;0.042969;0.028320;1.022461;
271753;0.043945;0.019531;1.012695;
271973;0.041016;0.028320;0.990234;
272194;0.038086;0.022461;0.991211;
272403;0.037109;0.022461;0.973633;
272609;0.037109;0.025391;0.974609;
272849;0.036133;0.019531;0.973633;
273093;0.039062;0.020508;0.958008;
273313;0.037109;0.024414;0.970703;
273533;0.040039;0.016602;0.984375;
273753;0.041016;0.026367;1.010742;
273973;0.041992;0.021484;1.027344;
274193;0.044922;0.023438;1.027344;
274414;0.043945;0.023438;1.049805;
274623;0.047852;0.021484;1.069336;
274843;0.051758;0.024414;1.091797;
275053;0.054688;0.023438;1.137695;
275263;0.055664;0.024414;1.143555;
275483;0.059570;0.024414;1.168945;
275693;0.058594;0.022461;1.180664;
275903;0.062500;0.022461;1.210938;
276119;0.063477;0.022461;1.207031;
276339;0.060547;0.025391;1.201172;
276569;0.061523;0.021484;1.191406;
276793;0.058594;0.022461;1.173828;
277003;0.056641;0.023438;1.145508;
277223;0.053711;0.018555;1.114258;
277443;0.048828;0.019531;1.079102;
277663;0.045898;0.015625;1.053711;
277873;0.043945;0.018555;1.022461;
278083;0.044922;0.020508;1.015625;
278303;0.039062;0.023438;1.004883;
278523;0.040039;0.023438;0.998047;
278743;0.039062;0.023438;0.999023;
278963;0.036133;0.023438;0.992188;
279183;0.041992;0.025391;1.003906;
279403;0.039062;0.029297;0.994141;
279619;0.041992;0.021484;1.002930;
279849;0.041016;0.022461;1.022461;
280078;0.038086;0.017578;1.011719;
280313;0.042969;0.022461;1.024414;
280523;0.041016;0.019531;1.031250;
280743;0.042969;0.021484;1.024414;
280963;0.043945;0.025391;1.040039;
281183;0.040039;0.025391;1.035156;
281403;0.041016;0.021484;1.019531;
281623;0.043945;0.022461;1.037109;
281833;0.041992;0.022461;1.022461;
282053;0.041992;0.020508;1.026367;
282273;0.039062;0.022461;1.016602;
282483;0.041016;0.024414;1.009766;
282703;0.040039;0.022461;1.012695;
282923;0.040039;0.021484;1.001953;
283139;0.041992;0.023438;1.013672;
283369;0.040039;0.020508;1.000977;
283599;0.036133;0.021484;0.995117;
283833;0.040039;0.022461;1.017578;
284043;0.041016;0.022461;1.019531;
284253;0.042969;0.020508;1.055664;
284463;0.047852;0.021484;1.074219;
284683;0.050781;0.022461;1.090820;
284903;0.049805;0.017578;1.114258;
285123;0.051758;0.024414;1.119141;
285343;0.053711;0.024414;1.150391;
285553;0.056641;0.020508;1.156250;
285773;0.057617;0.024414;1.162109;
285993;0.056641;0.017578;1.161133;
286213;0.055664;0.021484;1.141602;
286423;0.056641;0.021484;1.133789;
286633;0.050781;0.021484;1.108398;
286849;0.049805;0.019531;1.088867;
287073;0.043945;0.020508;1.050781;
287289;0.041992;0.023438;1.031250;
287530;0.041992;0.023438;1.015625;
287763;0.037109;0.018555;1.011719;
287973;0.038086;0.020508;0.996094;
288193;0.038086;0.021484;0.997070;
288414;0.036133;0.018555;0.996094;
288633;0.041992;0.023438;1.011719;
288853;0.040039;0.019531;1.016602;
289073;0.041992;0.025391;1.010742;
289293;0.043945;0.019531;1.034180;
289513;0.042969;0.019531;1.024414;
289733;0.045898;0.025391;1.041016;
289953;0.043945;0.024414;1.025391;
290163;0.041016;0.026367;1.018555;
290383;0.040039;0.023438;1.013672;
290593;0.040039;0.024414;0.993164;
290799;0.040039;0.022461;1.001953;
291023;0.041016;0.023438;0.986328;
291259;0.038086;0.023438;0.979492;
291493;0.036133;0.024414;0.978516;
291713;0.036133;0.017578;0.958984;
291923;0.037109;0.019531;0.978516;
292143;0.037109;0.022461;0.972656;
292353;0.039062;0.021484;0.972656;
292573;0.035156;0.025391;0.973633;
292793;0.035156;0.027344;0.965820;
293003;0.039062;0.024414;0.980469;
293213;0.037109;0.019531;0.967773;
293433;0.037109;0.026367;0.971680;
293653;0.036133;0.022461;0.964844;
293873;0.037109;0.023438;0.975586;
294083;0.038086;0.021484;0.985352;
294303;0.038086;0.022461;0.973633;
294509;0.037109;0.023438;0.980469;
294729;0.036133;0.023438;0.970703;
294939;0.038086;0.023438;0.981445;
295173;0.033203;0.020508;0.974609;
295393;0.037109;0.028320;0.975586;
295613;0.039062;0.021484;0.980469;
295833;0.037109;0.024414;0.977539;
296053;0.037109;0.022461;0.980469;
296273;0.038086;0.023438;0.979492;
296483;0.036133;0.025391;0.983398;
296703;0.042969;0.025391;1.014648;
296913;0.041016;0.023438;1.022461;
297133;0.043945;0.022461;1.048828;
297353;0.044922;0.024414;1.054688;
297573;0.045898;0.031250;1.068359;
297793;0.046875;0.026367;1.067383;
298003;0.048828;0.024414;1.061523;
298219;0.045898;0.021484;1.062500;
298443;0.042969;0.022461;1.041016;
298649;0.044922;0.021484;1.041016;
298889;0.043945;0.021484;1.033203;
299123;0.041992;0.019531;1.018555;
299343;0.043945;0.020508;1.029297;
299564;0.040039;0.022461;1.040039;
299783;0.044922;0.018555;1.057617;
300003;0.044922;0.020508;1.066406;
300213;0.042969;0.023438;1.059570;
300423;0.044922;0.023438;1.067383;
300633;0.048828;0.027344;1.058594;
300853;0.044922;0.027344;1.054688;
301073;0.042969;0.025391;1.033203;
301293;0.041992;0.027344;1.031250;
301503;0.039062;0.020508;1.002930;
301713;0.041016;0.023438;1.003906;
301933;0.038086;0.019531;0.991211;
302151;0.037109;0.024414;0.972656;
302389;0.039062;0.019531;0.981445;
302603;0.036133;0.023438;0.981445;
302809;0.037109;0.026367;0.996094;
303033;0.040039;0.020508;0.995117;
303243;0.041992;0.022461;1.019531;
303453;0.041016;0.023438;1.028320;
303663;0.042969;0.021484;1.037109;
303883;0.044922;0.021484;1.055664;
304103;0.044922;0.023438;1.057617;
304323;0.045898;0.023438;1.074219;
304533;0.046875;0.026367;1.067383;
304743;0.045898;0.024414;1.063477;
304953;0.045898;0.025391;1.059570;
305173;0.043945;0.024414;1.047852;
305383;0.044922;0.025391;1.056641;
305603;0.045898;0.023438;1.048828;
305815;0.046875;0.025391;1.070312;
306049;0.047852;0.022461;1.092773;
306269;0.050781;0.023438;1.097656;
306503;0.052734;0.023438;1.125000;
306723;0.055664;0.020508;1.133789;
306943;0.057617;0.026367;1.149414;
307163;0.055664;0.024414;1.165039;
307373;0.055664;0.020508;1.149414;
307593;0.056641;0.023438;1.154297;
307813;0.052734;0.020508;1.125000;
308033;0.052734;0.023438;1.111328;
308253;0.049805;0.021484;1.100586;
308463;0.048828;0.026367;1.086914;
308683;0.047852;0.021484;1.070312;
308893;0.044922;0.019531;1.039062;
309103;0.041016;0.020508;1.041016;
309323;0.041992;0.020508;1.013672;
309539;0.041016;0.021484;1.017578;
309779;0.041016;0.017578;1.015625;
310023;0.040039;0.017578;1.015625;
310243;0.043945;0.023438;1.040039;
310463;0.044922;0.018555;1.046875;
310673;0.043945;0.025391;1.044922;
310893;0.045898;0.021484;1.068359;
311113;0.046875;0.017578;1.060547;
311323;0.044922;0.023438;1.071289;
311543;0.044922;0.020508;1.071289;
311753;0.048828;0.024414;1.081055;
311973;0.046875;0.020508;1.072266;
312183;0.044922;0.021484;1.062500;
312393;0.047852;0.021484;1.047852;
312613;0.041992;0.024414;1.029297;
312833;0.042969;0.019531;1.035156;
313050;0.039062;0.020508;1.008789;
313280;0.041016;0.022461;0.998047;
313509;0.039062;0.017578;0.999023;
313733;0.038086;0.023438;0.976562;
313953;0.038086;0.026367;0.982422;
314173;0.037109;0.024414;0.978516;
314393;0.035156;0.020508;0.972656;
314603;0.040039;0.022461;1.010742;
314823;0.041992;0.026367;1.020508;
315043;0.044922;0.028320;1.053711;
315263;0.043945;0.025391;1.045898;
315484;0.047852;0.027344;1.072266;
315693;0.046875;0.029297;1.070312;
315913;0.045898;0.023438;1.078125;
316133;0.047852;0.020508;1.070312;
316343;0.046875;0.025391;1.059570;
316549;0.048828;0.022461;1.067383;
316773;0.045898;0.019531;1.054688;
316983;0.047852;0.021484;1.047852;
317199;0.041992;0.024414;1.040039;
317429;0.044922;0.025391;1.036133;
317673;0.043945;0.029297;1.040039;
317893;0.041992;0.023438;1.027344;
318113;0.044922;0.025391;1.029297;
318333;0.044922;0.028320;1.027344;
318553;0.041992;0.027344;1.022461;
318773;0.045898;0.021484;1.024414;
318983;0.041016;0.023438;1.016602;
319203;0.043945;0.026367;1.006836;
319423;0.041992;0.024414;0.997070;
319643;0.041016;0.024414;0.987305;
319863;0.041016;0.023438;0.979492;
320083;0.040039;0.022461;0.960938;
320293;0.036133;0.024414;0.969727;
320513;0.037109;0.021484;0.950195;
320719;0.037109;0.023438;0.953125;
320949;0.037109;0.024414;0.952148;
321180;0.036133;0.026367;0.951172;
321413;0.037109;0.025391;0.955078;
321623;0.033203;0.025391;0.940430;
321843;0.035156;0.029297;0.960938;
322063;0.035156;0.023438;0.958008;
322283;0.032227;0.030273;0.954102;
322493;0.036133;0.028320;0.954102;
322713;0.036133;0.027344;0.948242;
322933;0.032227;0.026367;0.954102;
323143;0.037109;0.023438;0.947266;
323353;0.036133;0.025391;0.960938;
323573;0.037109;0.026367;0.963867;
323783;0.037109;0.021484;0.963867;
324003;0.038086;0.026367;0.955078;
324223;0.036133;0.024414;0.960938;
324441;0.035156;0.023438;0.951172;
324659;0.035156;0.026367;0.950195;
324879;0.037109;0.024414;0.953125;
325113;0.038086;0.025391;0.953125;
325333;0.036133;0.029297;0.967773;
325553;0.038086;0.024414;0.982422;
325763;0.043945;0.023438;1.012695;
325983;0.046875;0.025391;1.043945;
326203;0.047852;0.027344;1.063477;
326413;0.048828;0.025391;1.078125;
326633;0.048828;0.022461;1.073242;
326843;0.046875;0.025391;1.078125;
327063;0.047852;0.023438;1.067383;
327283;0.047852;0.024414;1.058594;
327503;0.045898;0.022461;1.062500;
327713;0.045898;0.021484;1.036133;
327933;0.046875;0.020508;1.034180;
328139;0.041016;0.021484;1.008789;
328359;0.042969;0.024414;1.009766;
328589;0.041016;0.024414;0.995117;
328803;0.040039;0.025391;0.987305;
329023;0.039062;0.024414;0.980469;
329243;0.035156;0.023438;0.959961;
329463;0.036133;0.025391;0.967773;
329673;0.038086;0.022461;0.965820;
329893;0.041992;0.027344;1.013672;
330103;0.044922;0.022461;1.059570;
330323;0.050781;0.023438;1.096680;
330533;0.058594;0.025391;1.150391;
330753;0.059570;0.025391;1.171875;
330963;0.063477;0.021484;1.206055;
331183;0.068359;0.024414;1.231445;
331403;0.071289;0.024414;1.256836;
331613;0.070312;0.023438;1.244141;
331829;0.069336;0.022461;1.232422;
332059;0.064453;0.018555;1.200195;
332289;0.058594;0.016602;1.140625;
332513;0.054688;0.014648;1.121094;
332723;0.051758;0.015625;1.070312;
332943;0.046875;0.022461;1.043945;
333153;0.041992;0.022461;1.016602;
333363;0.041016;0.025391;0.982422;
333583;0.037109;0.019531;0.964844;
333803;0.035156;0.019531;0.937500;
334013;0.034180;0.025391;0.936523;
334223;0.032227;0.022461;0.931641;
334433;0.034180;0.022461;0.934570;
334643;0.032227;0.023438;0.920898;
334863;0.034180;0.028320;0.935547;
335073;0.035156;0.027344;0.929688;
335283;0.034180;0.021484;0.949219;
335501;0.037109;0.019531;0.952148;
335739;0.035156;0.022461;0.951172;
335973;0.034180;0.026367;0.961914;
336193;0.038086;0.023438;0.964844;
336403;0.035156;0.026367;0.962891;
336623;0.037109;0.021484;0.971680;
336843;0.037109;0.021484;0.977539;
337063;0.039062;0.024414;1.009766;
337273;0.042969;0.021484;1.031250;
337493;0.048828;0.024414;1.053711;
337713;0.044922;0.022461;1.064453;
337933;0.049805;0.025391;1.082031;
338143;0.049805;0.022461;1.086914;
338353;0.048828;0.024414;1.075195;
338574;0.048828;0.025391;1.088867;
338793;0.048828;0.023438;1.064453;
339009;0.045898;0.023438;1.064453;
339239;0.045898;0.024414;1.051758;
339479;0.041016;0.019531;1.018555;
339703;0.041992;0.022461;1.022461;
339923;0.040039;0.017578;0.997070;
340143;0.041016;0.022461;0.995117;
340353;0.036133;0.027344;0.983398;
340573;0.039062;0.026367;0.973633;
340793;0.036133;0.024414;0.970703;
341003;0.034180;0.028320;0.955078;
341223;0.035156;0.024414;0.951172;
341443;0.033203;0.016602;0.946289;
341653;0.032227;0.020508;0.955078;
341863;0.033203;0.017578;0.944336;
342083;0.034180;0.021484;0.948242;
342303;0.034180;0.017578;0.958008;
342519;0.033203;0.022461;0.948242;
342753;0.035156;0.023438;0.962891;
342969;0.034180;0.024414;0.948242;
343203;0.036133;0.027344;0.963867;
343413;0.035156;0.025391;0.965820;
343623;0.036133;0.026367;0.963867;
343843;0.034180;0.020508;0.959961;
344063;0.033203;0.026367;0.955078;
344273;0.039062;0.026367;0.983398;
344493;0.041016;0.027344;1.009766;
344703;0.041016;0.030273;1.035156;
344923;0.044922;0.024414;1.061523;
345143;0.045898;0.022461;1.078125;
345353;0.048828;0.028320;1.099609;
345573;0.048828;0.020508;1.096680;
345783;0.053711;0.022461;1.119141;
346003;0.051758;0.019531;1.103516;
346220;0.049805;0.025391;1.105469;
346430;0.049805;0.019531;1.090820;
346659;0.048828;0.025391;1.078125;
346903;0.045898;0.023438;1.065430;
347123;0.042969;0.028320;1.037109;
347343;0.041016;0.027344;1.033203;
347563;0.041016;0.021484;1.010742;
347783;0.038086;0.026367;0.996094;
347993;0.038086;0.027344;0.988281;
348213;0.035156;0.023438;0.975586;
348423;0.036133;0.027344;0.988281;
348643;0.037109;0.026367;0.991211;
348863;0.040039;0.026367;0.994141;
349083;0.041016;0.021484;1.014648;
349293;0.039062;0.026367;1.020508;
349513;0.043945;0.023438;1.034180;
349733;0.041992;0.023438;1.035156;
349939;0.041016;0.025391;1.036133;
350172;0.044922;0.020508;1.043945;
350399;0.041992;0.022461;1.036133;
350623;0.041992;0.019531;1.036133;
350833;0.041992;0.023438;1.030273;
351053;0.041016;0.024414;1.038086;
351263;0.041016;0.021484;1.031250;
351483;0.041992;0.021484;1.020508;
351703;0.041016;0.020508;1.035156;
351913;0.039062;0.025391;1.033203;
352133;0.043945;0.027344;1.041016;
352353;0.041016;0.021484;1.017578;
352573;0.041992;0.026367;1.031250;
352783;0.039062;0.024414;1.013672;
353003;0.038086;0.026367;1.010742;
353213;0.037109;0.021484;1.012695;
353429;0.038086;0.024414;0.996094;
353668;0.038086;0.025391;0.992188;
353899;0.037109;0.016602;0.991211;
354133;0.036133;0.023438;0.992188;
354353;0.039062;0.020508;1.001953;
354573;0.037109;0.022461;0.994141;
354783;0.039062;0.028320;1.005859;
354993;0.037109;0.022461;1.008789;
355213;0.038086;0.022461;1.000977;
355423;0.036133;0.029297;1.010742;
355643;0.039062;0.025391;0.988281;
355863;0.036133;0.024414;0.999023;
356073;0.035156;0.023438;0.995117;
356293;0.037109;0.025391;1.004883;
356513;0.037109;0.025391;1.001953;
356723;0.036133;0.020508;0.998047;
356933;0.038086;0.024414;1.004883;
357149;0.037109;0.024414;0.992188;
357379;0.036133;0.025391;1.002930;
357613;0.036133;0.020508;1.004883;
357833;0.038086;0.026367;1.017578;
358043;0.040039;0.026367;1.048828;
358263;0.042969;0.025391;1.051758;
358473;0.045898;0.027344;1.082031;
358683;0.044922;0.023438;1.098633;
358903;0.049805;0.025391;1.123047;
359113;0.049805;0.021484;1.133789;
359333;0.050781;0.027344;1.128906;
359543;0.049805;0.021484;1.127930;
359763;0.050781;0.017578;1.121094;
359983;0.049805;0.022461;1.134766;
360193;0.050781;0.026367;1.114258;
360413;0.049805;0.026367;1.115234;
360630;0.047852;0.023438;1.110352;
360859;0.047852;0.026367;1.096680;
361069;0.042969;0.024414;1.088867;
361303;0.044922;0.022461;1.072266;
361523;0.041992;0.025391;1.052734;
361733;0.041016;0.020508;1.046875;
361953;0.043945;0.027344;1.053711;
362173;0.040039;0.022461;1.061523;
362393;0.040039;0.026367;1.044922;
362603;0.040039;0.026367;1.033203;
362813;0.036133;0.022461;1.015625;
363033;0.037109;0.027344;1.012695;
363253;0.040039;0.022461;1.013672;
363463;0.038086;0.024414;1.006836;
363683;0.038086;0.021484;1.025391;
363893;0.040039;0.021484;1.016602;
364113;0.036133;0.020508;1.032227;
364330;0.039062;0.026367;1.038086;
364559;0.040039;0.020508;1.031250;
364779;0.040039;0.023438;1.051758;
365013;0.041016;0.024414;1.046875;
365233;0.038086;0.026367;1.040039;
365443;0.040039;0.025391;1.038086;
365653;0.039062;0.023438;1.026367;
365863;0.036133;0.023438;1.002930;
366083;0.035156;0.021484;1.008789;
366303;0.039062;0.024414;1.026367;
366523;0.037109;0.020508;1.034180;
366733;0.041016;0.026367;1.063477;
366943;0.040039;0.023438;1.059570;
367153;0.041992;0.021484;1.059570;
367373;0.041016;0.020508;1.057617;
367593;0.040039;0.019531;1.042969;
367813;0.039062;0.022461;1.054688;
368029;0.041016;0.021484;1.061523;
368259;0.044922;0.023438;1.071289;
368493;0.045898;0.021484;1.083008;
368713;0.041992;0.026367;1.078125;
368933;0.045898;0.021484;1.083984;
369153;0.041992;0.026367;1.078125;
369363;0.044922;0.026367;1.085938;
369583;0.042969;0.023438;1.076172;
369793;0.043945;0.022461;1.078125;
370013;0.042969;0.022461;1.081055;
370223;0.042969;0.020508;1.063477;
370434;0.040039;0.022461;1.061523;
370653;0.039062;0.021484;1.033203;
370873;0.036133;0.024414;1.011719;
371093;0.036133;0.022461;1.006836;
371313;0.035156;0.018555;0.985352;
371529;0.035156;0.021484;0.982422;
371759;0.033203;0.020508;0.973633;
371998;0.032227;0.021484;0.950195;
372233;0.028320;0.023438;0.944336;
372443;0.031250;0.024414;0.936523;
372663;0.029297;0.022461;0.924805;
372873;0.027344;0.024414;0.927734;
373083;0.026367;0.023438;0.916016;
373303;0.030273;0.021484;0.932617;
373523;0.028320;0.026367;0.923828;
373743;0.028320;0.025391;0.932617;
373963;0.032227;0.023438;0.944336;
374173;0.029297;0.025391;0.950195;
374393;0.032227;0.024414;0.960938;
374614;0.030273;0.025391;0.953125;
374833;0.029297;0.024414;0.963867;
375039;0.030273;0.021484;0.947266;
375269;0.030273;0.023438;0.959961;
375499;0.033203;0.024414;0.998047;
375733;0.036133;0.023438;1.035156;
375953;0.043945;0.026367;1.076172;
376163;0.044922;0.025391;1.101562;
376373;0.046875;0.024414;1.117188;
376583;0.046875;0.025391;1.140625;
376803;0.048828;0.021484;1.134766;
377023;0.050781;0.025391;1.153320;
377233;0.047852;0.024414;1.135742;
377443;0.048828;0.023438;1.125977;
377663;0.046875;0.024414;1.094727;
377873;0.043945;0.026367;1.074219;
378083;0.040039;0.022461;1.051758;
378303;0.038086;0.022461;1.012695;
378513;0.037109;0.025391;1.003906;
378730;0.031250;0.020508;0.966797;
378959;0.032227;0.024414;0.960938;
379193;0.031250;0.022461;0.947266;
379414;0.030273;0.024414;0.946289;
379633;0.028320;0.023438;0.941406;
379853;0.026367;0.025391;0.935547;
380073;0.030273;0.030273;0.948242;
380283;0.030273;0.024414;0.949219;
380503;0.029297;0.024414;0.938477;
380723;0.032227;0.024414;0.955078;
380943;0.030273;0.025391;0.953125;
381153;0.031250;0.026367;0.961914;
381373;0.031250;0.025391;0.957031;
381593;0.027344;0.025391;0.957031;
381813;0.030273;0.026367;0.967773;
382023;0.032227;0.025391;0.957031;
382239;0.028320;0.022461;0.972656;
382459;0.030273;0.023438;0.958984;
382689;0.029297;0.022461;0.957031;
382903;0.032227;0.025391;0.973633;
383123;0.028320;0.022461;0.965820;
383343;0.031250;0.026367;0.987305;
383563;0.037109;0.021484;1.016602;
383773;0.040039;0.025391;1.045898;
383983;0.040039;0.026367;1.073242;
384203;0.044922;0.024414;1.100586;
384423;0.047852;0.026367;1.141602;
384633;0.050781;0.019531;1.148438;
384853;0.052734;0.027344;1.186523;
385073;0.054688;0.021484;1.186523;
385293;0.051758;0.026367;1.188477;
385513;0.057617;0.027344;1.200195;
385733;0.051758;0.026367;1.179688;
385949;0.053711;0.024414;1.181641;
386179;0.053711;0.024414;1.172852;
386413;0.050781;0.020508;1.164062;
386633;0.053711;0.025391;1.170898;
386843;0.050781;0.020508;1.160156;
387063;0.051758;0.026367;1.162109;
387283;0.052734;0.025391;1.150391;
387503;0.046875;0.025391;1.117188;
387713;0.044922;0.022461;1.100586;
387933;0.040039;0.024414;1.062500;
388143;0.039062;0.026367;1.036133;
388363;0.033203;0.022461;1.011719;
388573;0.036133;0.024414;0.985352;
388783;0.032227;0.024414;0.970703;
389003;0.027344;0.020508;0.946289;
389223;0.030273;0.023438;0.943359;
389441;0.024414;0.021484;0.931641;
389669;0.028320;0.023438;0.939453;
389899;0.030273;0.022461;0.943359;
390123;0.027344;0.026367;0.935547;
390333;0.030273;0.022461;0.942383;
390553;0.028320;0.018555;0.938477;
390763;0.027344;0.023438;0.944336;
390983;0.031250;0.019531;0.951172;
391193;0.029297;0.019531;0.958008;
391403;0.030273;0.022461;0.970703;
391623;0.030273;0.019531;0.963867;
391843;0.031250;0.026367;0.978516;
392063;0.028320;0.023438;0.969727;
392283;0.032227;0.018555;0.987305;
392503;0.036133;0.023438;1.019531;
392723;0.037109;0.021484;1.028320;
392929;0.043945;0.021484;1.073242;
393159;0.040039;0.022461;1.083984;
393401;0.041992;0.017578;1.076172;
393643;0.040039;0.023438;1.093750;
393863;0.043945;0.025391;1.085938;
394083;0.041992;0.022461;1.069336;
394303;0.040039;0.021484;1.067383;
394513;0.038086;0.019531;1.051758;
394733;0.041016;0.025391;1.050781;
394953;0.040039;0.024414;1.060547;
395173;0.040039;0.021484;1.063477;
395383;0.041992;0.023438;1.087891;
395603;0.041016;0.024414;1.073242;
395823;0.043945;0.024414;1.097656;
396043;0.042969;0.021484;1.097656;
396264;0.041992;0.017578;1.087891;
396479;0.042969;0.017578;1.105469;
396709;0.041016;0.026367;1.085938;
396938;0.040039;0.024414;1.081055;
397163;0.040039;0.026367;1.079102;
397383;0.039062;0.021484;1.054688;
397603;0.035156;0.024414;1.042969;
397823;0.037109;0.023438;1.042969;
398043;0.033203;0.023438;1.004883;
398253;0.035156;0.023438;1.011719;
398473;0.032227;0.021484;0.989258;
398683;0.029297;0.022461;0.973633;
398903;0.033203;0.022461;0.977539;
399123;0.026367;0.025391;0.956055;
399343;0.031250;0.024414;0.959961;
399553;0.027344;0.022461;0.951172;
399773;0.028320;0.024414;0.958008;
399993;0.031250;0.023438;0.959961;
400199;0.027344;0.024414;0.955078;
400418;0.026367;0.023438;0.965820;
400653;0.028320;0.021484;0.950195;
400863;0.030273;0.026367;0.970703;
401073;0.028320;0.022461;0.958984;
401293;0.026367;0.022461;0.965820;
401513;0.030273;0.026367;0.975586;
401733;0.029297;0.021484;0.962891;
401943;0.029297;0.024414;0.962891;
402163;0.026367;0.024414;0.973633;
402383;0.031250;0.022461;0.972656;
402603;0.031250;0.023438;0.980469;
402823;0.028320;0.023438;0.961914;
403033;0.031250;0.022461;0.977539;
403253;0.028320;0.023438;0.973633;
403473;0.030273;0.022461;0.978516;
403689;0.030273;0.020508;0.973633;
403919;0.029297;0.026367;0.971680;
404150;0.031250;0.023438;0.982422;
404373;0.027344;0.029297;0.975586;
404594;0.028320;0.023438;0.962891;
404804;0.034180;0.029297;0.984375;
405023;0.028320;0.029297;0.962891;
405243;0.032227;0.025391;0.977539;
405453;0.031250;0.023438;0.984375;
405663;0.032227;0.028320;0.999023;
405873;0.033203;0.025391;1.015625;
406093;0.035156;0.023438;1.020508;
406313;0.035156;0.030273;1.045898;
406533;0.035156;0.022461;1.039062;
406753;0.038086;0.025391;1.077148;
406963;0.038086;0.027344;1.101562;
407183;0.044922;0.026367;1.106445;
407414;0.043945;0.023438;1.130859;
407649;0.042969;0.022461;1.126953;
407883;0.041992;0.023438;1.105469;
408093;0.041016;0.022461;1.095703;
408303;0.041016;0.023438;1.074219;
408523;0.038086;0.023438;1.069336;
408743;0.040039;0.021484;1.046875;
408963;0.033203;0.024414;1.017578;
409183;0.033203;0.027344;1.011719;
409393;0.031250;0.025391;1.000000;
409603;0.031250;0.028320;0.990234;
409823;0.030273;0.026367;0.990234;
410043;0.029297;0.027344;0.977539;
410263;0.030273;0.027344;0.982422;
410473;0.027344;0.025391;0.975586;
410693;0.031250;0.024414;0.976562;
410899;0.027344;0.025391;0.969727;
411129;0.028320;0.023438;0.980469;
411339;0.029297;0.026367;0.978516;
411569;0.027344;0.026367;0.978516;
411813;0.030273;0.029297;0.974609;
412033;0.031250;0.028320;0.996094;
412243;0.029297;0.022461;1.009766;
412463;0.034180;0.025391;1.034180;
412683;0.036133;0.027344;1.046875;
412903;0.035156;0.026367;1.042969;
413113;0.040039;0.023438;1.051758;
413323;0.036133;0.020508;1.051758;
413533;0.036133;0.027344;1.079102;
413753;0.040039;0.023438;1.084961;
413973;0.039062;0.025391;1.090820;
414193;0.041992;0.021484;1.118164;
414413;0.040039;0.028320;1.106445;
414633;0.039062;0.027344;1.096680;
414839;0.038086;0.023438;1.070312;
415063;0.035156;0.023438;1.050781;
415283;0.036133;0.023438;1.041992;
415499;0.032227;0.023438;1.013672;
415743;0.033203;0.024414;1.000977;
415963;0.031250;0.023438;0.993164;
416183;0.028320;0.019531;0.974609;
416403;0.030273;0.019531;0.970703;
416623;0.027344;0.018555;0.974609;
416844;0.026367;0.021484;0.964844;
417053;0.029297;0.018555;0.971680;
417273;0.027344;0.020508;0.969727;
417493;0.027344;0.024414;0.967773;
417703;0.028320;0.024414;0.963867;
417923;0.024414;0.019531;0.965820;
418143;0.028320;0.021484;0.980469;
418363;0.028320;0.024414;0.976562;
418573;0.026367;0.025391;0.973633;
418789;0.027344;0.020508;0.978516;
419010;0.027344;0.019531;0.968750;
419229;0.028320;0.025391;0.979492;
419443;0.027344;0.017578;0.969727;
419663;0.024414;0.024414;0.969727;
419873;0.027344;0.019531;0.977539;
420093;0.025391;0.021484;0.957031;
420303;0.023438;0.022461;0.966797;
420523;0.023438;0.020508;0.954102;
420743;0.024414;0.020508;0.953125;
420963;0.024414;0.023438;0.952148;
421183;0.023438;0.021484;0.935547;
421393;0.026367;0.022461;0.946289;
421613;0.022461;0.021484;0.938477;
421833;0.024414;0.026367;0.929688;
422053;0.022461;0.024414;0.936523;
422273;0.020508;0.024414;0.921875;
422490;0.019531;0.028320;0.932617;
422719;0.020508;0.027344;0.937500;
422963;0.023438;0.024414;0.940430;
423183;0.023438;0.032227;0.946289;
423403;0.024414;0.028320;0.955078;
423613;0.023438;0.028320;0.958008;
423823;0.023438;0.031250;0.977539;
424043;0.025391;0.026367;0.978516;
424253;0.024414;0.027344;0.982422;
424474;0.026367;0.022461;0.994141;
424693;0.026367;0.026367;0.984375;
424913;0.023438;0.023438;0.994141;
425123;0.029297;0.027344;0.997070;
425343;0.022461;0.024414;0.993164;
425553;0.025391;0.027344;1.007812;
425773;0.025391;0.023438;0.989258;
425990;0.027344;0.024414;1.006836;
426220;0.024414;0.027344;1.001953;
426449;0.023438;0.030273;0.998047;
426683;0.027344;0.024414;0.994141;
426903;0.024414;0.028320;1.003906;
427123;0.023438;0.027344;1.005859;
427343;0.020508;0.023438;1.000000;
427563;0.020508;0.028320;1.015625;
427783;0.020508;0.017578;1.000977;
428003;0.022461;0.025391;1.014648;
428223;0.023438;0.022461;1.005859;
428443;0.019531;0.020508;0.986328;
428653;0.018555;0.017578;0.965820;
428873;0.016602;0.017578;0.962891;
429083;0.017578;0.021484;0.968750;
