Time;acc_x;acc_y;acc_z;

603953;-0.007812;0.018555;1.072266;
604175;-0.008789;0.021484;1.062500;
604325;-0.006836;0.018555;1.038086;
604465;-0.007812;0.016602;1.035156;
604605;-0.007812;0.017578;1.005859;
604745;-0.007812;0.018555;0.983398;
604885;-0.012695;0.018555;0.978516;
605025;-0.011719;0.020508;0.963867;
605165;-0.009766;0.019531;0.997070;
605305;-0.009766;0.022461;0.995117;
605445;-0.008789;0.018555;1.000977;
605585;-0.005859;0.020508;1.003906;
605725;-0.007812;0.017578;1.003906;
605865;-0.008789;0.017578;1.001953;
606005;-0.009766;0.020508;1.008789;
606145;-0.008789;0.013672;1.014648;
606285;-0.005859;0.019531;1.025391;
606425;-0.006836;0.015625;1.028320;
606560;-0.007812;0.016602;1.041992;
606710;-0.005859;0.018555;1.044922;
606850;-0.007812;0.018555;1.047852;
607001;-0.006836;0.016602;1.033203;
607145;-0.004883;0.018555;1.042969;
607281;-0.007812;0.018555;1.025391;
607425;-0.010742;0.021484;1.039062;
607550;-0.008789;0.021484;1.034180;
607700;-0.009766;0.021484;1.017578;
607845;-0.007812;0.020508;1.021484;
607985;-0.007812;0.023438;1.034180;
608125;-0.006836;0.024414;1.027344;
608265;-0.006836;0.023438;1.028320;
608405;-0.007812;0.016602;1.025391;
608545;-0.005859;0.014648;1.016602;
608685;-0.005859;0.020508;1.027344;
608835;-0.007812;0.022461;1.015625;
608975;-0.011719;0.024414;1.019531;
609115;-0.010742;0.021484;1.014648;
609255;-0.007812;0.021484;1.017578;
609395;-0.007812;0.017578;1.017578;
609545;-0.008789;0.017578;1.019531;
609680;-0.005859;0.018555;1.025391;
609831;-0.006836;0.019531;1.026367;
609980;-0.006836;0.021484;1.030273;
610130;-0.005859;0.021484;1.031250;
610282;-0.009766;0.013672;1.023438;
610435;-0.004883;0.016602;1.041992;
610575;-0.008789;0.021484;1.035156;
610715;-0.007812;0.013672;1.052734;
610855;-0.006836;0.020508;1.063477;
610995;-0.003906;0.016602;1.083008;
611135;-0.004883;0.016602;1.092773;
611275;-0.006836;0.017578;1.099609;
611415;-0.003906;0.022461;1.113281;
611555;-0.000977;0.015625;1.107422;
611695;-0.002930;0.023438;1.118164;
611835;-0.001953;0.021484;1.102539;
611975;-0.004883;0.023438;1.094727;
612115;-0.003906;0.021484;1.074219;
612265;-0.004883;0.021484;1.080078;
612402;-0.006836;0.023438;1.059570;
612550;-0.008789;0.020508;1.057617;
612711;-0.006836;0.018555;1.042969;
612865;-0.008789;0.018555;1.045898;
613005;-0.006836;0.016602;1.039062;
613145;-0.009766;0.017578;1.026367;
613285;-0.009766;0.021484;1.033203;
613425;-0.006836;0.023438;1.036133;
613575;-0.007812;0.017578;1.032227;
613715;-0.003906;0.025391;1.035156;
613855;-0.006836;0.015625;1.029297;
613995;-0.006836;0.018555;1.036133;
614135;-0.005859;0.019531;1.032227;
614285;-0.006836;0.020508;1.037109;
614425;-0.008789;0.016602;1.030273;
614565;-0.008789;0.023438;1.040039;
614705;-0.010742;0.020508;1.017578;
614840;-0.010742;0.019531;1.026367;
615000;-0.006836;0.021484;1.033203;
615165;-0.009766;0.021484;1.032227;
615301;-0.008789;0.025391;1.033203;
615450;-0.008789;0.025391;1.033203;
615605;-0.006836;0.023438;1.034180;
615745;-0.007812;0.018555;1.039062;
615885;-0.005859;0.016602;1.043945;
616035;-0.005859;0.021484;1.038086;
616175;-0.003906;0.016602;1.046875;
616315;-0.006836;0.023438;1.046875;
616465;-0.006836;0.024414;1.042969;
616605;-0.008789;0.023438;1.042969;
616747;-0.008789;0.024414;1.041016;
616895;-0.007812;0.024414;1.041992;
617035;-0.006836;0.023438;1.045898;
617175;-0.005859;0.023438;1.047852;
617315;-0.006836;0.020508;1.046875;
617455;-0.002930;0.024414;1.057617;
617590;-0.004883;0.021484;1.064453;
617740;-0.004883;0.023438;1.080078;
617890;-0.006836;0.016602;1.068359;
618020;-0.005859;0.020508;1.071289;
618171;-0.002930;0.013672;1.072266;
618325;-0.007812;0.019531;1.070312;
618475;-0.000977;0.012695;1.075195;
618615;-0.002930;0.022461;1.082031;
618755;-0.004883;0.014648;1.057617;
618895;-0.006836;0.019531;1.054688;
619035;-0.004883;0.017578;1.051758;
619175;-0.003906;0.020508;1.040039;
619325;-0.006836;0.020508;1.034180;
619465;-0.006836;0.027344;1.032227;
619605;-0.006836;0.022461;1.030273;
619745;-0.006836;0.020508;1.018555;
619885;-0.006836;0.026367;1.000977;
620025;-0.009766;0.022461;1.010742;
620165;-0.008789;0.014648;1.000000;
620290;-0.009766;0.020508;0.995117;
620441;-0.010742;0.014648;1.000977;
620581;-0.005859;0.015625;1.005859;
620710;-0.006836;0.015625;1.011719;
620861;-0.006836;0.016602;0.996094;
621015;-0.006836;0.016602;1.002930;
621155;-0.006836;0.020508;0.999023;
621295;-0.010742;0.020508;0.992188;
621435;-0.009766;0.025391;0.996094;
621575;-0.009766;0.024414;1.005859;
621725;-0.006836;0.028320;1.016602;
621865;-0.008789;0.020508;1.020508;
622005;-0.008789;0.025391;1.040039;
622145;-0.004883;0.022461;1.043945;
622285;-0.003906;0.024414;1.062500;
622425;-0.004883;0.019531;1.074219;
622565;-0.004883;0.025391;1.073242;
622705;-0.003906;0.019531;1.084961;
622845;-0.004883;0.020508;1.079102;
622980;-0.002930;0.025391;1.067383;
623131;-0.004883;0.022461;1.062500;
623260;-0.006836;0.019531;1.052734;
623400;-0.002930;0.021484;1.045898;
623560;-0.010742;0.014648;1.021484;
623715;-0.008789;0.017578;1.013672;
623855;-0.006836;0.019531;1.006836;
623995;-0.005859;0.014648;0.997070;
624135;-0.006836;0.013672;1.006836;
624275;-0.004883;0.016602;1.005859;
624425;-0.006836;0.012695;0.990234;
624565;-0.008789;0.020508;0.998047;
624705;-0.007812;0.019531;1.005859;
624855;-0.006836;0.019531;1.000000;
624995;-0.009766;0.019531;0.994141;
625135;-0.006836;0.019531;1.001953;
625275;-0.008789;0.021484;0.996094;
625415;-0.011719;0.018555;0.988281;
625555;-0.009766;0.016602;0.989258;
625690;-0.006836;0.023438;1.015625;
625834;-0.008789;0.015625;1.012695;
625971;-0.006836;0.015625;1.013672;
626121;-0.010742;0.015625;1.012695;
626271;-0.005859;0.020508;1.017578;
626420;-0.007812;0.019531;1.029297;
626575;-0.004883;0.019531;1.038086;
626725;-0.004883;0.017578;1.038086;
626865;-0.006836;0.018555;1.038086;
627005;-0.006836;0.014648;1.037109;
627145;-0.008789;0.022461;1.027344;
627285;-0.006836;0.017578;1.026367;
627435;0.000000;0.021484;1.028320;
627575;-0.000977;0.013672;1.012695;
627715;-0.001953;0.024414;1.016602;
627855;0.004883;0.022461;0.993164;
627995;0.008789;0.019531;1.008789;
628135;0.015625;0.021484;0.995117;
628275;0.018555;0.021484;1.000000;
628415;0.024414;0.027344;1.025391;
628555;0.028320;0.022461;1.044922;
628695;0.033203;0.024414;1.055664;
628830;0.037109;0.023438;1.083008;
628971;0.046875;0.023438;1.085938;
629121;0.059570;0.025391;1.130859;
629281;0.064453;0.020508;1.151367;
629435;0.070312;0.021484;1.164062;
629575;0.075195;0.013672;1.173828;
629715;0.077148;0.023438;1.170898;
629855;0.082031;0.020508;1.173828;
629995;0.083008;0.023438;1.160156;
630135;0.083984;0.019531;1.138672;
630275;0.085938;0.016602;1.098633;
630425;0.091797;0.017578;1.060547;
630565;0.088867;0.020508;1.003906;
630705;0.091797;0.021484;0.969727;
630855;0.089844;0.019531;0.962891;
630995;0.091797;0.016602;0.940430;
631135;0.088867;0.018555;0.911133;
631275;0.092773;0.012695;0.923828;
631410;0.092773;0.017578;0.925781;
631560;0.088867;0.024414;0.940430;
631710;0.098633;0.021484;0.963867;
631860;0.093750;0.019531;0.978516;
632025;0.097656;0.016602;0.988281;
632175;0.099609;0.022461;1.013672;
632315;0.098633;0.015625;1.006836;
632455;0.095703;0.022461;1.004883;
632595;0.095703;0.015625;0.991211;
632735;0.097656;0.017578;0.975586;
632885;0.096680;0.022461;0.969727;
633025;0.095703;0.028320;0.960938;
633165;0.093750;0.015625;0.959961;
633305;0.093750;0.021484;0.953125;
633445;0.094727;0.020508;0.954102;
633595;0.091797;0.019531;0.971680;
633735;0.091797;0.020508;0.970703;
633875;0.091797;0.020508;0.989258;
634010;0.092773;0.018555;1.008789;
634170;0.093750;0.018555;1.022461;
634320;0.094727;0.014648;1.015625;
634480;0.094727;0.019531;1.022461;
634645;0.095703;0.013672;1.026367;
634785;0.094727;0.021484;1.040039;
634925;0.097656;0.013672;1.043945;
635065;0.099609;0.020508;1.042969;
635205;0.097656;0.021484;1.047852;
635345;0.094727;0.018555;1.013672;
635485;0.091797;0.025391;1.037109;
635625;0.091797;0.020508;1.034180;
635765;0.089844;0.018555;1.050781;
635915;0.092773;0.014648;1.071289;
636055;0.095703;0.017578;1.105469;
636195;0.090820;0.017578;1.111328;
636335;0.099609;0.012695;1.122070;
636475;0.095703;0.017578;1.130859;
636610;0.092773;0.018555;1.098633;
636760;0.096680;0.017578;1.110352;
636910;0.098633;0.019531;1.128906;
637060;0.090820;0.016602;1.119141;
637205;0.096680;0.017578;1.108398;
637345;0.093750;0.023438;1.083984;
637485;0.094727;0.017578;1.107422;
637625;0.093750;0.020508;1.086914;
637765;0.091797;0.012695;1.065430;
637905;0.092773;0.017578;1.050781;
638045;0.094727;0.016602;1.030273;
638185;0.094727;0.018555;1.024414;
638325;0.087891;0.013672;1.008789;
638465;0.086914;0.014648;0.998047;
638605;0.085938;0.015625;1.015625;
638745;0.086914;0.022461;1.016602;
638895;0.083984;0.016602;0.991211;
639035;0.084961;0.017578;0.996094;
639170;0.088867;0.016602;0.990234;
639320;0.083008;0.025391;0.984375;
639470;0.088867;0.020508;0.978516;
639621;0.089844;0.017578;0.979492;
639775;0.085938;0.016602;0.961914;
639915;0.083008;0.021484;0.968750;
640055;0.082031;0.020508;0.964844;
640195;0.086914;0.017578;0.974609;
640335;0.084961;0.015625;0.976562;
640475;0.089844;0.022461;0.986328;
640615;0.086914;0.023438;1.002930;
640755;0.084961;0.016602;1.012695;
640895;0.083984;0.014648;1.020508;
641045;0.084961;0.016602;1.020508;
641185;0.086914;0.017578;1.033203;
641325;0.087891;0.020508;1.042969;
641465;0.086914;0.022461;1.017578;
641605;0.087891;0.023438;1.013672;
641740;0.087891;0.019531;1.011719;
641890;0.084961;0.023438;1.012695;
642050;0.080078;0.020508;1.017578;
642205;0.081055;0.019531;1.001953;
642345;0.083008;0.018555;1.018555;
642485;0.083008;0.019531;1.021484;
642625;0.087891;0.020508;1.005859;
642765;0.084961;0.019531;1.011719;
642905;0.083008;0.021484;1.030273;
643045;0.082031;0.019531;1.040039;
643195;0.083008;0.022461;1.053711;
643335;0.086914;0.022461;1.061523;
643475;0.083008;0.022461;1.057617;
643615;0.086914;0.015625;1.019531;
643755;0.083008;0.020508;1.007812;
643895;0.080078;0.012695;1.017578;
644035;0.078125;0.017578;1.005859;
644175;0.083984;0.019531;1.019531;
644310;0.082031;0.016602;1.000000;
644460;0.081055;0.018555;0.979492;
644612;0.081055;0.019531;0.971680;
644750;0.080078;0.017578;0.974609;
644905;0.077148;0.011719;0.978516;
645045;0.079102;0.020508;0.995117;
645185;0.078125;0.011719;0.997070;
645325;0.080078;0.021484;0.992188;
645465;0.080078;0.014648;0.992188;
645615;0.080078;0.021484;0.985352;
645755;0.075195;0.017578;1.006836;
645895;0.076172;0.018555;1.003906;
646035;0.078125;0.018555;1.006836;
646175;0.079102;0.023438;1.026367;
646325;0.078125;0.019531;1.036133;
646465;0.080078;0.017578;1.022461;
646605;0.082031;0.016602;1.037109;
646755;0.077148;0.015625;1.065430;
646895;0.077148;0.019531;1.074219;
647035;0.083984;0.018555;1.075195;
647171;0.079102;0.025391;1.093750;
647300;0.079102;0.013672;1.132812;
647441;0.079102;0.014648;1.183594;
647600;0.083984;0.019531;1.248047;
647760;0.087891;0.023438;1.325195;
647915;0.092773;0.020508;1.407227;
648055;0.095703;0.014648;1.445312;
648195;0.099609;0.020508;1.514648;
648335;0.102539;0.014648;1.561523;
648475;0.107422;0.009766;1.625977;
648625;0.111328;0.016602;1.673828;
648765;0.109375;0.014648;1.712891;
648905;0.114258;0.015625;1.739258;
649045;0.121094;0.014648;1.760742;
649185;0.115234;0.018555;1.782227;
649325;0.121094;0.015625;1.806641;
649465;0.121094;0.011719;1.807617;
649605;0.124023;0.017578;1.823242;
649745;0.123047;0.020508;1.820312;
649880;0.124023;0.015625;1.829102;
650031;0.120117;0.020508;1.836914;
650180;0.123047;0.015625;1.849609;
650320;0.122070;0.017578;1.856445;
650475;0.124023;0.014648;1.861328;
650615;0.126953;0.009766;1.852539;
650755;0.127930;0.011719;1.872070;
650895;0.125977;0.020508;1.895508;
651035;0.129883;0.015625;1.896484;
651185;0.125977;0.008789;1.902344;
651325;0.128906;0.012695;1.906250;
651465;0.132812;0.016602;1.916016;
651615;0.127930;0.011719;1.903320;
651755;0.131836;0.014648;1.916016;
651895;0.129883;0.007812;1.908203;
652035;0.128906;0.012695;1.922852;
652175;0.130859;0.010742;1.904297;
652315;0.132812;0.015625;1.907227;
652450;0.131836;0.011719;1.894531;
652600;0.129883;0.013672;1.901367;
652750;0.134766;0.014648;1.897461;
652900;0.134766;0.015625;1.896484;
653055;0.130859;0.017578;1.895508;
653195;0.136719;0.016602;1.884766;
653335;0.135742;0.020508;1.890625;
653475;0.132812;0.008789;1.871094;
653615;0.134766;0.012695;1.880859;
653765;0.132812;0.008789;1.870117;
653905;0.127930;0.011719;1.878906;
654045;0.133789;0.011719;1.879883;
654185;0.133789;0.007812;1.862305;
654325;0.136719;0.003906;1.856445;
654475;0.136719;0.008789;1.860352;
654615;0.134766;0.007812;1.837891;
654755;0.136719;0.011719;1.847656;
654895;0.133789;0.011719;1.854492;
655030;0.135742;0.016602;1.839844;
655180;0.140625;0.022461;1.847656;
655330;0.135742;0.019531;1.836914;
655480;0.135742;0.021484;1.841797;
655621;0.134766;0.020508;1.845703;
655765;0.137695;0.016602;1.851562;
655905;0.138672;0.019531;1.854492;
656045;0.140625;0.018555;1.855469;
656185;0.141602;0.021484;1.855469;
656325;0.141602;0.021484;1.851562;
656465;0.141602;0.020508;1.859375;
656605;0.144531;0.021484;1.855469;
656745;0.147461;0.017578;1.854492;
656885;0.145508;0.018555;1.880859;
657025;0.146484;0.023438;1.886719;
657165;0.149414;0.028320;1.897461;
657305;0.150391;0.017578;1.888672;
657445;0.150391;0.016602;1.907227;
657585;0.151367;0.020508;1.914062;
657720;0.153320;0.012695;1.908203;
657871;0.153320;0.000000;1.888672;
658020;0.159180;-0.002930;1.881836;
658170;0.158203;-0.015625;1.878906;
658325;0.157227;-0.015625;1.885742;
658465;0.161133;-0.013672;1.887695;
658615;0.162109;-0.009766;1.887695;
658755;0.159180;-0.008789;1.895508;
658895;0.158203;-0.001953;1.878906;
659035;0.160156;0.000977;1.891602;
659175;0.157227;0.012695;1.880859;
659315;0.159180;0.012695;1.895508;
659455;0.158203;0.029297;1.884766;
659595;0.157227;0.022461;1.880859;
659735;0.161133;0.016602;1.883789;
659885;0.154297;0.016602;1.854492;
660025;0.159180;0.020508;1.852539;
660165;0.159180;0.002930;1.839844;
660300;0.162109;0.006836;1.840820;
660451;0.163086;0.001953;1.844727;
660600;0.165039;-0.003906;1.848633;
660740;0.164062;-0.004883;1.853516;
660890;0.167969;-0.000977;1.859375;
661025;0.166992;0.000977;1.851562;
661165;0.171875;0.008789;1.867188;
661305;0.170898;0.008789;1.875000;
661445;0.172852;0.011719;1.867188;
661585;0.171875;0.008789;1.867188;
661725;0.176758;0.010742;1.875000;
661875;0.179688;0.000977;1.875977;
662015;0.180664;0.005859;1.881836;
662155;0.177734;0.005859;1.893555;
662305;0.180664;0.009766;1.879883;
662445;0.179688;0.013672;1.874023;
662585;0.184570;0.018555;1.872070;
662725;0.184570;0.017578;1.878906;
662865;0.183594;0.020508;1.887695;
663010;0.185547;0.026367;1.882812;
663160;0.183594;0.023438;1.875977;
663310;0.181641;0.018555;1.876953;
663451;0.187500;0.016602;1.882812;
663590;0.189453;0.016602;1.866211;
663740;0.187500;0.020508;1.871094;
663895;0.188477;0.019531;1.874023;
664035;0.192383;0.019531;1.841797;
664185;0.189453;0.018555;1.836914;
664325;0.192383;0.016602;1.833984;
664465;0.198242;0.024414;1.835938;
664605;0.195312;0.023438;1.847656;
664745;0.197266;0.014648;1.819336;
664885;0.198242;0.011719;1.816406;
665025;0.199219;0.005859;1.797852;
665165;0.197266;0.005859;1.785156;
665305;0.199219;0.005859;1.787109;
665445;0.200195;0.004883;1.769531;
665585;0.197266;0.001953;1.768555;
665735;0.202148;0.004883;1.806641;
665870;0.201172;0.002930;1.782227;
666015;0.201172;0.007812;1.765625;
666151;0.200195;0.016602;1.760742;
666280;0.202148;0.013672;1.754883;
666432;0.200195;0.014648;1.724609;
666582;0.200195;0.025391;1.700195;
666721;0.202148;0.020508;1.661133;
666885;0.198242;0.020508;1.668945;
667025;0.202148;0.019531;1.657227;
667165;0.198242;0.022461;1.659180;
667305;0.193359;0.018555;1.621094;
667445;0.188477;0.019531;1.598633;
667585;0.184570;0.017578;1.576172;
667725;0.176758;0.020508;1.543945;
667865;0.168945;0.024414;1.525391;
668005;0.161133;0.021484;1.507812;
668155;0.151367;0.019531;1.458984;
668295;0.141602;0.016602;1.417969;
668435;0.126953;0.019531;1.337891;
668575;0.112305;0.007812;1.278320;
668715;0.096680;0.011719;1.173828;
668855;0.081055;0.005859;1.076172;
668990;0.067383;0.000977;0.949219;
669140;0.052734;0.001953;0.868164;
669280;0.043945;0.000977;0.710938;
669431;0.027344;0.000977;0.604492;
669595;0.021484;0.009766;0.491211;
669735;0.018555;0.008789;0.399414;
669875;0.012695;0.016602;0.301758;
670025;0.004883;0.017578;0.225586;
670165;0.006836;0.022461;0.159180;
670305;0.006836;0.025391;0.115234;
670455;0.005859;0.025391;0.067383;
670595;0.003906;0.027344;0.049805;
670735;0.003906;0.029297;0.027344;
670875;0.001953;0.030273;0.022461;
671015;0.001953;0.028320;0.009766;
671165;0.000000;0.026367;0.009766;
671305;0.001953;0.026367;-0.011719;
671445;0.019531;0.024414;0.063477;
671581;0.000977;0.025391;-0.002930;
671730;-0.002930;0.031250;-0.000977;
671880;0.000000;0.030273;0.019531;
672030;-0.003906;0.029297;0.011719;
672180;-0.003906;0.031250;0.020508;
672325;-0.000977;0.033203;0.032227;
672465;-0.001953;0.031250;0.025391;
672605;-0.003906;0.031250;0.032227;
672755;-0.004883;0.029297;0.030273;
672895;-0.003906;0.030273;0.023438;
673035;-0.007812;0.035156;0.008789;
673175;-0.008789;0.031250;0.008789;
673315;-0.003906;0.029297;0.032227;
673441;-0.003906;0.028320;0.037109;
673585;-0.004883;0.030273;0.039062;
673725;-0.007812;0.026367;0.043945;
673865;-0.006836;0.025391;0.043945;
674006;-0.004883;0.025391;0.038086;
674165;-0.004883;0.027344;0.041016;
674301;-0.008789;0.026367;0.042969;
674450;-0.008789;0.028320;0.029297;
674580;-0.010742;0.029297;0.029297;
674791;-0.004883;0.030273;0.027344;
675025;-0.006836;0.034180;0.031250;
675245;-0.013672;0.029297;0.018555;
675465;-0.008789;0.029297;0.018555;
675675;-0.017578;0.025391;0.040039;
675885;-0.010742;0.025391;0.018555;
676105;-0.008789;0.028320;0.021484;
676325;-0.010742;0.029297;0.027344;
676535;-0.015625;0.029297;0.015625;
676755;-0.015625;0.031250;0.004883;
676975;-0.014648;0.032227;0.007812;
677195;-0.014648;0.032227;0.015625;
677415;-0.014648;0.032227;0.013672;
677625;-0.013672;0.030273;0.023438;
677845;-0.015625;0.035156;0.007812;
678060;-0.014648;0.031250;0.026367;
678300;-0.014648;0.030273;0.025391;
678540;-0.012695;0.030273;0.027344;
678775;-0.016602;0.033203;0.024414;
678985;-0.013672;0.033203;0.030273;
679200;-0.015625;0.027344;0.028320;
679425;-0.017578;0.031250;0.021484;
679645;-0.015625;0.028320;0.026367;
679865;-0.013672;0.026367;0.017578;
680075;-0.015625;0.025391;0.026367;
680295;-0.017578;0.033203;0.014648;
680515;-0.014648;0.032227;0.009766;
680725;-0.016602;0.033203;0.019531;
680945;-0.015625;0.030273;0.015625;
681165;-0.034180;0.050781;-0.005859;
681385;-0.014648;0.029297;0.028320;
681600;-0.015625;0.024414;0.023438;
681840;-0.016602;0.026367;0.022461;
682070;-0.015625;0.029297;0.019531;
682315;-0.015625;0.025391;0.019531;
682525;-0.016602;0.028320;0.020508;
682745;-0.019531;0.026367;0.016602;
682965;-0.015625;0.020508;0.025391;
683185;-0.019531;0.024414;0.014648;
683395;-0.016602;0.021484;0.010742;
683615;-0.016602;0.025391;0.022461;
683825;-0.014648;0.023438;0.020508;
684045;-0.020508;0.024414;0.019531;
684255;-0.017578;0.023438;0.022461;
684465;-0.019531;0.023438;0.023438;
684675;-0.016602;0.024414;0.024414;
684895;-0.018555;0.025391;0.019531;
685115;-0.020508;0.022461;0.015625;
685330;-0.017578;0.023438;0.022461;
685560;-0.019531;0.022461;0.026367;
685785;-0.018555;0.022461;0.020508;
686005;-0.018555;0.024414;0.019531;
686215;-0.019531;0.027344;0.008789;
686435;-0.018555;0.023438;0.022461;
686655;-0.020508;0.025391;0.004883;
686875;-0.019531;0.013672;0.011719;
687085;-0.021484;0.030273;0.010742;
687295;-0.021484;0.028320;-0.001953;
687515;-0.023438;0.026367;0.005859;
687735;-0.022461;0.026367;-0.003906;
687945;-0.024414;0.028320;-0.000977;
688165;-0.024414;0.024414;0.000000;
688375;-0.025391;0.024414;-0.001953;
688595;-0.022461;0.027344;0.006836;
688810;-0.027344;0.023438;-0.000977;
689040;-0.025391;0.021484;0.010742;
689270;-0.024414;0.026367;0.000000;
689505;-0.025391;0.028320;0.006836;
689725;-0.027344;0.023438;0.004883;
689945;-0.027344;0.027344;0.002930;
690165;-0.029297;0.027344;0.019531;
690380;-0.030273;0.024414;0.011719;
690605;-0.027344;0.026367;0.011719;
690825;-0.029297;0.028320;0.017578;
691035;-0.030273;0.029297;0.020508;
691255;-0.033203;0.026367;0.012695;
691475;-0.035156;0.028320;0.006836;
691695;-0.032227;0.032227;0.016602;
691905;-0.036133;0.030273;0.006836;
692125;-0.036133;0.024414;0.007812;
692330;-0.034180;0.024414;0.011719;
692560;-0.034180;0.025391;0.002930;
692785;-0.034180;0.026367;-0.006836;
693001;-0.034180;0.025391;-0.016602;
693235;-0.041992;0.023438;-0.026367;
693455;-0.038086;0.022461;-0.006836;
693665;-0.044922;0.015625;0.016602;
693885;-0.047852;0.016602;0.066406;
694105;-0.048828;0.018555;0.161133;
694315;-0.042969;0.023438;0.348633;
694535;-0.033203;0.023438;0.516602;
694745;-0.024414;0.024414;0.668945;
694956;-0.004883;0.019531;0.889648;
695165;0.006836;0.015625;1.027344;
695375;0.015625;0.021484;1.149414;
695595;0.027344;0.027344;1.266602;
695815;0.033203;0.025391;1.313477;
696025;0.042969;0.027344;1.382812;
696230;0.046875;0.031250;1.418945;
696460;0.051758;0.031250;1.454102;
696690;0.050781;0.037109;1.476562;
696915;0.044922;0.041016;1.494141;
697135;0.042969;0.046875;1.520508;
697345;0.044922;0.042969;1.539062;
697565;0.045898;0.038086;1.571289;
697785;0.047852;0.026367;1.598633;
698005;0.051758;0.025391;1.639648;
698225;0.054688;0.024414;1.673828;
698435;0.050781;0.020508;1.699219;
698655;0.055664;0.022461;1.725586;
698875;0.052734;0.017578;1.761719;
699095;0.047852;0.019531;1.748047;
699315;0.044922;0.026367;1.788086;
699525;0.044922;0.017578;1.765625;
699746;0.043945;0.016602;1.766602;
699971;0.042969;0.010742;1.764648;
700201;0.040039;0.008789;1.759766;
700423;0.039062;0.010742;1.773438;
700645;0.036133;0.017578;1.790039;
700865;0.039062;0.022461;1.809570;
701075;0.034180;0.031250;1.824219;
701295;0.033203;0.032227;1.834961;
701505;0.032227;0.031250;1.847656;
701715;0.032227;0.019531;1.847656;
701935;0.034180;0.018555;1.860352;
702145;0.033203;0.014648;1.853516;
702365;0.030273;0.012695;1.861328;
702575;0.028320;0.018555;1.864258;
702795;0.028320;0.021484;1.867188;
703015;0.023438;0.021484;1.863281;
703225;0.022461;0.017578;1.852539;
703435;0.019531;0.020508;1.849609;
703651;0.017578;0.017578;1.836914;
703872;0.014648;0.023438;1.830078;
704080;0.011719;0.027344;1.833984;
704310;0.007812;0.033203;1.826172;
704535;0.009766;0.037109;1.831055;
704755;0.007812;0.030273;1.828125;
704975;0.005859;0.026367;1.828125;
705195;0.006836;0.022461;1.831055;
705415;0.007812;0.023438;1.833984;
705625;0.003906;0.027344;1.833984;
705835;0.001953;0.019531;1.835938;
706055;0.005859;0.015625;1.836914;
706275;0.004883;0.021484;1.854492;
706485;0.002930;0.021484;1.847656;
706695;-0.001953;0.022461;1.839844;
706915;-0.004883;0.023438;1.816406;
707125;-0.007812;0.018555;1.790039;
707340;-0.010742;0.024414;1.769531;
707560;-0.014648;0.015625;1.727539;
707781;-0.019531;0.007812;1.693359;
708011;-0.020508;0.009766;1.654297;
708235;-0.025391;0.009766;1.623047;
708455;-0.030273;0.017578;1.599609;
708665;-0.032227;0.019531;1.581055;
708885;-0.034180;0.024414;1.577148;
709105;-0.036133;0.026367;1.567383;
709325;-0.038086;0.031250;1.555664;
709535;-0.042969;0.032227;1.542969;
709755;-0.043945;0.026367;1.515625;
709965;-0.043945;0.033203;1.506836;
710185;-0.048828;0.028320;1.474609;
710395;-0.051758;0.027344;1.454102;
710615;-0.050781;0.024414;1.430664;
710835;-0.050781;0.017578;1.416016;
711050;-0.050781;0.010742;1.404297;
711280;-0.051758;0.006836;1.403320;
711491;-0.053711;0.003906;1.400391;
711722;-0.054688;0.001953;1.400391;
711945;-0.055664;0.008789;1.399414;
712165;-0.055664;0.009766;1.397461;
712385;-0.058594;0.011719;1.384766;
712595;-0.062500;0.014648;1.369141;
712805;-0.062500;0.014648;1.351562;
713025;-0.065430;0.020508;1.335938;
713245;-0.065430;0.015625;1.319336;
713465;-0.067383;0.014648;1.292969;
713675;-0.066406;0.017578;1.266602;
713895;-0.069336;0.014648;1.259766;
714115;-0.070312;0.015625;1.259766;
714335;-0.068359;0.020508;1.250977;
714545;-0.071289;0.020508;1.245117;
714755;-0.072266;0.020508;1.237305;
714970;-0.074219;0.021484;1.225586;
715201;-0.073242;0.027344;1.265625;
715440;-0.070312;0.024414;1.299805;
715675;-0.068359;0.021484;1.331055;
715895;-0.066406;0.020508;1.375000;
716105;-0.062500;0.019531;1.410156;
716315;-0.062500;0.016602;1.433594;
716535;-0.057617;0.015625;1.463867;
716745;-0.057617;0.013672;1.477539;
716965;-0.057617;0.013672;1.466797;
717185;-0.059570;0.015625;1.449219;
717405;-0.062500;0.017578;1.418945;
717625;-0.068359;0.009766;1.382812;
717845;-0.068359;0.015625;1.352539;
718055;-0.070312;0.015625;1.329102;
718275;-0.071289;0.017578;1.305664;
718490;-0.072266;0.017578;1.296875;
718731;-0.073242;0.015625;1.290039;
718970;-0.074219;0.018555;1.284180;
719205;-0.072266;0.019531;1.300781;
719415;-0.071289;0.017578;1.301758;
719625;-0.070312;0.017578;1.332031;
719835;-0.066406;0.017578;1.368164;
720055;-0.065430;0.016602;1.412109;
720265;-0.062500;0.017578;1.448242;
720475;-0.060547;0.014648;1.488281;
720685;-0.057617;0.014648;1.491211;
720905;-0.059570;0.019531;1.484375;
721125;-0.062500;0.016602;1.455078;
721345;-0.060547;0.016602;1.439453;
721565;-0.061523;0.018555;1.423828;
721785;-0.061523;0.014648;1.397461;
722005;-0.068359;0.015625;1.354492;
722220;-0.074219;0.018555;1.294922;
722450;-0.074219;0.019531;1.257812;
722675;-0.076172;0.015625;1.226562;
722895;-0.077148;0.018555;1.201172;
723105;-0.077148;0.019531;1.183594;
723325;-0.079102;0.022461;1.179688;
723545;-0.080078;0.020508;1.175781;
723765;-0.078125;0.022461;1.185547;
723985;-0.076172;0.019531;1.208008;
724205;-0.075195;0.019531;1.236328;
724415;-0.073242;0.016602;1.253906;
724635;-0.071289;0.022461;1.266602;
724845;-0.072266;0.021484;1.262695;
725055;-0.070312;0.017578;1.278320;
725265;-0.067383;0.014648;1.279297;
725485;-0.071289;0.016602;1.241211;
725700;-0.075195;0.016602;1.193359;
725930;-0.075195;0.018555;1.140625;
726170;-0.082031;0.017578;1.083984;
726395;-0.080078;0.024414;1.044922;
726615;-0.081055;0.021484;1.026367;
726835;-0.082031;0.018555;1.008789;
727045;-0.082031;0.021484;1.006836;
727265;-0.081055;0.017578;1.004883;
727485;-0.077148;0.022461;1.008789;
727705;-0.073242;0.023438;1.000000;
727925;-0.069336;0.019531;1.002930;
728135;-0.069336;0.021484;1.010742;
728345;-0.064453;0.022461;1.020508;
728565;-0.060547;0.020508;1.004883;
728785;-0.053711;0.023438;1.030273;
728995;-0.045898;0.023438;1.039062;
729206;-0.039062;0.019531;1.037109;
729431;-0.028320;0.024414;1.047852;
729660;-0.018555;0.026367;1.059570;
729895;-0.014648;0.029297;1.080078;
730105;-0.007812;0.025391;1.108398;
730325;-0.005859;0.030273;1.136719;
730535;-0.001953;0.025391;1.202148;
730755;-0.001953;0.021484;1.224609;
730975;0.001953;0.022461;1.231445;
731195;-0.000977;0.017578;1.200195;
731405;0.000977;0.014648;1.179688;
731615;-0.001953;0.013672;1.137695;
731835;-0.007812;0.010742;1.104492;
732055;-0.007812;0.013672;1.091797;
732275;-0.009766;0.015625;1.065430;
732495;-0.011719;0.019531;1.049805;
732715;-0.013672;0.018555;1.039062;
732931;-0.013672;0.020508;1.020508;
733161;-0.015625;0.021484;0.998047;
733405;-0.013672;0.024414;0.974609;
733625;-0.015625;0.026367;0.945312;
733845;-0.018555;0.020508;0.919922;
734055;-0.017578;0.022461;0.921875;
734275;-0.019531;0.019531;0.895508;
734495;-0.017578;0.017578;0.897461;
734705;-0.017578;0.017578;0.910156;
734925;-0.019531;0.020508;0.899414;
735145;-0.017578;0.018555;0.927734;
735355;-0.013672;0.017578;0.945312;
735575;-0.018555;0.018555;0.942383;
735795;-0.016602;0.022461;0.955078;
736005;-0.020508;0.023438;0.961914;
736215;-0.017578;0.018555;0.971680;
736431;-0.010742;0.022461;1.016602;
736650;-0.012695;0.024414;1.033203;
736880;-0.010742;0.025391;1.075195;
737105;-0.009766;0.026367;1.115234;
737315;-0.006836;0.023438;1.110352;
737535;-0.009766;0.020508;1.129883;
737755;-0.003906;0.018555;1.147461;
737965;-0.004883;0.017578;1.157227;
738175;-0.003906;0.019531;1.157227;
738385;-0.008789;0.014648;1.133789;
738595;-0.008789;0.015625;1.135742;
738815;-0.006836;0.013672;1.115234;
739025;-0.006836;0.015625;1.103516;
739235;-0.008789;0.015625;1.108398;
739455;-0.008789;0.021484;1.105469;
739665;-0.010742;0.018555;1.119141;
739875;-0.004883;0.018555;1.134766;
740090;-0.007812;0.020508;1.104492;
740310;-0.008789;0.024414;1.079102;
740540;-0.016602;0.020508;1.017578;
740765;-0.013672;0.017578;0.960938;
740975;-0.016602;0.021484;0.918945;
741185;-0.018555;0.021484;0.890625;
741405;-0.019531;0.019531;0.898438;
741625;-0.014648;0.015625;0.935547;
741845;-0.016602;0.019531;0.938477;
742065;-0.015625;0.019531;0.963867;
742285;-0.014648;0.024414;0.961914;
742490;-0.012695;0.020508;0.961914;
742725;-0.013672;0.018555;0.950195;
742945;-0.016602;0.018555;0.938477;
743165;-0.015625;0.017578;0.936523;
743375;-0.014648;0.018555;0.940430;
743586;-0.018555;0.019531;0.923828;
743820;-0.014648;0.017578;0.951172;
744060;-0.012695;0.017578;0.981445;
744290;-0.012695;0.021484;0.988281;
744535;-0.015625;0.026367;0.977539;
744751;-0.018555;0.018555;0.973633;
744965;-0.014648;0.019531;0.977539;
745185;-0.015625;0.021484;0.968750;
745401;-0.012695;0.023438;0.991211;
745645;-0.013672;0.020508;1.003906;
745865;-0.011719;0.020508;0.999023;
746085;-0.010742;0.021484;1.038086;
746295;-0.011719;0.017578;1.060547;
746515;-0.010742;0.018555;1.086914;
746725;-0.008789;0.015625;1.114258;
746935;-0.008789;0.016602;1.121094;
747141;-0.007812;0.018555;1.123047;
747375;-0.009766;0.015625;1.099609;
747590;-0.009766;0.020508;1.089844;
747820;-0.007812;0.018555;1.090820;
748053;-0.012695;0.019531;1.095703;
748275;-0.006836;0.017578;1.092773;
748490;-0.008789;0.017578;1.115234;
748725;-0.004883;0.019531;1.123047;
748935;-0.008789;0.018555;1.104492;
749141;-0.005859;0.019531;1.100586;
749365;-0.006836;0.017578;1.094727;
749585;-0.011719;0.017578;1.073242;
749790;-0.007812;0.023438;1.073242;
750005;-0.008789;0.022461;1.052734;
750225;-0.012695;0.018555;1.042969;
750445;-0.008789;0.020508;1.043945;
750655;-0.012695;0.016602;1.022461;
750875;-0.009766;0.016602;1.038086;
751085;-0.010742;0.019531;1.026367;
751301;-0.012695;0.021484;1.017578;
751533;-0.013672;0.026367;1.027344;
751741;-0.010742;0.018555;1.021484;
751970;-0.013672;0.018555;1.021484;
752200;-0.012695;0.018555;1.049805;
752420;-0.007812;0.019531;1.059570;
752635;-0.008789;0.021484;1.068359;
752855;-0.006836;0.018555;1.083008;
753061;-0.009766;0.021484;1.073242;
753285;-0.008789;0.017578;1.073242;
753505;-0.008789;0.017578;1.076172;
753720;-0.006836;0.016602;1.070312;
753931;-0.007812;0.021484;1.078125;
754145;-0.012695;0.021484;1.058594;
754365;-0.010742;0.019531;1.058594;
754581;-0.010742;0.018555;1.051758;
754805;-0.009766;0.018555;1.038086;
755015;-0.010742;0.021484;1.058594;
755230;-0.007812;0.019531;1.047852;
755465;-0.011719;0.020508;1.039062;
755680;-0.010742;0.020508;1.055664;
755911;-0.007812;0.021484;1.047852;
756150;-0.010742;0.016602;1.041992;
756381;-0.011719;0.019531;1.038086;
756600;-0.007812;0.021484;1.041992;
756815;-0.011719;0.019531;1.038086;
757025;-0.014648;0.020508;1.016602;
757241;-0.012695;0.019531;0.995117;
757465;-0.009766;0.020508;0.977539;
757685;-0.016602;0.021484;0.967773;
757901;-0.014648;0.023438;0.976562;
758135;-0.011719;0.017578;0.977539;
758345;-0.010742;0.021484;0.995117;
758560;-0.009766;0.019531;1.002930;
758795;-0.010742;0.021484;1.005859;
759015;-0.009766;0.023438;1.017578;
759231;-0.010742;0.021484;1.023438;
759460;-0.013672;0.023438;1.012695;
759691;-0.008789;0.022461;1.000000;
759931;-0.013672;0.021484;0.983398;
760152;-0.010742;0.019531;0.974609;
760375;-0.008789;0.024414;0.990234;
760595;-0.002930;0.020508;1.000000;
760800;-0.005859;0.020508;1.002930;
761035;-0.011719;0.031250;0.980469;
761255;-0.011719;0.025391;0.975586;
761470;-0.010742;0.026367;0.970703;
761695;-0.013672;0.030273;0.951172;
761915;-0.009766;0.027344;0.958008;
762130;-0.010742;0.018555;0.946289;
762355;-0.006836;0.020508;0.951172;
762565;-0.009766;0.022461;0.964844;
762775;-0.007812;0.019531;0.966797;
763005;-0.005859;0.014648;0.969727;
763220;-0.002930;0.019531;0.979492;
763460;-0.005859;0.022461;0.978516;
763691;-0.004883;0.025391;0.988281;
763920;-0.006836;0.023438;0.997070;
764140;-0.005859;0.030273;0.996094;
764355;-0.004883;0.027344;0.992188;
764562;-0.006836;0.027344;0.980469;
764785;-0.007812;0.025391;1.000977;
765005;-0.004883;0.030273;1.039062;
765220;-0.002930;0.026367;1.058594;
765445;0.001953;0.026367;1.074219;
765665;0.000000;0.022461;1.090820;
765885;0.000977;0.025391;1.116211;
766105;0.002930;0.021484;1.143555;
766315;0.003906;0.023438;1.172852;
766530;0.002930;0.022461;1.187500;
766765;0.004883;0.027344;1.181641;
766985;0.006836;0.023438;1.167969;
767200;0.005859;0.021484;1.163086;
767430;0.003906;0.021484;1.163086;
767661;0.000000;0.026367;1.151367;
767891;0.003906;0.024414;1.139648;
768110;0.003906;0.023438;1.139648;
768325;0.003906;0.027344;1.154297;
768535;0.005859;0.024414;1.139648;
768755;0.002930;0.023438;1.129883;
768985;0.000977;0.025391;1.131836;
769195;0.004883;0.029297;1.119141;
769405;0.004883;0.030273;1.110352;
769625;0.000977;0.026367;1.097656;
769845;0.003906;0.023438;1.096680;
770055;0.005859;0.022461;1.092773;
770275;0.002930;0.027344;1.105469;
770495;0.003906;0.025391;1.088867;
770705;0.000000;0.027344;1.082031;
770925;-0.001953;0.030273;1.064453;
771140;-0.001953;0.027344;1.042969;
771370;-0.004883;0.027344;1.028320;
771600;-0.001953;0.029297;1.010742;
771805;-0.002930;0.025391;0.968750;
772025;-0.002930;0.024414;0.951172;
772235;-0.005859;0.027344;0.942383;
772455;-0.004883;0.029297;0.942383;
772675;-0.007812;0.028320;0.929688;
772895;-0.006836;0.028320;0.926758;
773105;-0.005859;0.028320;0.910156;
773315;-0.009766;0.027344;0.889648;
773535;-0.010742;0.028320;0.865234;
773755;-0.010742;0.031250;0.852539;
773965;-0.009766;0.027344;0.871094;
774175;-0.008789;0.027344;0.885742;
774395;-0.004883;0.026367;0.928711;
774610;-0.003906;0.024414;0.958984;
774840;-0.005859;0.031250;0.985352;
775080;-0.006836;0.026367;0.997070;
775292;-0.004883;0.026367;1.024414;
775515;-0.003906;0.022461;1.070312;
775725;0.001953;0.027344;1.105469;
775945;0.001953;0.027344;1.112305;
776155;-0.000977;0.028320;1.111328;
776365;0.001953;0.029297;1.092773;
776585;0.000977;0.028320;1.073242;
776795;0.000000;0.028320;1.048828;
777005;0.000000;0.026367;1.048828;
777215;0.000977;0.028320;1.042969;
777425;-0.002930;0.026367;1.046875;
777635;-0.003906;0.024414;1.053711;
777855;-0.000977;0.031250;1.058594;
778075;-0.001953;0.024414;1.072266;
778296;-0.002930;0.024414;1.080078;
778530;0.003906;0.023438;1.089844;
778740;0.000977;0.025391;1.093750;
778970;0.000977;0.022461;1.088867;
779205;0.000977;0.023438;1.081055;
779425;-0.001953;0.023438;1.084961;
779635;0.002930;0.028320;1.096680;
779855;0.003906;0.024414;1.093750;
780075;0.001953;0.032227;1.105469;
780285;0.000000;0.032227;1.098633;
780505;0.000977;0.035156;1.098633;
780715;-0.000977;0.035156;1.078125;
780935;-0.003906;0.037109;1.060547;
781145;-0.000977;0.037109;1.072266;
781355;-0.003906;0.030273;1.041016;
781575;0.000000;0.034180;1.034180;
781795;0.000977;0.030273;1.007812;
782000;0.001953;0.023438;0.979492;
782210;0.000977;0.023438;0.973633;
782440;0.000000;0.012695;0.948242;
782680;0.003906;0.013672;0.966797;
782905;0.000000;0.011719;0.974609;
783115;0.000977;0.020508;0.979492;
783335;0.001953;0.014648;0.984375;
783545;0.000000;0.021484;0.975586;
783765;0.001953;0.018555;0.943359;
783985;0.000000;0.023438;0.928711;
784205;-0.003906;0.024414;0.878906;
784415;-0.007812;0.027344;0.868164;
784625;-0.004883;0.027344;0.869141;
784845;-0.004883;0.014648;0.890625;
785065;-0.003906;0.019531;0.921875;
785285;0.001953;0.013672;0.975586;
785505;0.005859;0.010742;1.036133;
785725;0.003906;0.010742;1.075195;
785931;0.002930;0.012695;1.097656;
786160;0.005859;0.010742;1.105469;
786395;0.010742;0.010742;1.120117;
786605;0.004883;0.013672;1.113281;
786815;0.008789;0.019531;1.103516;
787035;0.004883;0.022461;1.091797;
787245;0.004883;0.025391;1.079102;
787455;0.002930;0.019531;1.075195;
787675;0.007812;0.023438;1.083008;
787885;0.005859;0.020508;1.101562;
788105;0.011719;0.018555;1.132812;
788325;0.009766;0.018555;1.145508;
788535;0.005859;0.018555;1.131836;
788755;0.003906;0.016602;1.092773;
788975;0.008789;0.011719;1.084961;
789195;0.005859;0.012695;1.047852;
789400;0.002930;0.015625;1.040039;
789620;0.002930;0.019531;1.017578;
789840;0.000000;0.019531;1.019531;
790075;-0.001953;0.017578;1.022461;
790295;0.007812;0.018555;1.041016;
790505;0.004883;0.017578;1.064453;
790725;0.001953;0.019531;1.081055;
790945;0.004883;0.018555;1.081055;
791165;0.001953;0.020508;1.077148;
791375;0.001953;0.021484;1.084961;
791585;0.003906;0.024414;1.095703;
791795;0.003906;0.021484;1.108398;
792015;0.005859;0.022461;1.116211;
792235;0.006836;0.018555;1.102539;
792445;0.002930;0.020508;1.091797;
792665;0.002930;0.014648;1.082031;
792875;0.006836;0.014648;1.085938;
793090;0.004883;0.014648;1.078125;
793320;0.006836;0.016602;1.083008;
793540;0.000977;0.013672;1.057617;
793745;0.004883;0.019531;1.064453;
793955;0.000000;0.015625;1.027344;
794165;0.000000;0.015625;1.018555;
794385;0.000977;0.016602;0.997070;
794595;0.002930;0.020508;0.981445;
794805;0.000977;0.018555;0.954102;
795025;-0.003906;0.020508;0.936523;
795235;-0.001953;0.021484;0.931641;
795455;-0.002930;0.025391;0.947266;
795665;-0.002930;0.025391;0.944336;
795875;-0.004883;0.019531;0.961914;
796095;0.001953;0.019531;0.978516;
796305;0.000977;0.020508;0.983398;
796525;-0.000977;0.015625;0.972656;
796740;-0.001953;0.019531;0.971680;
796960;-0.002930;0.018555;0.971680;
797195;0.000977;0.015625;0.975586;
797415;0.000000;0.015625;0.985352;
797635;0.000977;0.013672;0.992188;
797855;0.000000;0.017578;0.982422;
798075;-0.000977;0.016602;0.984375;
798285;-0.001953;0.021484;0.981445;
798505;0.000000;0.017578;0.996094;
798715;0.001953;0.018555;0.996094;
798925;0.001953;0.010742;0.996094;
799135;0.000000;0.019531;0.996094;
799355;-0.001953;0.016602;0.986328;
799575;-0.001953;0.014648;0.999023;
799785;-0.002930;0.018555;1.019531;
800005;0.002930;0.018555;1.057617;
800220;0.004883;0.019531;1.083984;
800440;0.004883;0.018555;1.108398;
800675;0.005859;0.017578;1.108398;
800905;0.006836;0.017578;1.129883;
801125;0.008789;0.012695;1.130859;
801345;0.007812;0.021484;1.125000;
801555;0.006836;0.013672;1.118164;
801775;0.007812;0.017578;1.099609;
801985;0.002930;0.012695;1.069336;
802195;0.002930;0.023438;1.065430;
802415;0.002930;0.018555;1.054688;
802625;0.005859;0.015625;1.049805;
802845;0.002930;0.016602;1.045898;
803065;0.000977;0.017578;1.053711;
803275;0.000977;0.013672;1.062500;
803495;0.001953;0.017578;1.069336;
803705;0.002930;0.020508;1.066406;
803920;0.003906;0.018555;1.066406;
804140;0.006836;0.017578;1.066406;
804360;0.006836;0.024414;1.064453;
804595;0.005859;0.018555;1.053711;
804805;0.004883;0.021484;1.037109;
805025;0.004883;0.017578;1.023438;
805235;0.003906;0.025391;1.015625;
805455;0.003906;0.025391;0.996094;
805675;0.003906;0.022461;0.967773;
805895;0.000000;0.026367;0.960938;
806105;-0.002930;0.020508;0.938477;
806325;-0.001953;0.020508;0.930664;
806535;-0.002930;0.022461;0.923828;
806755;0.000000;0.020508;0.937500;
806965;-0.001953;0.022461;0.941406;
807185;-0.001953;0.025391;0.947266;
807405;-0.002930;0.021484;0.936523;
807621;-0.000977;0.025391;0.943359;
807852;-0.000977;0.021484;0.945312;
808080;-0.000977;0.023438;0.953125;
808315;0.000000;0.022461;0.956055;
808525;-0.000977;0.024414;0.961914;
808745;0.001953;0.018555;0.965820;
808965;0.005859;0.016602;0.977539;
809185;0.011719;0.014648;0.996094;
809405;0.018555;0.017578;1.000977;
809615;0.026367;0.016602;1.005859;
809825;0.037109;0.016602;1.024414;
810045;0.042969;0.017578;1.046875;
810255;0.053711;0.013672;1.064453;
810475;0.060547;0.015625;1.062500;
810685;0.063477;0.018555;1.048828;
810905;0.075195;0.022461;1.052734;
811116;0.083008;0.019531;1.077148;
811340;0.085938;0.023438;1.084961;
811570;0.094727;0.016602;1.104492;
811790;0.099609;0.015625;1.123047;
812015;0.104492;0.027344;1.132812;
812235;0.104492;0.012695;1.125977;
812445;0.104492;0.013672;1.098633;
812665;0.101562;0.016602;1.090820;
812885;0.100586;0.016602;1.067383;
813095;0.097656;0.020508;1.052734;
813305;0.096680;0.017578;1.064453;
813515;0.098633;0.019531;1.073242;
813735;0.101562;0.020508;1.114258;
813955;0.097656;0.016602;1.142578;
814165;0.105469;0.021484;1.185547;
814385;0.104492;0.019531;1.214844;
814605;0.105469;0.018555;1.227539;
814820;0.104492;0.021484;1.232422;
815061;0.108398;0.017578;1.198242;
815291;0.101562;0.016602;1.186523;
815500;0.100586;0.021484;1.130859;
815725;0.101562;0.017578;1.117188;
815945;0.095703;0.010742;1.059570;
816155;0.094727;0.019531;1.039062;
816375;0.089844;0.019531;1.021484;
816595;0.091797;0.022461;0.973633;
816815;0.088867;0.015625;0.987305;
817035;0.085938;0.013672;0.966797;
817245;0.090820;0.022461;0.994141;
817465;0.088867;0.023438;1.014648;
817685;0.092773;0.019531;0.981445;
817895;0.090820;0.015625;0.998047;
818115;0.088867;0.018555;0.992188;
818335;0.090820;0.021484;0.959961;
818540;0.091797;0.022461;0.959961;
818771;0.087891;0.015625;0.938477;
819000;0.090820;0.022461;0.918945;
819225;0.084961;0.020508;0.900391;
819445;0.083984;0.016602;0.873047;
819655;0.083984;0.022461;0.891602;
819865;0.083984;0.012695;0.916016;
820085;0.088867;0.020508;0.925781;
820305;0.088867;0.019531;1.005859;
820515;0.085938;0.019531;1.030273;
820735;0.090820;0.017578;1.044922;
820955;0.092773;0.019531;1.077148;
821165;0.086914;0.018555;1.070312;
821375;0.089844;0.016602;1.055664;
821595;0.086914;0.016602;1.088867;
821815;0.087891;0.013672;1.082031;
822035;0.088867;0.018555;1.088867;
822251;0.094727;0.018555;1.100586;
822480;0.087891;0.013672;1.106445;
822710;0.089844;0.017578;1.082031;
822945;0.087891;0.023438;1.084961;
823165;0.083008;0.014648;1.053711;
823375;0.084961;0.023438;1.033203;
823595;0.082031;0.021484;1.018555;
823805;0.081055;0.017578;0.957031;
824015;0.081055;0.020508;0.927734;
824235;0.081055;0.026367;0.920898;
824455;0.075195;0.018555;0.909180;
824675;0.077148;0.019531;0.899414;
824895;0.078125;0.024414;0.919922;
825115;0.080078;0.023438;0.968750;
825335;0.079102;0.017578;0.965820;
825545;0.080078;0.024414;0.985352;
825755;0.080078;0.018555;1.046875;
825981;0.082031;0.025391;1.055664;
826215;0.083984;0.016602;1.017578;
826441;0.081055;0.019531;1.044922;
826675;0.082031;0.019531;1.003906;
826885;0.082031;0.019531;0.987305;
827105;0.078125;0.018555;0.998047;
827325;0.075195;0.019531;1.002930;
827545;0.076172;0.019531;0.985352;
827755;0.081055;0.018555;1.016602;
827975;0.080078;0.013672;1.068359;
828195;0.083008;0.022461;1.166992;
828405;0.084961;0.017578;1.233398;
828625;0.091797;0.013672;1.359375;
828835;0.099609;0.016602;1.472656;
829045;0.100586;0.016602;1.571289;
829265;0.110352;0.011719;1.644531;
829475;0.116211;0.015625;1.730469;
829691;0.118164;0.016602;1.789062;
829900;0.121094;0.018555;1.812500;
830120;0.122070;0.009766;1.831055;
830355;0.124023;0.012695;1.868164;
830575;0.125000;0.013672;1.883789;
830795;0.125977;0.006836;1.896484;
831005;0.126953;0.010742;1.908203;
831225;0.128906;0.010742;1.896484;
831445;0.128906;0.011719;1.902344;
831655;0.125000;0.004883;1.884766;
831865;0.131836;0.013672;1.878906;
832085;0.128906;0.014648;1.872070;
832305;0.125977;0.020508;1.869141;
832525;0.125000;0.022461;1.844727;
832745;0.124023;0.014648;1.845703;
832965;0.125000;0.015625;1.830078;
833185;0.127930;0.016602;1.822266;
833400;0.127930;0.020508;1.824219;
833615;0.129883;0.007812;1.830078;
833820;0.129883;0.013672;1.823242;
834041;0.127930;0.012695;1.824219;
834275;0.129883;0.014648;1.839844;
834495;0.130859;0.014648;1.836914;
834715;0.128906;0.010742;1.825195;
834935;0.131836;0.018555;1.846680;
835155;0.132812;0.015625;1.829102;
835375;0.130859;0.016602;1.818359;
835595;0.132812;0.017578;1.809570;
835815;0.138672;0.011719;1.815430;
836035;0.133789;0.010742;1.814453;
836245;0.139648;0.014648;1.817383;
836465;0.133789;0.017578;1.829102;
836685;0.140625;0.015625;1.841797;
836905;0.141602;0.021484;1.838867;
837125;0.142578;0.018555;1.845703;
837340;0.146484;0.022461;1.860352;
837550;0.143555;0.021484;1.875977;
837780;0.144531;0.026367;1.888672;
838010;0.147461;0.015625;1.877930;
838245;0.148438;0.011719;1.862305;
838465;0.152344;0.007812;1.867188;
838685;0.152344;-0.002930;1.851562;
838905;0.151367;-0.008789;1.850586;
839115;0.151367;-0.009766;1.847656;
839325;0.152344;-0.010742;1.836914;
839545;0.155273;-0.001953;1.853516;
839765;0.157227;0.002930;1.861328;
839985;0.156250;-0.001953;1.857422;
840205;0.161133;0.001953;1.852539;
840415;0.155273;0.001953;1.852539;
840635;0.163086;0.009766;1.880859;
840855;0.163086;0.006836;1.863281;
841060;0.159180;0.013672;1.870117;
841300;0.166016;0.007812;1.884766;
841543;0.168945;0.001953;1.861328;
841785;0.167969;0.001953;1.882812;
842005;0.168945;-0.003906;1.859375;
842215;0.167969;-0.000977;1.868164;
842435;0.167969;0.003906;1.855469;
842655;0.168945;0.007812;1.854492;
842875;0.172852;0.010742;1.847656;
843095;0.172852;0.013672;1.857422;
843315;0.177734;0.023438;1.844727;
843525;0.174805;0.025391;1.848633;
843745;0.178711;0.028320;1.843750;
843965;0.178711;0.027344;1.839844;
844185;0.183594;0.021484;1.850586;
844395;0.184570;0.022461;1.847656;
844615;0.185547;0.021484;1.862305;
844840;0.187500;0.019531;1.834961;
845060;0.185547;0.013672;1.840820;
845295;0.193359;0.003906;1.833008;
845515;0.197266;-0.002930;1.803711;
845725;0.195312;-0.007812;1.813477;
845945;0.201172;-0.002930;1.809570;
846155;0.198242;-0.002930;1.797852;
846375;0.199219;0.011719;1.813477;
846595;0.203125;0.010742;1.801758;
846815;0.195312;0.022461;1.768555;
847035;0.194336;0.016602;1.767578;
847245;0.202148;0.025391;1.715820;
847465;0.201172;0.022461;1.714844;
847685;0.198242;0.027344;1.718750;
847905;0.201172;0.019531;1.674805;
848125;0.198242;0.026367;1.637695;
848340;0.192383;0.021484;1.622070;
848571;0.188477;0.022461;1.571289;
848790;0.177734;0.013672;1.560547;
849015;0.165039;0.022461;1.503906;
849235;0.148438;0.024414;1.448242;
849445;0.125977;0.025391;1.295898;
849665;0.090820;0.013672;1.112305;
849885;0.063477;0.015625;0.912109;
850105;0.047852;0.008789;0.722656;
850325;0.026367;0.012695;0.527344;
850545;0.018555;0.011719;0.398438;
850765;0.014648;0.013672;0.262695;
850985;0.011719;0.009766;0.187500;
851195;0.015625;0.005859;0.131836;
851415;0.003906;0.012695;0.092773;
851635;0.005859;0.014648;0.054688;
851850;0.006836;0.016602;0.048828;
852080;0.001953;0.023438;0.034180;
852321;0.000977;0.018555;0.030273;
852565;-0.002930;0.028320;0.025391;
852785;-0.003906;0.026367;0.029297;
852995;-0.004883;0.025391;0.040039;
853205;-0.007812;0.026367;0.048828;
853415;-0.002930;0.027344;0.048828;
853635;-0.006836;0.028320;0.043945;
853855;-0.003906;0.023438;0.049805;
854075;-0.004883;0.025391;0.035156;
854295;-0.008789;0.029297;0.039062;
854516;-0.008789;0.033203;0.029297;
854745;-0.007812;0.031250;0.027344;
854965;-0.006836;0.026367;0.024414;
855175;-0.008789;0.034180;0.016602;
855395;-0.007812;0.033203;0.026367;
855620;-0.012695;0.036133;0.022461;
855850;-0.008789;0.032227;0.030273;
856085;-0.006836;0.034180;0.029297;
856305;-0.016602;0.031250;0.014648;
856525;-0.010742;0.029297;0.009766;
856735;-0.009766;0.031250;0.009766;
856955;-0.010742;0.034180;0.014648;
857165;-0.009766;0.034180;0.010742;
857385;-0.009766;0.035156;0.008789;
857595;-0.016602;0.035156;0.013672;
857805;-0.015625;0.033203;0.006836;
858025;-0.010742;0.028320;0.022461;
858245;-0.013672;0.029297;0.020508;
858455;-0.013672;0.032227;0.022461;
858675;-0.014648;0.031250;0.008789;
858895;-0.013672;0.032227;0.019531;
859110;-0.017578;0.030273;0.033203;
859350;-0.015625;0.035156;0.024414;
859570;-0.016602;0.029297;0.028320;
859782;-0.013672;0.031250;0.026367;
860005;-0.013672;0.024414;0.035156;
860225;-0.013672;0.030273;0.037109;
860445;-0.012695;0.028320;0.034180;
860665;-0.015625;0.027344;0.036133;
860885;-0.014648;0.030273;0.029297;
861105;-0.016602;0.023438;0.034180;
861325;-0.014648;0.025391;0.029297;
861535;-0.011719;0.027344;0.033203;
861755;-0.013672;0.027344;0.034180;
861975;-0.014648;0.024414;0.026367;
862185;-0.016602;0.022461;0.024414;
862395;-0.030273;0.029297;0.004883;
862615;-0.011719;0.028320;0.022461;
862830;-0.012695;0.024414;0.011719;
863060;-0.015625;0.024414;0.015625;
863280;-0.012695;0.030273;0.011719;
863505;-0.012695;0.021484;0.011719;
863725;-0.014648;0.022461;0.008789;
863945;-0.015625;0.025391;0.008789;
864165;-0.014648;0.026367;0.011719;
864375;-0.015625;0.022461;0.005859;
864585;-0.015625;0.022461;0.012695;
864805;-0.013672;0.033203;0.000977;
865025;-0.012695;0.028320;0.007812;
865245;-0.016602;0.023438;0.014648;
865455;-0.013672;0.025391;0.001953;
865675;-0.014648;0.025391;-0.001953;
865895;-0.015625;0.023438;0.000977;
866101;-0.017578;0.022461;0.002930;
866325;-0.016602;0.024414;0.008789;
866551;-0.019531;0.023438;0.012695;
866780;-0.016602;0.022461;0.017578;
867005;-0.020508;0.029297;0.016602;
867215;-0.016602;0.024414;0.024414;
867435;-0.016602;0.029297;0.015625;
867655;-0.019531;0.028320;0.015625;
867875;-0.021484;0.025391;0.013672;
868095;-0.019531;0.028320;0.011719;
868315;-0.018555;0.025391;0.007812;
868535;-0.021484;0.024414;0.010742;
868745;-0.018555;0.027344;0.008789;
868965;-0.019531;0.027344;0.001953;
869175;-0.022461;0.024414;0.009766;
869395;-0.018555;0.029297;0.006836;
869605;-0.019531;0.022461;0.007812;
869815;-0.023438;0.024414;0.013672;
870030;-0.022461;0.028320;0.010742;
870260;-0.025391;0.025391;0.018555;
870490;-0.023438;0.026367;0.012695;
870725;-0.024414;0.024414;0.017578;
870945;-0.026367;0.020508;0.022461;
871165;-0.025391;0.030273;0.010742;
871380;-0.025391;0.021484;0.003906;
871595;-0.025391;0.027344;0.000977;
871815;-0.028320;0.026367;0.003906;
872035;-0.028320;0.032227;0.001953;
872255;-0.026367;0.031250;0.006836;
872465;-0.030273;0.027344;0.002930;
872685;-0.032227;0.034180;-0.000977;
872905;-0.032227;0.036133;0.011719;
873125;-0.033203;0.041992;0.012695;
873335;-0.032227;0.041016;0.012695;
873555;-0.036133;0.040039;0.018555;
873760;-0.031250;0.039062;0.022461;
873990;-0.037109;0.035156;0.023438;
874220;-0.035156;0.036133;0.042969;
874455;-0.038086;0.040039;0.021484;
874665;-0.038086;0.039062;0.022461;
874875;-0.042969;0.036133;0.032227;
875095;-0.041016;0.033203;0.141602;
875315;-0.043945;0.030273;0.227539;
875535;-0.035156;0.031250;0.441406;
875755;-0.032227;0.034180;0.533203;
875975;-0.017578;0.042969;0.760742;
876185;-0.007812;0.041992;1.002930;
876395;0.007812;0.024414;1.107422;
876615;0.036133;0.031250;1.291992;
876835;0.041992;0.035156;1.385742;
877055;0.051758;0.040039;1.466797;
877275;0.056641;0.035156;1.512695;
877480;0.060547;0.025391;1.574219;
877710;0.060547;0.022461;1.595703;
877932;0.057617;0.018555;1.598633;
878155;0.054688;0.024414;1.616211;
878365;0.053711;0.020508;1.634766;
878585;0.051758;0.021484;1.641602;
878805;0.048828;0.013672;1.654297;
879015;0.044922;0.020508;1.669922;
879235;0.048828;0.016602;1.682617;
879445;0.048828;0.020508;1.711914;
879665;0.054688;0.019531;1.752930;
879885;0.048828;0.020508;1.783203;
880095;0.050781;0.021484;1.806641;
880305;0.043945;0.021484;1.833984;
880525;0.047852;0.030273;1.869141;
880745;0.056641;0.034180;1.890625;
880966;0.041992;0.028320;1.871094;
881191;0.044922;0.035156;1.884766;
881430;0.043945;0.028320;1.873047;
881665;0.048828;0.034180;1.875000;
881885;0.040039;0.034180;1.877930;
882105;0.040039;0.029297;1.857422;
882315;0.033203;0.021484;1.836914;
882535;0.030273;0.017578;1.814453;
882745;0.025391;0.011719;1.788086;
882965;0.020508;0.010742;1.770508;
883185;0.017578;0.006836;1.756836;
883395;0.017578;0.016602;1.766602;
883615;0.013672;0.017578;1.775391;
883825;0.013672;0.020508;1.792969;
884045;0.011719;0.020508;1.802734;
884265;0.010742;0.021484;1.814453;
884475;0.013672;0.014648;1.832031;
884692;0.013672;0.016602;1.847656;
884920;0.012695;0.013672;1.856445;
885150;0.012695;0.023438;1.854492;
885365;0.011719;0.024414;1.859375;
885575;0.008789;0.029297;1.850586;
885795;0.003906;0.035156;1.838867;
886005;0.002930;0.032227;1.814453;
886215;-0.000977;0.035156;1.799805;
886425;-0.002930;0.037109;1.775391;
886635;-0.007812;0.034180;1.757812;
886845;-0.007812;0.034180;1.738281;
887065;-0.010742;0.027344;1.730469;
887275;-0.010742;0.019531;1.726562;
887495;-0.013672;0.018555;1.710938;
887715;-0.014648;0.023438;1.710938;
887925;-0.015625;0.031250;1.710938;
888130;-0.017578;0.030273;1.697266;
888362;-0.021484;0.033203;1.693359;
888590;-0.021484;0.028320;1.705078;
888825;-0.021484;0.021484;1.701172;
889035;-0.020508;0.024414;1.711914;
889255;-0.021484;0.013672;1.710938;
889475;-0.016602;0.015625;1.732422;
889695;-0.018555;0.016602;1.741211;
889905;-0.017578;0.023438;1.750000;
890125;-0.020508;0.030273;1.764648;
890345;-0.022461;0.031250;1.766602;
890565;-0.022461;0.020508;1.774414;
890775;-0.021484;0.023438;1.777344;
890995;-0.019531;0.016602;1.772461;
891205;-0.019531;0.015625;1.772461;
891425;-0.020508;0.016602;1.773438;
891645;-0.023438;0.011719;1.765625;
891865;-0.020508;0.011719;1.782227;
892070;-0.020508;0.006836;1.783203;
892281;-0.019531;0.004883;1.774414;
892510;-0.020508;0.009766;1.782227;
892741;-0.021484;0.012695;1.794922;
892965;-0.024414;0.010742;1.787109;
893185;-0.021484;0.017578;1.787109;
893395;-0.023438;0.019531;1.785156;
893615;-0.023438;0.017578;1.778320;
893835;-0.024414;0.019531;1.770508;
894045;-0.023438;0.017578;1.767578;
894265;-0.025391;0.011719;1.757812;
894485;-0.024414;0.020508;1.763672;
894695;-0.027344;0.009766;1.753906;
894915;-0.024414;0.016602;1.756836;
895135;-0.024414;0.009766;1.744141;
895355;-0.024414;0.013672;1.750977;
895575;-0.027344;0.013672;1.743164;
895780;-0.024414;0.016602;1.726562;
896000;-0.026367;0.015625;1.717773;
896230;-0.030273;0.016602;1.680664;
896465;-0.035156;0.018555;1.657227;
896675;-0.037109;0.016602;1.626953;
896895;-0.041016;0.020508;1.591797;
897115;-0.038086;0.024414;1.578125;
897325;-0.041992;0.017578;1.543945;
897545;-0.044922;0.021484;1.518555;
897755;-0.042969;0.018555;1.495117;
897975;-0.044922;0.020508;1.489258;
898195;-0.045898;0.022461;1.469727;
898415;-0.042969;0.017578;1.464844;
898625;-0.041992;0.022461;1.458984;
898845;-0.041992;0.028320;1.441406;
899065;-0.041992;0.026367;1.419922;
899285;-0.041016;0.024414;1.420898;
899490;-0.037109;0.023438;1.448242;
899720;-0.029297;0.023438;1.480469;
899950;-0.020508;0.021484;1.523438;
900185;-0.012695;0.015625;1.545898;
900395;-0.009766;0.020508;1.525391;
900615;-0.008789;0.020508;1.470703;
900835;-0.004883;0.016602;1.404297;
901045;-0.003906;0.022461;1.357422;
901265;0.002930;0.024414;1.307617;
901475;0.010742;0.017578;1.292969;
901695;0.014648;0.022461;1.293945;
901905;0.016602;0.019531;1.307617;
902115;0.019531;0.013672;1.330078;
902325;0.019531;0.017578;1.323242;
902545;0.018555;0.017578;1.301758;
902765;0.014648;0.021484;1.273438;
902986;0.009766;0.021484;1.220703;
903210;0.009766;0.017578;1.181641;
903440;0.006836;0.018555;1.105469;
903675;0.004883;0.018555;1.079102;
903895;0.000000;0.016602;1.037109;
904105;0.000000;0.029297;1.025391;
904325;0.003906;0.024414;1.025391;
904545;0.000977;0.021484;1.029297;
904755;0.003906;0.022461;1.041016;
904975;0.003906;0.016602;1.039062;
905185;0.000977;0.019531;1.027344;
905395;0.003906;0.020508;1.032227;
905615;0.000977;0.018555;1.000000;
905835;0.000977;0.018555;0.984375;
906055;0.001953;0.017578;0.979492;
906275;0.000977;0.020508;0.972656;
906485;0.000000;0.019531;0.992188;
906700;0.003906;0.026367;1.029297;
906931;0.003906;0.022461;1.038086;
907160;0.008789;0.019531;1.067383;
907395;0.005859;0.021484;1.077148;
907615;0.009766;0.018555;1.095703;
907825;0.009766;0.025391;1.106445;
908035;0.011719;0.020508;1.097656;
908245;0.009766;0.022461;1.099609;
908465;0.013672;0.021484;1.096680;
908685;0.007812;0.024414;1.088867;
908905;0.010742;0.022461;1.071289;
909115;0.008789;0.023438;1.059570;
909335;0.006836;0.018555;1.046875;
909555;0.006836;0.018555;1.048828;
909775;0.011719;0.016602;1.059570;
909985;0.010742;0.013672;1.072266;
910205;0.014648;0.011719;1.095703;
910420;0.014648;0.016602;1.113281;
910651;0.013672;0.013672;1.108398;
910880;0.013672;0.019531;1.117188;
911105;0.012695;0.021484;1.109375;
911325;0.014648;0.023438;1.102539;
911535;0.014648;0.023438;1.098633;
911755;0.012695;0.025391;1.084961;
911965;0.014648;0.021484;1.075195;
912185;0.013672;0.020508;1.057617;
912405;0.010742;0.026367;1.048828;
912615;0.010742;0.022461;1.036133;
912835;0.013672;0.028320;1.034180;
913055;0.011719;0.023438;1.034180;
913275;0.011719;0.025391;1.037109;
913495;0.015625;0.020508;1.054688;
913715;0.014648;0.023438;1.068359;
913935;0.019531;0.021484;1.064453;
914143;0.017578;0.019531;1.073242;
914370;0.016602;0.019531;1.071289;
914590;0.016602;0.019531;1.074219;
914815;0.019531;0.019531;1.071289;
915035;0.020508;0.017578;1.063477;
915245;0.017578;0.018555;1.052734;
915465;0.015625;0.019531;1.051758;
915675;0.019531;0.012695;1.060547;
915885;0.016602;0.014648;1.053711;
916105;0.016602;0.015625;1.058594;
916315;0.020508;0.014648;1.058594;
916525;0.020508;0.020508;1.083984;
916745;0.020508;0.011719;1.102539;
916965;0.022461;0.013672;1.109375;
917185;0.024414;0.016602;1.125000;
917405;0.021484;0.017578;1.102539;
917615;0.021484;0.019531;1.077148;
917830;0.022461;0.022461;1.070312;
918060;0.022461;0.021484;1.042969;
918290;0.014648;0.021484;1.021484;
918505;0.013672;0.025391;1.001953;
918715;0.018555;0.024414;1.003906;
918935;0.013672;0.025391;0.991211;
919145;0.015625;0.022461;0.976562;
919355;0.015625;0.019531;0.971680;
919575;0.018555;0.017578;0.988281;
919795;0.015625;0.017578;0.982422;
920005;0.013672;0.020508;0.969727;
920225;0.021484;0.022461;0.986328;
920435;0.016602;0.021484;1.000000;
920655;0.022461;0.021484;1.019531;
920875;0.021484;0.016602;1.028320;
921095;0.028320;0.022461;1.087891;
921310;0.027344;0.021484;1.095703;
921540;0.029297;0.016602;1.124023;
921771;0.029297;0.022461;1.126953;
922015;0.026367;0.026367;1.093750;
922225;0.023438;0.023438;1.057617;
922435;0.018555;0.018555;1.002930;
922645;0.022461;0.023438;0.963867;
922865;0.018555;0.023438;0.935547;
923085;0.012695;0.025391;0.879883;
923295;0.011719;0.023438;0.842773;
923515;0.011719;0.023438;0.829102;
923735;0.011719;0.023438;0.791992;
923955;0.003906;0.022461;0.726562;
924165;0.005859;0.026367;0.700195;
924375;0.003906;0.022461;0.692383;
924595;0.008789;0.023438;0.703125;
924805;0.006836;0.024414;0.709961;
925021;0.007812;0.027344;0.723633;
925240;0.008789;0.022461;0.739258;
925470;0.008789;0.020508;0.765625;
925695;0.013672;0.023438;0.791992;
925915;0.010742;0.028320;0.816406;
926135;0.010742;0.027344;0.822266;
926345;0.013672;0.027344;0.836914;
926565;0.013672;0.026367;0.852539;
926775;0.011719;0.026367;0.851562;
926985;0.011719;0.028320;0.841797;
927205;0.009766;0.025391;0.844727;
927425;0.015625;0.027344;0.848633;
927645;0.014648;0.024414;0.840820;
927855;0.013672;0.024414;0.842773;
928065;0.011719;0.023438;0.842773;
928285;0.013672;0.021484;0.861328;
928495;0.019531;0.020508;0.897461;
928710;0.021484;0.022461;0.941406;
928930;0.023438;0.025391;0.969727;
929160;0.024414;0.019531;0.981445;
929395;0.027344;0.022461;1.014648;
929615;0.027344;0.018555;1.027344;
929835;0.026367;0.020508;1.019531;
930055;0.026367;0.019531;0.998047;
930265;0.025391;0.025391;0.983398;
930475;0.026367;0.025391;0.975586;
930695;0.021484;0.025391;0.967773;
930915;0.018555;0.023438;0.937500;
931135;0.018555;0.021484;0.938477;
931345;0.022461;0.020508;0.923828;
931565;0.020508;0.025391;0.916016;
931775;0.021484;0.019531;0.900391;
931995;0.016602;0.021484;0.889648;
932210;0.016602;0.026367;0.887695;
932441;0.017578;0.021484;0.888672;
932670;0.013672;0.021484;0.881836;
932895;0.018555;0.023438;0.901367;
933105;0.023438;0.019531;0.953125;
933315;0.027344;0.018555;1.000000;
933535;0.027344;0.016602;1.049805;
933755;0.030273;0.020508;1.086914;
933975;0.037109;0.021484;1.120117;
934185;0.041992;0.019531;1.147461;
934405;0.042969;0.021484;1.167969;
934625;0.043945;0.021484;1.171875;
934845;0.039062;0.018555;1.173828;
935055;0.042969;0.019531;1.147461;
935265;0.040039;0.020508;1.124023;
935485;0.036133;0.022461;1.073242;
935695;0.029297;0.018555;1.034180;
935900;0.026367;0.023438;0.986328;
936120;0.024414;0.022461;0.936523;
936350;0.024414;0.022461;0.929688;
936575;0.021484;0.022461;0.924805;
936795;0.023438;0.028320;0.944336;
937015;0.023438;0.025391;0.980469;
937225;0.030273;0.024414;1.023438;
937445;0.035156;0.019531;1.084961;
937665;0.037109;0.024414;1.110352;
937885;0.038086;0.025391;1.137695;
938105;0.039062;0.021484;1.159180;
938315;0.041992;0.022461;1.177734;
938535;0.042969;0.019531;1.176758;
938755;0.041992;0.023438;1.174805;
938975;0.041016;0.021484;1.178711;
939195;0.042969;0.022461;1.175781;
939405;0.039062;0.020508;1.165039;
939610;0.043945;0.024414;1.161133;
939831;0.041992;0.021484;1.163086;
940061;0.041016;0.022461;1.163086;
940285;0.041992;0.019531;1.166016;
940505;0.047852;0.022461;1.184570;
940715;0.046875;0.021484;1.198242;
940935;0.047852;0.027344;1.208984;
941155;0.045898;0.021484;1.205078;
941365;0.044922;0.019531;1.209961;
941575;0.050781;0.019531;1.201172;
941785;0.047852;0.017578;1.171875;
942005;0.040039;0.023438;1.121094;
942215;0.039062;0.027344;1.088867;
942425;0.032227;0.024414;1.046875;
942635;0.031250;0.022461;1.021484;
942855;0.032227;0.020508;0.996094;
943075;0.032227;0.025391;0.989258;
943301;0.028320;0.025391;0.972656;
943530;0.026367;0.024414;0.963867;
943765;0.032227;0.023438;0.993164;
943985;0.033203;0.022461;0.999023;
944205;0.031250;0.022461;1.023438;
944425;0.034180;0.025391;1.027344;
944645;0.033203;0.021484;1.052734;
944855;0.035156;0.025391;1.065430;
945065;0.040039;0.017578;1.083984;
945285;0.041016;0.022461;1.087891;
945505;0.040039;0.021484;1.075195;
945725;0.041016;0.024414;1.068359;
945935;0.038086;0.020508;1.052734;
946155;0.038086;0.024414;1.031250;
946365;0.037109;0.021484;1.002930;
946585;0.029297;0.021484;0.950195;
946790;0.026367;0.023438;0.925781;
947020;0.025391;0.024414;0.883789;
947252;0.024414;0.024414;0.865234;
947465;0.020508;0.023438;0.836914;
947685;0.022461;0.023438;0.825195;
947905;0.019531;0.026367;0.798828;
948115;0.017578;0.024414;0.795898;
948325;0.016602;0.020508;0.794922;
948535;0.019531;0.020508;0.801758;
948745;0.021484;0.026367;0.791992;
948955;0.020508;0.025391;0.808594;
949175;0.016602;0.022461;0.784180;
949385;0.014648;0.027344;0.760742;
949605;0.017578;0.024414;0.752930;
949815;0.015625;0.024414;0.750977;
950035;0.016602;0.020508;0.765625;
950255;0.018555;0.021484;0.770508;
950470;0.016602;0.023438;0.779297;
950700;0.016602;0.023438;0.782227;
950931;0.019531;0.022461;0.793945;
951155;0.021484;0.024414;0.816406;
951375;0.020508;0.022461;0.816406;
951585;0.019531;0.023438;0.819336;
951805;0.018555;0.019531;0.821289;
952015;0.017578;0.024414;0.818359;
952235;0.020508;0.020508;0.832031;
952445;0.022461;0.021484;0.838867;
952655;0.022461;0.024414;0.843750;
952875;0.019531;0.027344;0.840820;
953095;0.019531;0.025391;0.841797;
953305;0.018555;0.024414;0.835938;
953515;0.019531;0.022461;0.836914;
953735;0.022461;0.025391;0.859375;
953955;0.024414;0.023438;0.907227;
954170;0.027344;0.021484;0.958008;
954400;0.034180;0.025391;1.016602;
954630;0.041016;0.023438;1.067383;
954845;0.042969;0.023438;1.114258;
955065;0.043945;0.020508;1.144531;
955275;0.044922;0.023438;1.165039;
955485;0.045898;0.020508;1.154297;
955695;0.044922;0.022461;1.131836;
955915;0.038086;0.023438;1.106445;
956135;0.040039;0.023438;1.059570;
956355;0.034180;0.025391;1.027344;
956575;0.028320;0.022461;0.985352;
956785;0.028320;0.025391;0.992188;
957005;0.034180;0.023438;1.007812;
957215;0.035156;0.025391;1.039062;
957425;0.034180;0.021484;1.038086;
957645;0.037109;0.023438;1.067383;
957871;0.040039;0.023438;1.078125;
958100;0.038086;0.022461;1.102539;
958335;0.041992;0.020508;1.113281;
958555;0.041992;0.023438;1.117188;
958775;0.041016;0.027344;1.119141;
958995;0.041992;0.027344;1.097656;
959215;0.037109;0.023438;1.076172;
959435;0.034180;0.027344;1.038086;
959645;0.032227;0.029297;0.995117;
959855;0.029297;0.029297;0.959961;
960075;0.026367;0.034180;0.918945;
960285;0.024414;0.027344;0.892578;
960495;0.023438;0.025391;0.868164;
960715;0.018555;0.030273;0.858398;
960935;0.015625;0.027344;0.837891;
961155;0.017578;0.023438;0.831055;
961370;0.020508;0.026367;0.835938;
961600;0.021484;0.025391;0.860352;
961830;0.021484;0.025391;0.909180;
962055;0.022461;0.025391;0.939453;
962275;0.026367;0.022461;0.975586;
962495;0.029297;0.017578;1.011719;
962715;0.034180;0.017578;1.052734;
962935;0.039062;0.021484;1.099609;
963145;0.041992;0.017578;1.137695;
963365;0.044922;0.013672;1.174805;
963585;0.044922;0.016602;1.178711;
963805;0.047852;0.018555;1.196289;
964015;0.042969;0.021484;1.169922;
964235;0.039062;0.021484;1.134766;
964455;0.035156;0.019531;1.089844;
964675;0.035156;0.021484;1.058594;
964885;0.028320;0.021484;1.024414;
965090;0.028320;0.018555;0.995117;
965310;0.024414;0.023438;0.968750;
965540;0.026367;0.020508;0.989258;
965775;0.032227;0.018555;1.029297;
965995;0.033203;0.021484;1.073242;
966215;0.034180;0.016602;1.116211;
966435;0.039062;0.014648;1.150391;
966655;0.045898;0.013672;1.188477;
966865;0.048828;0.005859;1.235352;
967085;0.051758;0.007812;1.245117;
967305;0.053711;0.006836;1.252930;
967525;0.051758;0.013672;1.262695;
967745;0.055664;0.006836;1.265625;
967965;0.056641;0.008789;1.260742;
968185;0.049805;0.014648;1.250000;
968395;0.049805;0.013672;1.230469;
968606;0.050781;0.018555;1.208008;
968841;0.048828;0.016602;1.190430;
969070;0.044922;0.019531;1.179688;
969305;0.040039;0.022461;1.139648;
969525;0.037109;0.019531;1.118164;
969735;0.039062;0.016602;1.099609;
969945;0.039062;0.016602;1.097656;
970165;0.034180;0.020508;1.090820;
970375;0.035156;0.017578;1.080078;
970595;0.034180;0.020508;1.068359;
970815;0.034180;0.011719;1.065430;
971035;0.036133;0.015625;1.086914;
971245;0.036133;0.012695;1.082031;
971455;0.035156;0.016602;1.099609;
971665;0.036133;0.018555;1.102539;
971875;0.038086;0.015625;1.116211;
972095;0.039062;0.010742;1.140625;
972312;0.043945;0.014648;1.170898;
972550;0.041992;0.017578;1.175781;
972770;0.041016;0.015625;1.181641;
973005;0.045898;0.009766;1.199219;
973215;0.046875;0.012695;1.205078;
973425;0.045898;0.017578;1.209961;
973635;0.043945;0.015625;1.191406;
973855;0.043945;0.013672;1.180664;
974065;0.042969;0.016602;1.185547;
974285;0.044922;0.012695;1.179688;
974505;0.041992;0.015625;1.186523;
974715;0.042969;0.015625;1.179688;
974935;0.040039;0.009766;1.154297;
975145;0.041992;0.010742;1.169922;
975365;0.044922;0.008789;1.179688;
975585;0.043945;0.010742;1.166016;
975805;0.040039;0.013672;1.166992;
976021;0.039062;0.013672;1.151367;
976250;0.044922;0.013672;1.160156;
976480;0.044922;0.016602;1.174805;
976705;0.040039;0.018555;1.177734;
976925;0.042969;0.016602;1.173828;
977135;0.043945;0.019531;1.182617;
977355;0.047852;0.014648;1.205078;
977565;0.048828;0.018555;1.211914;
977785;0.046875;0.018555;1.213867;
977995;0.044922;0.012695;1.197266;
978215;0.046875;0.014648;1.196289;
978435;0.046875;0.015625;1.211914;
978655;0.048828;0.015625;1.220703;
978875;0.044922;0.016602;1.207031;
979095;0.045898;0.016602;1.192383;
979315;0.041992;0.011719;1.164062;
979530;0.041992;0.010742;1.138672;
979760;0.036133;0.017578;1.104492;
979980;0.029297;0.016602;1.069336;
980215;0.033203;0.013672;1.058594;
980435;0.031250;0.017578;1.053711;
980645;0.034180;0.015625;1.071289;
980855;0.031250;0.020508;1.072266;
981075;0.034180;0.019531;1.083984;
981285;0.033203;0.014648;1.097656;
981505;0.041016;0.012695;1.123047;
981715;0.040039;0.013672;1.139648;
981935;0.039062;0.015625;1.152344;
982145;0.039062;0.017578;1.153320;
982355;0.037109;0.013672;1.148438;
982575;0.041016;0.012695;1.164062;
982795;0.045898;0.013672;1.182617;
983015;0.039062;0.015625;1.176758;
