Time;acc_x;acc_y;acc_z;

1913;-0.008789;0.025391;1.051758;
2063;-0.001953;0.035156;1.042969;
2203;-0.004883;0.037109;1.047852;
2343;-0.001953;0.025391;1.065430;
2483;-0.002930;0.030273;1.080078;
2623;-0.000977;0.017578;1.089844;
2763;-0.003906;0.028320;1.081055;
2903;0.002930;0.016602;1.109375;
3044;0.000977;0.028320;1.113281;
3183;-0.003906;0.014648;1.082031;
3323;-0.001953;0.017578;1.061523;
3463;-0.003906;0.014648;1.052734;
3603;0.000000;0.018555;1.053711;
3743;-0.005859;0.020508;1.011719;
3883;-0.004883;0.017578;0.988281;
4023;-0.003906;0.012695;0.991211;
4163;-0.005859;0.020508;0.959961;
4303;-0.010742;0.019531;0.951172;
4445;-0.003906;0.020508;0.951172;
4589;-0.007812;0.030273;0.951172;
4742;-0.008789;0.026367;0.955078;
4889;-0.008789;0.025391;0.962891;
5029;-0.005859;0.027344;0.982422;
5180;-0.004883;0.029297;1.018555;
5309;-0.003906;0.033203;1.042969;
5453;-0.004883;0.034180;1.068359;
5593;0.001953;0.030273;1.086914;
5729;-0.001953;0.022461;1.100586;
5879;-0.000977;0.001953;1.066406;
6023;0.000977;0.003906;1.070312;
6163;0.005859;0.003906;1.100586;
6303;-0.003906;0.009766;1.077148;
6443;-0.004883;0.015625;1.073242;
6589;0.002930;0.020508;1.096680;
6733;-0.006836;0.026367;1.077148;
6883;-0.005859;0.037109;1.078125;
7023;-0.000977;0.038086;1.060547;
7163;-0.003906;0.027344;1.046875;
7298;0.000000;0.032227;1.033203;
7439;-0.000977;0.018555;1.034180;
7592;-0.004883;0.026367;1.019531;
7723;-0.005859;0.022461;1.020508;
7863;-0.005859;0.022461;1.038086;
7999;-0.003906;0.018555;1.014648;
8151;-0.003906;0.019531;1.026367;
8299;-0.003906;0.021484;1.041016;
8440;-0.002930;0.021484;1.052734;
8579;-0.002930;0.019531;1.048828;
8719;-0.000977;0.023438;1.053711;
8869;-0.002930;0.031250;1.071289;
9023;-0.000977;0.022461;1.069336;
9163;-0.002930;0.018555;1.067383;
9299;-0.000977;0.019531;1.071289;
9433;-0.000977;0.024414;1.076172;
9573;-0.002930;0.028320;1.089844;
9713;-0.002930;0.027344;1.066406;
9853;0.000000;0.024414;1.069336;
9993;0.001953;0.018555;1.072266;
10133;-0.005859;0.024414;1.050781;
10273;-0.001953;0.024414;1.021484;
10423;-0.003906;0.022461;1.011719;
10558;-0.003906;0.013672;1.003906;
10703;-0.003906;0.014648;0.996094;
10843;-0.002930;0.013672;1.007812;
10979;-0.002930;0.019531;1.000000;
11129;-0.008789;0.026367;0.983398;
11273;-0.005859;0.024414;0.981445;
11400;-0.005859;0.026367;0.991211;
11539;-0.009766;0.027344;0.993164;
11689;-0.003906;0.029297;0.999023;
11829;-0.005859;0.026367;1.008789;
11979;-0.002930;0.029297;1.016602;
12109;-0.004883;0.019531;1.024414;
12239;-0.000977;0.018555;1.042969;
12383;-0.003906;0.018555;1.034180;
12523;-0.000977;0.023438;1.040039;
12663;-0.001953;0.028320;1.047852;
12805;-0.004883;0.025391;1.047852;
12953;-0.004883;0.029297;1.036133;
13093;-0.003906;0.028320;1.033203;
13233;-0.006836;0.021484;1.017578;
13373;-0.000977;0.011719;1.031250;
13509;-0.001953;0.013672;0.998047;
13648;-0.002930;0.024414;0.992188;
13793;-0.001953;0.033203;0.984375;
13933;-0.000977;0.028320;0.969727;
14073;-0.006836;0.032227;0.947266;
14209;-0.008789;0.030273;0.935547;
14359;-0.007812;0.018555;0.920898;
14500;-0.011719;0.020508;0.927734;
14639;-0.006836;0.029297;0.932617;
14789;-0.012695;0.024414;0.933594;
14919;-0.012695;0.028320;0.947266;
15060;-0.004883;0.031250;0.959961;
15199;-0.004883;0.020508;0.968750;
15339;-0.003906;0.019531;1.011719;
15483;0.002930;0.027344;1.074219;
15633;-0.002930;0.021484;1.115234;
15773;0.001953;0.022461;1.155273;
15913;0.002930;0.023438;1.208984;
16053;0.002930;0.014648;1.203125;
16193;0.006836;0.011719;1.198242;
16333;0.004883;0.018555;1.229492;
16473;0.005859;0.023438;1.226562;
16623;0.006836;0.025391;1.189453;
16764;0.004883;0.016602;1.177734;
16903;-0.003906;0.023438;1.122070;
17043;0.007812;0.018555;1.098633;
17183;-0.002930;0.027344;1.045898;
17323;-0.002930;0.018555;1.027344;
17460;-0.004883;0.015625;0.953125;
17609;-0.002930;0.001953;0.913086;
17759;-0.011719;0.025391;0.928711;
17909;-0.013672;0.021484;0.911133;
18063;0.000000;0.005859;0.908203;
18199;-0.013672;0.034180;0.882812;
18333;-0.013672;0.030273;0.895508;
18469;-0.003906;0.028320;0.948242;
18610;-0.014648;0.017578;0.941406;
18763;-0.002930;0.027344;0.967773;
18903;0.000977;0.011719;1.017578;
19053;-0.005859;0.018555;1.022461;
19193;-0.001953;0.020508;1.038086;
19333;-0.001953;0.021484;1.050781;
19473;-0.001953;0.008789;1.054688;
19613;-0.000977;0.018555;1.081055;
19763;0.000000;0.013672;1.068359;
19903;0.000977;0.020508;1.086914;
20043;0.002930;0.027344;1.079102;
20183;-0.005859;0.029297;1.070312;
20323;-0.003906;0.021484;1.086914;
20463;0.000000;0.025391;1.082031;
20603;-0.001953;0.030273;1.093750;
20740;0.000000;0.026367;1.096680;
20879;0.000977;0.026367;1.095703;
21033;0.002930;0.024414;1.095703;
21170;-0.007812;0.021484;1.074219;
21299;0.004883;0.019531;1.079102;
21439;0.000977;0.017578;1.059570;
21589;-0.000977;0.006836;1.027344;
21739;-0.001953;0.016602;1.012695;
21879;-0.001953;0.009766;1.006836;
22033;-0.000977;0.019531;1.016602;
22183;-0.008789;0.026367;0.982422;
22323;-0.001953;0.019531;0.983398;
22463;-0.001953;0.019531;0.982422;
22613;-0.005859;0.024414;0.960938;
22753;-0.003906;0.033203;0.982422;
22893;-0.003906;0.028320;0.974609;
23033;-0.008789;0.029297;0.971680;
23173;-0.001953;0.022461;0.975586;
23313;-0.003906;0.023438;0.987305;
23453;-0.003906;0.023438;0.985352;
23593;-0.005859;0.032227;0.989258;
23733;-0.004883;0.024414;0.996094;
23873;-0.005859;0.033203;1.004883;
23999;-0.004883;0.029297;0.992188;
24139;-0.003906;0.023438;1.003906;
24289;-0.003906;0.015625;1.019531;
24439;-0.002930;0.015625;1.022461;
24589;-0.002930;0.016602;1.010742;
24733;-0.003906;0.023438;1.010742;
24873;-0.003906;0.014648;1.018555;
25013;-0.003906;0.024414;1.031250;
25153;-0.000977;0.019531;1.026367;
25293;0.000977;0.026367;1.027344;
25433;-0.004883;0.029297;1.021484;
25573;-0.005859;0.033203;1.013672;
25723;-0.002930;0.030273;1.005859;
25873;-0.003906;0.020508;0.994141;
26013;-0.009766;0.022461;0.982422;
26153;-0.001953;0.028320;1.026367;
26293;0.000977;0.025391;1.034180;
26433;-0.004883;0.020508;1.021484;
26573;-0.005859;0.027344;1.030273;
26713;0.000977;0.023438;1.077148;
26839;-0.001953;0.017578;1.087891;
26989;-0.000977;0.028320;1.062500;
27129;0.000000;0.021484;1.057617;
27280;0.000977;0.026367;1.037109;
27429;-0.008789;0.018555;1.000977;
27570;0.000000;0.021484;0.981445;
27723;-0.005859;0.023438;0.960938;
27863;-0.009766;0.027344;0.955078;
28003;-0.008789;0.030273;0.951172;
28143;-0.001953;0.027344;0.979492;
28283;-0.006836;0.027344;0.996094;
28423;-0.008789;0.031250;0.993164;
28563;-0.007812;0.024414;1.019531;
28713;0.002930;0.011719;1.040039;
28853;-0.001953;0.023438;1.043945;
28993;-0.003906;0.023438;1.054688;
29143;-0.004883;0.023438;1.069336;
29283;0.000977;0.019531;1.048828;
29423;-0.001953;0.020508;1.032227;
29563;-0.002930;0.029297;1.038086;
29703;-0.004883;0.022461;1.021484;
29829;-0.004883;0.031250;0.990234;
29969;-0.006836;0.038086;1.001953;
30109;-0.003906;0.030273;0.961914;
30259;-0.006836;0.022461;0.939453;
30409;-0.011719;0.030273;0.934570;
30549;-0.006836;0.033203;0.917969;
30703;-0.007812;0.043945;0.910156;
30843;-0.011719;0.023438;0.907227;
30983;-0.008789;0.018555;0.909180;
31123;-0.005859;0.012695;0.919922;
31263;-0.007812;0.022461;0.946289;
31403;-0.009766;0.017578;0.963867;
31543;-0.008789;0.018555;0.975586;
31683;-0.003906;0.014648;0.995117;
31824;-0.003906;0.013672;1.003906;
31963;-0.005859;0.008789;1.017578;
32103;-0.003906;0.024414;1.036133;
32243;-0.002930;0.027344;1.037109;
32383;-0.007812;0.021484;1.030273;
32523;0.000977;0.021484;1.038086;
32659;-0.007812;0.027344;1.006836;
32799;-0.006836;0.023438;1.017578;
32939;-0.000977;0.030273;1.041992;
33080;-0.002930;0.033203;1.036133;
33229;-0.010742;0.030273;0.995117;
33358;-0.006836;0.026367;0.984375;
33509;-0.010742;0.033203;0.982422;
33649;-0.011719;0.024414;0.942383;
33803;-0.014648;0.014648;0.922852;
33943;-0.005859;0.004883;0.964844;
34083;-0.005859;0.017578;0.979492;
34233;-0.009766;0.025391;0.973633;
34373;-0.007812;0.022461;0.989258;
34513;-0.000977;0.032227;1.046875;
34663;-0.008789;0.016602;1.031250;
34803;0.000000;0.018555;1.071289;
34943;0.000000;0.026367;1.116211;
35083;0.000977;0.028320;1.144531;
35223;0.000000;0.030273;1.158203;
35363;0.001953;0.022461;1.171875;
35503;0.000977;0.021484;1.155273;
35643;-0.000977;0.019531;1.150391;
35779;-0.001953;0.033203;1.156250;
35909;-0.002930;0.019531;1.128906;
36039;0.001953;0.017578;1.125000;
36169;-0.008789;0.024414;1.100586;
36309;-0.000977;0.024414;1.113281;
36460;0.000000;0.022461;1.102539;
36599;-0.003906;0.029297;1.113281;
36750;-0.005859;0.028320;1.131836;
36903;0.002930;0.025391;1.148438;
37043;-0.000977;0.015625;1.153320;
37183;0.000977;0.027344;1.175781;
37333;0.004883;0.023438;1.197266;
37473;0.005859;0.029297;1.204102;
37613;0.000977;0.025391;1.200195;
37753;0.003906;0.031250;1.203125;
37893;0.004883;0.018555;1.196289;
38033;0.001953;0.024414;1.176758;
38173;0.000000;0.013672;1.175781;
38313;0.005859;0.020508;1.164062;
38453;0.000000;0.018555;1.166016;
38593;0.001953;0.017578;1.154297;
38733;-0.002930;0.014648;1.135742;
38870;0.002930;0.012695;1.158203;
39009;0.001953;0.023438;1.140625;
39160;-0.002930;0.015625;1.129883;
39289;0.000000;0.020508;1.130859;
39439;0.000977;0.014648;1.101562;
39593;-0.002930;0.028320;1.104492;
39733;-0.005859;0.019531;1.080078;
39883;0.000977;0.025391;1.069336;
40023;-0.009766;0.022461;1.042969;
40163;-0.001953;0.030273;1.050781;
40313;-0.008789;0.017578;1.047852;
40453;-0.004883;0.019531;1.041016;
40593;-0.004883;0.018555;1.043945;
40733;-0.004883;0.021484;1.055664;
40873;-0.005859;0.016602;1.043945;
41023;-0.003906;0.028320;1.046875;
41163;-0.008789;0.015625;1.069336;
41303;-0.000977;0.027344;1.077148;
41443;-0.004883;0.022461;1.062500;
41579;-0.005859;0.031250;1.083984;
41719;-0.002930;0.018555;1.078125;
41869;0.001953;0.026367;1.053711;
42009;-0.007812;0.018555;1.043945;
42139;-0.001953;0.027344;1.041016;
42289;-0.004883;0.019531;1.019531;
42439;-0.004883;0.022461;1.004883;
42593;-0.007812;0.017578;0.985352;
42733;-0.004883;0.025391;0.986328;
42873;-0.005859;0.020508;0.962891;
43023;-0.009766;0.020508;0.949219;
43163;-0.009766;0.026367;0.949219;
43303;-0.009766;0.024414;0.945312;
43443;-0.005859;0.022461;0.926758;
43583;-0.010742;0.024414;0.918945;
43733;-0.011719;0.025391;0.917969;
43873;-0.008789;0.023438;0.904297;
44013;-0.008789;0.027344;0.902344;
44163;-0.011719;0.027344;0.914062;
44303;-0.010742;0.021484;0.911133;
44443;-0.010742;0.020508;0.894531;
44580;-0.015625;0.022461;0.890625;
44709;-0.009766;0.023438;0.918945;
44849;-0.008789;0.018555;0.910156;
45001;-0.012695;0.030273;0.916992;
45143;-0.012695;0.027344;0.928711;
45289;-0.011719;0.028320;0.933594;
45439;-0.009766;0.021484;0.917969;
45579;-0.012695;0.028320;0.936523;
45723;-0.010742;0.024414;0.932617;
45863;-0.008789;0.021484;0.952148;
46003;-0.010742;0.015625;0.930664;
46143;-0.008789;0.025391;0.935547;
46283;-0.008789;0.017578;0.965820;
46433;-0.012695;0.019531;0.973633;
46573;-0.004883;0.017578;1.001953;
46713;-0.005859;0.022461;1.036133;
46853;-0.005859;0.022461;1.055664;
46993;-0.005859;0.023438;1.065430;
47143;-0.001953;0.018555;1.072266;
47283;-0.004883;0.021484;1.069336;
47423;-0.004883;0.018555;1.050781;
47563;-0.004883;0.025391;1.056641;
47699;-0.002930;0.023438;1.057617;
47831;-0.006836;0.026367;1.057617;
47980;-0.006836;0.027344;1.067383;
48119;-0.002930;0.029297;1.083008;
48269;-0.000977;0.024414;1.088867;
48409;-0.003906;0.028320;1.102539;
48549;-0.003906;0.020508;1.096680;
48703;-0.002930;0.026367;1.124023;
48843;0.000977;0.021484;1.125977;
48983;-0.001953;0.022461;1.142578;
49123;-0.001953;0.018555;1.146484;
49263;0.000000;0.017578;1.158203;
49403;0.000977;0.015625;1.139648;
49543;-0.001953;0.018555;1.145508;
49683;0.001953;0.018555;1.154297;
49823;-0.000977;0.017578;1.121094;
49963;-0.001953;0.019531;1.116211;
50103;-0.002930;0.024414;1.101562;
50243;-0.001953;0.021484;1.074219;
50383;-0.004883;0.018555;1.050781;
50523;-0.005859;0.023438;1.053711;
50659;-0.004883;0.025391;1.048828;
50809;-0.002930;0.031250;1.030273;
50959;-0.008789;0.025391;1.026367;
51089;-0.007812;0.028320;1.027344;
51239;-0.006836;0.025391;1.012695;
51389;-0.005859;0.022461;1.013672;
51543;-0.008789;0.024414;1.017578;
51683;0.000000;0.022461;1.032227;
51833;0.001953;0.019531;1.024414;
51973;0.001953;0.019531;1.024414;
52113;0.007812;0.013672;1.030273;
52253;0.007812;0.019531;1.026367;
52393;0.008789;0.014648;1.047852;
52533;0.007812;0.015625;1.030273;
52673;0.009766;0.022461;1.041992;
52813;0.012695;0.015625;1.049805;
52953;0.012695;0.020508;1.040039;
53093;0.016602;0.013672;1.030273;
53233;0.019531;0.014648;1.033203;
53373;0.019531;0.013672;1.029297;
53509;0.025391;0.022461;1.037109;
53649;0.029297;0.020508;1.041992;
53799;0.029297;0.022461;1.039062;
53949;0.034180;0.021484;1.036133;
54090;0.040039;0.023438;1.052734;
54230;0.037109;0.017578;1.051758;
54363;0.041992;0.021484;1.048828;
54503;0.041992;0.021484;1.036133;
54643;0.044922;0.023438;1.030273;
54783;0.049805;0.022461;1.029297;
54923;0.044922;0.019531;1.020508;
55063;0.047852;0.020508;1.006836;
55213;0.048828;0.021484;1.000977;
55353;0.048828;0.024414;1.002930;
55493;0.053711;0.019531;0.997070;
55633;0.055664;0.026367;1.003906;
55773;0.055664;0.020508;1.000977;
55913;0.058594;0.022461;1.013672;
56054;0.060547;0.021484;1.025391;
56193;0.067383;0.019531;1.036133;
56339;0.069336;0.015625;1.065430;
56479;0.075195;0.015625;1.073242;
56619;0.077148;0.018555;1.093750;
56769;0.077148;0.012695;1.077148;
56909;0.080078;0.017578;1.083984;
57061;0.088867;0.025391;1.080078;
57213;0.096680;0.018555;1.082031;
57353;0.100586;0.024414;1.089844;
57493;0.103516;0.029297;1.077148;
57633;0.102539;0.028320;1.042969;
57773;0.100586;0.017578;1.060547;
57913;0.097656;0.021484;1.045898;
58053;0.098633;0.017578;1.028320;
58203;0.098633;0.019531;1.025391;
58343;0.100586;0.021484;1.030273;
58483;0.099609;0.020508;1.016602;
58633;0.096680;0.017578;1.006836;
58773;0.096680;0.015625;1.000000;
58913;0.094727;0.024414;1.006836;
59053;0.098633;0.019531;0.994141;
59189;0.090820;0.021484;0.998047;
59329;0.092773;0.023438;0.990234;
59479;0.090820;0.022461;0.988281;
59629;0.093750;0.026367;0.970703;
59769;0.090820;0.026367;0.967773;
59899;0.094727;0.028320;0.961914;
60050;0.093750;0.029297;0.971680;
60193;0.092773;0.028320;0.988281;
60333;0.093750;0.027344;0.978516;
60473;0.094727;0.025391;1.009766;
60613;0.091797;0.025391;1.008789;
60753;0.088867;0.019531;1.028320;
60903;0.092773;0.016602;1.063477;
61043;0.095703;0.014648;1.069336;
61183;0.093750;0.019531;1.079102;
61333;0.093750;0.015625;1.097656;
61473;0.097656;0.017578;1.089844;
61613;0.096680;0.016602;1.078125;
61753;0.093750;0.016602;1.073242;
61893;0.092773;0.011719;1.051758;
62033;0.093750;0.013672;1.030273;
62169;0.088867;0.016602;1.012695;
62309;0.090820;0.016602;0.998047;
62449;0.087891;0.016602;0.975586;
62593;0.088867;0.016602;0.961914;
62739;0.087891;0.022461;0.955078;
62879;0.087891;0.024414;0.948242;
63019;0.084961;0.026367;0.956055;
63170;0.086914;0.036133;0.955078;
63313;0.089844;0.032227;0.961914;
63463;0.086914;0.026367;0.978516;
63603;0.084961;0.018555;0.988281;
63743;0.082031;0.021484;1.004883;
63893;0.086914;0.021484;1.044922;
64033;0.087891;0.023438;1.080078;
64173;0.088867;0.022461;1.106445;
64313;0.095703;0.026367;1.131836;
64453;0.094727;0.026367;1.140625;
64593;0.092773;0.025391;1.136719;
64733;0.091797;0.021484;1.143555;
64873;0.091797;0.021484;1.137695;
65013;0.088867;0.020508;1.127930;
65153;0.091797;0.021484;1.131836;
65289;0.092773;0.020508;1.101562;
65439;0.089844;0.018555;1.072266;
65589;0.090820;0.019531;1.056641;
65739;0.089844;0.021484;1.037109;
65889;0.084961;0.027344;1.022461;
66033;0.084961;0.021484;1.008789;
66183;0.082031;0.024414;1.000000;
66324;0.084961;0.022461;0.987305;
66463;0.084961;0.021484;1.002930;
66603;0.082031;0.029297;1.004883;
66743;0.083984;0.024414;1.007812;
66883;0.083984;0.024414;1.008789;
67023;0.081055;0.018555;1.004883;
67163;0.083008;0.020508;1.021484;
67313;0.083008;0.020508;1.021484;
67453;0.085938;0.022461;1.038086;
67593;0.084961;0.021484;1.048828;
67743;0.084961;0.023438;1.053711;
67883;0.083008;0.024414;1.043945;
68019;0.081055;0.023438;1.036133;
68149;0.081055;0.018555;1.041992;
68299;0.083984;0.023438;1.032227;
68451;0.082031;0.011719;1.061523;
68589;0.082031;0.023438;1.078125;
68739;0.082031;0.007812;1.080078;
68870;0.083008;0.029297;1.108398;
69003;0.083008;0.012695;1.165039;
69143;0.083984;0.014648;1.250977;
69283;0.090820;0.012695;1.321289;
69423;0.094727;0.015625;1.435547;
69563;0.104492;0.006836;1.502930;
69703;0.108398;0.009766;1.605469;
69843;0.114258;0.006836;1.692383;
69983;0.121094;0.014648;1.787109;
70133;0.125977;0.013672;1.856445;
70273;0.128906;0.018555;1.930664;
70413;0.132812;0.009766;1.979492;
70563;0.137695;0.017578;2.028320;
70703;0.138672;0.022461;2.064453;
70843;0.143555;0.025391;2.086914;
70979;0.139648;0.025391;2.077148;
71120;0.143555;0.025391;2.066406;
71259;0.137695;0.016602;2.032227;
71409;0.137695;0.011719;2.002930;
71539;0.136719;0.013672;1.981445;
71683;0.133789;0.009766;1.934570;
71819;0.135742;0.000977;1.911133;
71959;0.129883;0.000977;1.858398;
72109;0.125000;0.014648;1.830078;
72253;0.126953;0.005859;1.812500;
72393;0.122070;0.004883;1.817383;
72533;0.125000;0.011719;1.826172;
72673;0.128906;0.010742;1.848633;
72813;0.127930;0.014648;1.866211;
72953;0.126953;0.015625;1.873047;
73093;0.131836;0.008789;1.895508;
73233;0.128906;0.011719;1.893555;
73374;0.133789;0.019531;1.909180;
73513;0.134766;0.014648;1.911133;
73663;0.130859;0.002930;1.902344;
73803;0.127930;0.003906;1.861328;
73943;0.129883;-0.000977;1.853516;
74083;0.126953;0.002930;1.845703;
74223;0.126953;0.001953;1.815430;
74360;0.126953;0.009766;1.801758;
74509;0.125977;0.008789;1.784180;
74653;0.126953;0.006836;1.758789;
74799;0.125977;0.004883;1.723633;
74939;0.124023;0.002930;1.732422;
75090;0.119141;0.006836;1.698242;
75229;0.120117;0.007812;1.702148;
75383;0.125000;0.005859;1.724609;
75533;0.125977;0.009766;1.737305;
75673;0.126953;0.005859;1.762695;
75813;0.129883;0.008789;1.791992;
75953;0.137695;0.006836;1.814453;
76093;0.132812;0.004883;1.823242;
76233;0.138672;0.003906;1.831055;
76373;0.135742;0.005859;1.847656;
76513;0.138672;0.004883;1.844727;
76653;0.137695;0.009766;1.860352;
76793;0.138672;0.009766;1.859375;
76933;0.138672;0.022461;1.865234;
77073;0.138672;0.021484;1.858398;
77213;0.143555;0.028320;1.853516;
77349;0.138672;0.025391;1.839844;
77489;0.139648;0.023438;1.834961;
77623;0.137695;0.014648;1.828125;
77761;0.142578;0.019531;1.834961;
77889;0.145508;0.016602;1.850586;
78029;0.139648;0.011719;1.859375;
78159;0.146484;0.012695;1.887695;
78309;0.149414;0.015625;1.901367;
78439;0.150391;0.008789;1.912109;
78593;0.154297;0.012695;1.926758;
78733;0.154297;0.014648;1.933594;
78873;0.156250;0.009766;1.941406;
79013;0.161133;0.007812;1.956055;
79153;0.159180;0.015625;1.955078;
79293;0.158203;0.004883;1.946289;
79433;0.159180;0.004883;1.925781;
79573;0.159180;0.010742;1.911133;
79713;0.156250;0.009766;1.895508;
79853;0.158203;0.008789;1.892578;
79993;0.155273;0.010742;1.858398;
80133;0.155273;0.010742;1.859375;
80273;0.156250;0.009766;1.847656;
80413;0.153320;0.014648;1.840820;
80553;0.152344;0.015625;1.835938;
80699;0.155273;0.016602;1.823242;
80840;0.153320;0.021484;1.816406;
80991;0.160156;0.024414;1.827148;
81139;0.157227;0.024414;1.812500;
81289;0.158203;0.021484;1.833008;
81439;0.161133;0.024414;1.833008;
81573;0.163086;0.021484;1.832031;
81713;0.162109;0.027344;1.854492;
81853;0.164062;0.026367;1.820312;
81993;0.164062;0.026367;1.832031;
82133;0.163086;0.020508;1.820312;
82273;0.166016;0.027344;1.826172;
82413;0.169922;0.025391;1.818359;
82553;0.168945;0.019531;1.813477;
82693;0.167969;0.017578;1.791016;
82833;0.170898;0.013672;1.791016;
82973;0.171875;0.008789;1.770508;
83113;0.172852;0.005859;1.766602;
83253;0.173828;0.008789;1.749023;
83403;0.170898;0.008789;1.744141;
83539;0.174805;0.010742;1.765625;
83669;0.176758;0.014648;1.796875;
83799;0.178711;0.009766;1.822266;
83949;0.183594;0.012695;1.821289;
84089;0.185547;0.018555;1.847656;
84239;0.187500;0.007812;1.868164;
84383;0.194336;0.005859;1.862305;
84519;0.194336;0.004883;1.863281;
84659;0.192383;0.010742;1.868164;
84803;0.196289;0.007812;1.875977;
84944;0.199219;0.013672;1.874023;
85083;0.197266;0.012695;1.873047;
85223;0.196289;0.009766;1.869141;
85363;0.203125;0.014648;1.863281;
85503;0.204102;0.015625;1.867188;
85643;0.203125;0.015625;1.865234;
85783;0.205078;0.023438;1.884766;
85923;0.208008;0.023438;1.874023;
86063;0.207031;0.022461;1.875000;
86203;0.211914;0.023438;1.872070;
86344;0.208008;0.030273;1.874023;
86483;0.214844;0.021484;1.878906;
86623;0.210938;0.022461;1.875977;
86759;0.213867;0.017578;1.869141;
86903;0.219727;0.019531;1.879883;
87043;0.212891;0.025391;1.870117;
87179;0.216797;0.021484;1.870117;
87323;0.206055;0.025391;1.862305;
87451;0.208008;0.019531;1.836914;
87589;0.204102;0.020508;1.822266;
87739;0.192383;0.010742;1.789062;
87888;0.189453;0.005859;1.779297;
88029;0.182617;0.005859;1.744141;
88179;0.169922;0.006836;1.708008;
88319;0.164062;0.016602;1.730469;
88463;0.157227;0.015625;1.708984;
88613;0.151367;0.012695;1.682617;
88753;0.145508;0.018555;1.632812;
88893;0.131836;0.017578;1.559570;
89033;0.121094;0.019531;1.505859;
89173;0.103516;0.020508;1.374023;
89313;0.089844;0.026367;1.280273;
89453;0.074219;0.014648;1.153320;
89593;0.054688;0.018555;1.046875;
89733;0.041016;0.021484;0.907227;
89873;0.034180;0.020508;0.801758;
90013;0.021484;0.017578;0.656250;
90153;0.017578;0.016602;0.574219;
90293;0.013672;0.024414;0.462891;
90431;0.010742;0.019531;0.397461;
90569;0.001953;0.017578;0.287109;
90720;0.000000;0.019531;0.222656;
90869;-0.000977;0.022461;0.202148;
91009;0.001953;0.023438;0.161133;
91159;-0.002930;0.028320;0.111328;
91313;-0.001953;0.029297;0.091797;
91453;-0.000977;0.030273;0.068359;
91593;-0.004883;0.028320;0.053711;
91743;-0.003906;0.033203;0.047852;
91883;-0.004883;0.035156;0.029297;
92023;-0.002930;0.037109;0.041992;
92163;-0.003906;0.038086;0.032227;
92303;-0.006836;0.037109;0.037109;
92443;-0.008789;0.038086;0.037109;
92583;-0.006836;0.035156;0.051758;
92723;-0.007812;0.032227;0.051758;
92863;-0.011719;0.034180;0.041992;
93013;-0.010742;0.030273;0.054688;
93153;-0.005859;0.032227;0.049805;
93289;-0.008789;0.031250;0.041992;
93429;-0.013672;0.030273;0.040039;
93579;-0.010742;0.030273;0.034180;
93721;-0.004883;0.032227;0.040039;
93939;-0.006836;0.026367;0.035156;
94089;-0.007812;0.027344;0.025391;
94219;-0.008789;0.028320;0.027344;
94359;-0.012695;0.025391;0.024414;
94503;-0.007812;0.025391;0.023438;
94653;-0.007812;0.026367;-0.001953;
94793;-0.009766;0.027344;0.007812;
94933;-0.009766;0.028320;0.004883;
95073;-0.007812;0.030273;0.008789;
95213;-0.013672;0.030273;-0.000977;
95353;-0.011719;0.030273;-0.004883;
95493;-0.014648;0.027344;-0.004883;
95633;-0.013672;0.029297;-0.009766;
95773;-0.011719;0.028320;0.000977;
95913;-0.010742;0.028320;-0.009766;
96049;-0.014648;0.028320;-0.013672;
96203;-0.009766;0.026367;-0.007812;
96343;-0.009766;0.023438;-0.003906;
96479;-0.013672;0.025391;-0.007812;
96609;-0.014648;0.021484;0.004883;
96759;-0.015625;0.027344;0.000977;
96909;-0.012695;0.024414;0.014648;
97049;-0.012695;0.023438;0.009766;
97199;-0.013672;0.025391;0.020508;
97409;-0.016602;0.029297;0.017578;
97630;-0.013672;0.025391;0.025391;
97843;-0.014648;0.028320;0.028320;
98063;-0.017578;0.026367;0.037109;
98275;-0.016602;0.029297;0.040039;
98503;-0.018555;0.027344;0.043945;
98723;-0.017578;0.032227;0.043945;
98943;-0.016602;0.024414;0.043945;
99163;-0.019531;0.033203;0.039062;
99373;-0.017578;0.035156;0.045898;
99593;-0.020508;0.028320;0.026367;
99813;-0.016602;0.029297;0.041016;
100023;-0.016602;0.026367;0.037109;
100244;-0.015625;0.028320;0.035156;
100449;-0.015625;0.029297;0.023438;
100679;-0.016602;0.029297;0.031250;
100910;-0.016602;0.030273;0.018555;
101139;-0.016602;0.030273;0.013672;
101369;-0.015625;0.029297;0.012695;
101583;-0.017578;0.027344;0.007812;
101803;-0.017578;0.028320;-0.002930;
102013;-0.017578;0.028320;0.007812;
102223;-0.017578;0.027344;0.005859;
102443;-0.018555;0.027344;0.006836;
102663;-0.015625;0.027344;0.004883;
102873;-0.018555;0.029297;-0.001953;
103093;-0.022461;0.026367;0.010742;
103313;-0.020508;0.025391;0.014648;
103533;-0.018555;0.028320;0.028320;
103749;-0.020508;0.027344;0.018555;
103953;-0.019531;0.026367;0.018555;
104173;-0.023438;0.029297;0.013672;
104390;-0.021484;0.028320;0.014648;
104599;-0.021484;0.030273;0.012695;
104829;-0.020508;0.025391;0.021484;
105050;-0.020508;0.027344;0.014648;
105259;-0.019531;0.025391;0.014648;
105473;-0.024414;0.026367;0.015625;
105693;-0.021484;0.028320;0.015625;
105913;-0.023438;0.025391;0.018555;
106133;-0.022461;0.028320;0.017578;
106353;-0.023438;0.027344;0.019531;
106573;-0.025391;0.027344;0.013672;
106793;-0.024414;0.026367;0.023438;
107013;-0.023438;0.027344;0.022461;
107223;-0.023438;0.027344;0.019531;
107443;-0.025391;0.026367;0.024414;
107653;-0.022461;0.026367;0.025391;
107873;-0.027344;0.027344;0.021484;
108083;-0.024414;0.024414;0.021484;
108303;-0.026367;0.024414;0.017578;
108519;-0.026367;0.026367;0.025391;
108729;-0.026367;0.023438;0.025391;
108959;-0.026367;0.024414;0.004883;
109173;-0.027344;0.024414;0.000977;
109389;-0.029297;0.024414;0.002930;
109613;-0.034180;0.028320;-0.006836;
109823;-0.020508;0.012695;0.043945;
110033;-0.028320;0.009766;0.041016;
110253;-0.031250;0.030273;-0.001953;
110473;-0.028320;0.033203;-0.013672;
110693;-0.029297;0.034180;-0.022461;
110903;-0.028320;0.028320;-0.021484;
111113;-0.034180;0.026367;-0.045898;
111323;-0.034180;0.023438;-0.040039;
111543;-0.034180;0.025391;-0.034180;
111763;-0.034180;0.027344;-0.006836;
111979;-0.036133;0.028320;0.010742;
112213;-0.036133;0.030273;0.033203;
112433;-0.033203;0.030273;0.048828;
112641;-0.038086;0.023438;0.064453;
112860;-0.035156;0.029297;0.092773;
113090;-0.037109;0.026367;0.094727;
113309;-0.039062;0.025391;0.083008;
113540;-0.039062;0.022461;0.101562;
113773;-0.040039;0.023438;0.098633;
113993;-0.043945;0.019531;0.074219;
114209;-0.045898;0.017578;0.048828;
114423;-0.049805;0.018555;0.084961;
114643;-0.041016;0.019531;0.182617;
114853;-0.050781;0.002930;0.190430;
115073;-0.045898;0.034180;0.449219;
115283;-0.031250;0.018555;0.639648;
115503;-0.017578;0.022461;0.817383;
115713;-0.004883;0.013672;0.954102;
115933;0.015625;0.025391;1.199219;
116143;0.034180;0.015625;1.333008;
116353;0.036133;0.027344;1.409180;
116573;0.050781;0.031250;1.536133;
116789;0.055664;0.033203;1.599609;
117009;0.061523;0.023438;1.665039;
117239;0.067383;0.017578;1.696289;
117469;0.062500;0.018555;1.721680;
117693;0.070312;0.018555;1.722656;
117913;0.060547;0.023438;1.759766;
118123;0.055664;0.026367;1.746094;
118333;0.057617;0.027344;1.726562;
118553;0.042969;0.028320;1.690430;
118773;0.046875;0.021484;1.730469;
118993;0.047852;0.019531;1.714844;
119203;0.042969;0.018555;1.741211;
119413;0.044922;0.019531;1.787109;
119633;0.045898;0.025391;1.836914;
119843;0.050781;0.024414;1.900391;
120053;0.052734;0.029297;1.921875;
120273;0.054688;0.022461;1.974609;
120489;0.047852;0.016602;1.967773;
120709;0.041992;0.024414;1.943359;
120929;0.040039;0.014648;1.914062;
121161;0.042969;0.014648;1.882812;
121373;0.031250;0.017578;1.815430;
121593;0.023438;0.014648;1.762695;
121813;0.012695;0.012695;1.696289;
122033;0.009766;0.016602;1.653320;
122243;0.000000;0.021484;1.626953;
122463;-0.003906;0.021484;1.605469;
122683;-0.005859;0.023438;1.610352;
122903;-0.006836;0.022461;1.618164;
123113;-0.004883;0.025391;1.639648;
123333;-0.005859;0.026367;1.660156;
123543;-0.004883;0.025391;1.678711;
123753;-0.000977;0.015625;1.703125;
123973;-0.001953;0.016602;1.729492;
124193;0.000977;0.005859;1.730469;
124409;-0.004883;0.015625;1.734375;
124619;-0.003906;0.008789;1.736328;
124839;-0.009766;0.013672;1.734375;
125073;-0.006836;0.009766;1.740234;
125293;-0.010742;0.013672;1.736328;
125503;-0.011719;0.013672;1.738281;
125723;-0.012695;0.019531;1.735352;
125943;-0.017578;0.012695;1.737305;
126163;-0.018555;0.019531;1.740234;
126383;-0.019531;0.017578;1.746094;
126603;-0.021484;0.016602;1.738281;
126823;-0.023438;0.014648;1.733398;
127043;-0.022461;0.015625;1.737305;
127253;-0.023438;0.016602;1.759766;
127473;-0.025391;0.011719;1.751953;
127693;-0.027344;0.013672;1.754883;
127913;-0.025391;0.012695;1.768555;
128129;-0.027344;0.012695;1.746094;
128350;-0.032227;0.009766;1.725586;
128559;-0.032227;0.009766;1.710938;
128783;-0.034180;0.003906;1.688477;
129003;-0.037109;0.007812;1.677734;
129223;-0.040039;0.007812;1.655273;
129433;-0.044922;0.011719;1.640625;
129643;-0.045898;0.015625;1.628906;
129853;-0.045898;0.012695;1.625000;
130073;-0.044922;0.010742;1.618164;
130293;-0.047852;0.010742;1.601562;
130513;-0.047852;0.011719;1.602539;
130733;-0.052734;0.016602;1.574219;
130943;-0.052734;0.023438;1.574219;
131163;-0.055664;0.019531;1.554688;
131383;-0.057617;0.030273;1.538086;
131603;-0.059570;0.024414;1.517578;
131823;-0.060547;0.022461;1.500977;
132039;-0.059570;0.018555;1.483398;
132259;-0.064453;0.019531;1.469727;
132490;-0.067383;0.016602;1.459961;
132699;-0.064453;0.021484;1.458008;
132923;-0.068359;0.022461;1.451172;
133143;-0.068359;0.022461;1.438477;
133353;-0.066406;0.024414;1.432617;
133563;-0.068359;0.025391;1.402344;
133783;-0.073242;0.019531;1.361328;
134003;-0.078125;0.030273;1.334961;
134223;-0.078125;0.029297;1.288086;
134443;-0.081055;0.022461;1.251953;
134653;-0.082031;0.027344;1.234375;
134863;-0.083984;0.027344;1.228516;
135073;-0.085938;0.029297;1.217773;
135283;-0.083008;0.030273;1.209961;
135493;-0.089844;0.025391;1.202148;
135713;-0.088867;0.031250;1.208984;
135919;-0.085938;0.030273;1.211914;
136149;-0.084961;0.031250;1.228516;
136379;-0.084961;0.022461;1.243164;
136603;-0.082031;0.023438;1.274414;
136823;-0.083008;0.020508;1.293945;
137043;-0.080078;0.027344;1.324219;
137253;-0.079102;0.027344;1.346680;
137463;-0.076172;0.023438;1.373047;
137683;-0.074219;0.024414;1.394531;
137903;-0.071289;0.020508;1.410156;
138123;-0.068359;0.021484;1.439453;
138343;-0.074219;0.026367;1.450195;
138553;-0.071289;0.019531;1.458984;
138763;-0.069336;0.018555;1.484375;
138973;-0.066406;0.016602;1.480469;
139183;-0.067383;0.014648;1.490234;
139403;-0.066406;0.018555;1.491211;
139619;-0.070312;0.013672;1.469727;
139839;-0.068359;0.014648;1.460938;
140060;-0.069336;0.016602;1.436523;
140279;-0.069336;0.013672;1.433594;
140513;-0.073242;0.021484;1.405273;
140733;-0.074219;0.017578;1.382812;
140943;-0.075195;0.023438;1.363281;
141153;-0.080078;0.023438;1.346680;
141373;-0.077148;0.024414;1.344727;
141583;-0.079102;0.022461;1.348633;
141803;-0.077148;0.023438;1.361328;
142023;-0.075195;0.020508;1.373047;
142233;-0.071289;0.021484;1.379883;
142453;-0.072266;0.016602;1.393555;
142663;-0.073242;0.016602;1.398438;
142883;-0.070312;0.015625;1.400391;
143103;-0.072266;0.015625;1.384766;
143323;-0.073242;0.015625;1.375000;
143549;-0.075195;0.019531;1.337891;
143769;-0.076172;0.019531;1.323242;
143980;-0.080078;0.020508;1.297852;
144203;-0.081055;0.020508;1.255859;
144423;-0.082031;0.019531;1.210938;
144643;-0.082031;0.019531;1.180664;
144853;-0.083008;0.018555;1.141602;
145073;-0.087891;0.023438;1.097656;
145293;-0.087891;0.016602;1.069336;
145514;-0.088867;0.017578;1.029297;
145733;-0.091797;0.020508;0.999023;
145953;-0.092773;0.019531;0.965820;
146163;-0.094727;0.018555;0.936523;
146373;-0.095703;0.017578;0.914062;
146583;-0.097656;0.020508;0.905273;
146803;-0.096680;0.017578;0.893555;
147024;-0.095703;0.019531;0.904297;
147229;-0.094727;0.021484;0.919922;
147439;-0.092773;0.019531;0.933594;
147649;-0.093750;0.019531;0.955078;
147879;-0.090820;0.018555;0.986328;
148113;-0.089844;0.023438;1.031250;
148333;-0.086914;0.019531;1.083008;
148553;-0.084961;0.017578;1.109375;
148773;-0.081055;0.018555;1.125000;
148983;-0.082031;0.021484;1.130859;
149203;-0.080078;0.021484;1.136719;
149424;-0.081055;0.019531;1.146484;
149643;-0.075195;0.014648;1.184570;
149853;-0.074219;0.016602;1.218750;
150073;-0.068359;0.014648;1.250000;
150283;-0.062500;0.016602;1.286133;
150493;-0.059570;0.014648;1.295898;
150714;-0.058594;0.015625;1.303711;
150929;-0.053711;0.009766;1.299805;
151159;-0.055664;0.014648;1.258789;
151390;-0.048828;0.009766;1.242188;
151620;-0.046875;0.011719;1.209961;
151853;-0.041992;0.013672;1.198242;
152073;-0.041016;0.013672;1.184570;
152283;-0.036133;0.015625;1.177734;
152499;-0.034180;0.022461;1.153320;
152733;-0.034180;0.022461;1.137695;
152944;-0.032227;0.026367;1.144531;
153153;-0.035156;0.023438;1.103516;
153373;-0.033203;0.023438;1.097656;
153593;-0.036133;0.023438;1.076172;
153813;-0.032227;0.024414;1.055664;
154033;-0.030273;0.019531;1.043945;
154243;-0.031250;0.015625;1.019531;
154469;-0.026367;0.016602;1.007812;
154693;-0.026367;0.009766;0.982422;
154899;-0.023438;0.011719;0.988281;
155129;-0.019531;0.012695;0.987305;
155359;-0.015625;0.020508;0.992188;
155589;-0.015625;0.016602;0.978516;
155809;-0.018555;0.017578;0.943359;
156019;-0.018555;0.020508;0.913086;
156229;-0.016602;0.022461;0.875000;
156463;-0.016602;0.019531;0.828125;
156673;-0.015625;0.019531;0.788086;
156879;-0.015625;0.019531;0.769531;
157103;-0.016602;0.020508;0.748047;
157323;-0.012695;0.021484;0.765625;
157539;-0.007812;0.020508;0.797852;
157753;-0.007812;0.025391;0.808594;
157973;-0.006836;0.022461;0.849609;
158193;-0.001953;0.013672;0.907227;
158411;0.003906;0.017578;0.951172;
158623;0.004883;0.017578;0.982422;
158843;0.007812;0.016602;1.015625;
159060;0.008789;0.022461;1.034180;
159282;0.007812;0.021484;1.030273;
159499;0.004883;0.021484;1.010742;
159719;0.000977;0.018555;0.990234;
159940;-0.000977;0.021484;0.985352;
160159;-0.001953;0.019531;0.967773;
160379;0.000000;0.021484;0.952148;
160613;-0.001953;0.019531;0.953125;
160829;0.000977;0.017578;0.955078;
161043;-0.002930;0.021484;0.970703;
161263;0.000000;0.018555;0.995117;
161473;0.000000;0.018555;1.018555;
161689;0.004883;0.014648;1.044922;
161913;0.004883;0.016602;1.080078;
162133;0.005859;0.018555;1.097656;
162349;0.006836;0.019531;1.119141;
162573;0.005859;0.019531;1.130859;
162783;0.008789;0.022461;1.145508;
162989;0.009766;0.018555;1.151367;
163209;0.007812;0.013672;1.160156;
163423;0.008789;0.018555;1.167969;
163639;0.006836;0.019531;1.181641;
163859;0.008789;0.018555;1.199219;
164079;0.005859;0.018555;1.192383;
164300;0.004883;0.020508;1.173828;
164529;0.006836;0.018555;1.172852;
164739;0.007812;0.024414;1.160156;
164973;0.006836;0.017578;1.130859;
165193;0.002930;0.025391;1.099609;
165409;0.001953;0.022461;1.067383;
165633;-0.000977;0.019531;1.014648;
165853;-0.001953;0.020508;0.987305;
166070;-0.001953;0.019531;0.958984;
166293;-0.005859;0.016602;0.936523;
166513;-0.001953;0.021484;0.918945;
166729;-0.010742;0.021484;0.904297;
166953;-0.008789;0.021484;0.909180;
167173;-0.005859;0.019531;0.904297;
167379;-0.005859;0.020508;0.904297;
167603;-0.004883;0.021484;0.921875;
167823;-0.006836;0.019531;0.912109;
168029;-0.007812;0.018555;0.918945;
168239;-0.006836;0.027344;0.945312;
168459;-0.006836;0.027344;0.955078;
168670;-0.006836;0.027344;0.977539;
168880;-0.002930;0.018555;0.994141;
169109;0.000977;0.018555;1.012695;
169333;-0.001953;0.020508;1.035156;
169543;-0.003906;0.028320;1.054688;
169759;-0.002930;0.018555;1.056641;
169983;-0.001953;0.023438;1.087891;
170193;0.003906;0.012695;1.099609;
170409;0.006836;0.011719;1.125977;
170633;0.000000;0.019531;1.146484;
170853;0.000977;0.024414;1.160156;
171063;0.002930;0.018555;1.159180;
171293;0.003906;0.022461;1.158203;
171503;0.007812;0.017578;1.151367;
171723;0.002930;0.022461;1.131836;
171943;0.002930;0.027344;1.125977;
172159;-0.001953;0.023438;1.097656;
172369;-0.001953;0.025391;1.083008;
172589;-0.002930;0.022461;1.067383;
172819;0.000000;0.012695;1.055664;
173039;-0.000977;0.018555;1.056641;
173263;-0.002930;0.023438;1.051758;
173473;-0.002930;0.020508;1.057617;
173690;-0.002930;0.019531;1.043945;
173913;-0.000977;0.018555;1.050781;
174123;0.001953;0.025391;1.057617;
174329;0.001953;0.021484;1.050781;
174539;-0.000977;0.017578;1.035156;
174753;-0.000977;0.017578;1.036133;
174963;-0.000977;0.027344;1.045898;
175179;-0.003906;0.028320;1.043945;
175403;0.000000;0.025391;1.044922;
175613;0.003906;0.025391;1.048828;
175829;0.003906;0.018555;1.067383;
176050;0.002930;0.015625;1.071289;
176263;0.002930;0.020508;1.072266;
176481;-0.001953;0.021484;1.042969;
176699;-0.007812;0.018555;1.002930;
176920;-0.003906;0.021484;0.958008;
177149;-0.003906;0.022461;0.936523;
177379;-0.004883;0.021484;0.947266;
177603;-0.006836;0.018555;0.958008;
177823;-0.003906;0.024414;0.989258;
178030;-0.006836;0.021484;1.000000;
178253;-0.000977;0.023438;1.041016;
178463;0.000977;0.024414;1.051758;
178680;0.003906;0.026367;1.075195;
178903;0.000000;0.030273;1.084961;
179113;-0.000977;0.024414;1.079102;
179318;-0.001953;0.027344;1.068359;
179533;-0.000977;0.023438;1.057617;
179753;0.000977;0.016602;1.026367;
179969;-0.000977;0.017578;0.998047;
180180;0.002930;0.020508;0.996094;
180389;-0.001953;0.015625;0.987305;
180609;-0.006836;0.019531;0.972656;
180839;-0.002930;0.015625;0.980469;
181059;-0.003906;0.013672;0.988281;
181279;-0.001953;0.015625;1.001953;
181493;0.000977;0.012695;1.010742;
181713;-0.002930;0.021484;1.026367;
181933;-0.001953;0.022461;1.030273;
182163;-0.005859;0.021484;1.039062;
182383;-0.000977;0.023438;1.039062;
182599;0.000000;0.019531;1.032227;
182833;-0.000977;0.024414;1.034180;
183053;-0.002930;0.026367;1.022461;
183269;-0.005859;0.022461;1.000977;
183503;-0.004883;0.020508;0.985352;
183723;-0.003906;0.015625;0.967773;
183939;-0.002930;0.020508;0.962891;
184159;-0.003906;0.020508;0.968750;
184369;-0.007812;0.021484;0.968750;
184590;-0.008789;0.020508;0.973633;
184799;-0.008789;0.021484;0.979492;
185009;-0.006836;0.018555;1.000000;
185218;0.000000;0.021484;0.999023;
185443;-0.001953;0.021484;1.008789;
185663;-0.002930;0.022461;1.019531;
185880;-0.005859;0.021484;1.014648;
186089;-0.003906;0.019531;1.009766;
186310;-0.002930;0.019531;1.011719;
186533;-0.003906;0.013672;1.009766;
186753;-0.000977;0.018555;0.998047;
186973;-0.004883;0.021484;0.995117;
187183;-0.004883;0.022461;0.992188;
187393;-0.007812;0.020508;0.977539;
187609;-0.006836;0.019531;0.983398;
187833;-0.004883;0.024414;0.976562;
188053;-0.002930;0.018555;0.979492;
188269;-0.001953;0.015625;0.976562;
188490;-0.006836;0.021484;0.968750;
188719;-0.006836;0.023438;0.958008;
188949;-0.006836;0.020508;0.960938;
189179;-0.002930;0.021484;0.965820;
189403;-0.009766;0.022461;0.961914;
189623;-0.009766;0.021484;0.958984;
189839;-0.009766;0.020508;0.954102;
190073;-0.007812;0.023438;0.962891;
190293;-0.002930;0.019531;0.968750;
190509;-0.004883;0.024414;0.977539;
190743;-0.008789;0.025391;0.959961;
190963;-0.006836;0.019531;0.963867;
191179;-0.002930;0.019531;0.976562;
191413;-0.003906;0.016602;0.975586;
191623;-0.005859;0.022461;0.983398;
191829;-0.004883;0.015625;0.969727;
192043;-0.009766;0.017578;0.966797;
192263;-0.004883;0.021484;0.975586;
192479;-0.004883;0.025391;0.988281;
192689;-0.003906;0.030273;1.009766;
192909;-0.005859;0.027344;1.001953;
193129;-0.007812;0.023438;0.988281;
193349;-0.008789;0.028320;1.003906;
193569;-0.006836;0.022461;0.992188;
193802;-0.004883;0.024414;1.016602;
194023;-0.004883;0.023438;1.040039;
194239;-0.005859;0.025391;1.083008;
194463;-0.002930;0.018555;1.128906;
194683;0.004883;0.019531;1.187500;
194899;0.008789;0.020508;1.235352;
195113;0.009766;0.016602;1.291016;
195333;0.010742;0.015625;1.314453;
195549;0.010742;0.019531;1.333984;
195783;0.009766;0.015625;1.336914;
195993;0.011719;0.019531;1.327148;
196203;0.013672;0.020508;1.324219;
196423;0.008789;0.025391;1.310547;
196643;0.008789;0.026367;1.302734;
196863;0.003906;0.025391;1.261719;
197078;0.002930;0.021484;1.230469;
197299;0.006836;0.020508;1.198242;
197529;0.002930;0.021484;1.155273;
197759;-0.000977;0.020508;1.120117;
197989;-0.000977;0.016602;1.093750;
198219;0.001953;0.015625;1.077148;
198453;0.000977;0.015625;1.074219;
198673;-0.003906;0.020508;1.077148;
198879;-0.003906;0.020508;1.068359;
199093;-0.002930;0.022461;1.071289;
199313;-0.008789;0.021484;1.052734;
199529;-0.001953;0.022461;1.061523;
199753;-0.002930;0.021484;1.047852;
199973;-0.005859;0.022461;1.053711;
200189;-0.009766;0.020508;1.035156;
200403;-0.008789;0.020508;1.030273;
200613;-0.005859;0.018555;1.026367;
200823;-0.003906;0.013672;1.022461;
201039;-0.002930;0.019531;1.026367;
201259;-0.002930;0.024414;1.028320;
201480;-0.005859;0.022461;1.009766;
201709;-0.007812;0.021484;0.987305;
201919;-0.005859;0.020508;0.958984;
202139;-0.007812;0.020508;0.919922;
202349;-0.008789;0.019531;0.888672;
202573;-0.009766;0.024414;0.879883;
202793;-0.014648;0.023438;0.869141;
203013;-0.013672;0.024414;0.880859;
203233;-0.008789;0.016602;0.907227;
203443;-0.007812;0.023438;0.920898;
203659;-0.010742;0.023438;0.946289;
203883;-0.009766;0.022461;0.957031;
204103;-0.010742;0.022461;0.978516;
204323;-0.007812;0.023438;0.982422;
204544;-0.006836;0.017578;0.992188;
204763;-0.004883;0.019531;0.988281;
204973;-0.006836;0.020508;0.993164;
205189;-0.008789;0.020508;0.983398;
205409;-0.009766;0.021484;0.968750;
205639;-0.006836;0.017578;0.971680;
205849;-0.008789;0.022461;0.967773;
206079;-0.009766;0.023438;0.976562;
206313;-0.008789;0.026367;0.969727;
206523;-0.007812;0.028320;0.968750;
206743;-0.005859;0.026367;0.982422;
206963;-0.005859;0.022461;0.974609;
207183;-0.005859;0.023438;0.988281;
207403;-0.011719;0.022461;0.967773;
207623;-0.008789;0.019531;0.974609;
207843;-0.008789;0.024414;0.985352;
208063;-0.007812;0.016602;1.002930;
208273;-0.002930;0.013672;1.055664;
208483;0.001953;0.007812;1.096680;
208703;0.000977;0.013672;1.137695;
208913;0.000000;0.013672;1.173828;
209133;0.006836;0.014648;1.201172;
209343;0.004883;0.021484;1.212891;
209549;0.003906;0.019531;1.225586;
209769;0.006836;0.026367;1.232422;
209989;0.004883;0.024414;1.212891;
210219;0.002930;0.022461;1.187500;
210443;0.000000;0.019531;1.180664;
210663;0.003906;0.022461;1.171875;
210883;0.004883;0.021484;1.164062;
211093;0.001953;0.017578;1.158203;
211299;0.000000;0.013672;1.157227;
211513;0.000000;0.019531;1.157227;
211733;0.001953;0.012695;1.145508;
211949;0.003906;0.020508;1.145508;
212173;0.000977;0.021484;1.154297;
212383;0.000977;0.020508;1.143555;
212599;0.000977;0.019531;1.122070;
212823;-0.003906;0.020508;1.080078;
213043;-0.002930;0.018555;1.034180;
213263;-0.002930;0.015625;0.985352;
213480;-0.003906;0.020508;0.955078;
213710;-0.007812;0.020508;0.914062;
213930;-0.012695;0.017578;0.880859;
214149;-0.012695;0.018555;0.866211;
214373;-0.008789;0.022461;0.870117;
214583;-0.006836;0.020508;0.886719;
214803;-0.008789;0.020508;0.916016;
215013;-0.009766;0.020508;0.926758;
215223;-0.010742;0.022461;0.951172;
215443;-0.009766;0.017578;0.970703;
215663;-0.006836;0.024414;1.016602;
215883;0.000000;0.019531;1.046875;
216093;0.000977;0.018555;1.086914;
216313;-0.001953;0.017578;1.110352;
216533;-0.002930;0.019531;1.121094;
216753;-0.001953;0.015625;1.105469;
216973;-0.000977;0.018555;1.100586;
217179;0.001953;0.018555;1.099609;
217399;-0.000977;0.016602;1.064453;
217611;-0.002930;0.023438;1.048828;
217829;-0.007812;0.020508;1.012695;
218053;-0.005859;0.022461;1.000977;
218274;-0.005859;0.020508;0.987305;
218493;-0.004883;0.015625;0.986328;
218713;-0.008789;0.015625;0.974609;
218933;-0.007812;0.020508;0.951172;
219143;-0.008789;0.015625;0.956055;
219363;-0.004883;0.016602;0.970703;
219583;-0.005859;0.021484;0.974609;
219803;-0.006836;0.016602;0.976562;
220023;-0.008789;0.026367;0.984375;
220243;-0.008789;0.020508;0.976562;
220463;-0.006836;0.027344;1.000000;
220683;-0.002930;0.023438;1.011719;
220893;-0.002930;0.020508;1.044922;
221110;-0.003906;0.023438;1.034180;
221319;-0.004883;0.024414;1.055664;
221539;-0.002930;0.018555;1.066406;
221749;0.000000;0.015625;1.078125;
221969;-0.002930;0.017578;1.082031;
222179;-0.001953;0.013672;1.091797;
222393;0.000000;0.018555;1.103516;
222613;-0.002930;0.021484;1.094727;
222833;-0.003906;0.020508;1.083984;
223053;-0.001953;0.017578;1.081055;
223263;0.002930;0.020508;1.089844;
223483;-0.000977;0.020508;1.084961;
223703;-0.002930;0.019531;1.086914;
223923;-0.003906;0.023438;1.086914;
224143;-0.001953;0.016602;1.083008;
224363;-0.000977;0.014648;1.088867;
224573;-0.000977;0.016602;1.105469;
224783;0.000000;0.023438;1.129883;
224993;-0.000977;0.018555;1.153320;
225199;-0.003906;0.021484;1.150391;
225409;0.000977;0.028320;1.167969;
225619;0.000977;0.019531;1.160156;
225839;0.002930;0.017578;1.165039;
226063;0.004883;0.016602;1.172852;
226283;-0.001953;0.009766;1.132812;
226493;0.000000;0.011719;1.122070;
226713;-0.005859;0.020508;1.093750;
226923;0.000000;0.013672;1.070312;
227143;0.000977;0.018555;1.058594;
227363;-0.002930;0.025391;1.055664;
227573;-0.002930;0.024414;1.055664;
227793;-0.002930;0.022461;1.039062;
228013;-0.002930;0.019531;1.035156;
228234;-0.001953;0.025391;1.039062;
228443;-0.001953;0.016602;1.029297;
228653;-0.001953;0.018555;1.029297;
228863;-0.005859;0.018555;1.016602;
229069;-0.006836;0.018555;0.998047;
229279;-0.007812;0.020508;0.988281;
229489;-0.006836;0.017578;0.975586;
229699;-0.006836;0.017578;0.961914;
229919;-0.005859;0.019531;0.953125;
230143;-0.006836;0.019531;0.940430;
230363;-0.009766;0.023438;0.930664;
230583;-0.009766;0.024414;0.907227;
230803;-0.010742;0.019531;0.900391;
231013;-0.007812;0.021484;0.913086;
231223;-0.003906;0.016602;0.923828;
231443;0.000000;0.019531;0.920898;
231663;-0.003906;0.022461;0.915039;
231883;-0.001953;0.017578;0.907227;
232103;0.000977;0.017578;0.919922;
232313;0.006836;0.013672;0.926758;
232533;0.011719;0.014648;0.934570;
232743;0.013672;0.015625;0.959961;
232953;0.020508;0.021484;0.995117;
233169;0.023438;0.020508;0.987305;
233389;0.031250;0.018555;1.022461;
233610;0.041016;0.022461;1.064453;
233839;0.043945;0.018555;1.067383;
234073;0.046875;0.022461;1.080078;
234283;0.051758;0.017578;1.065430;
234503;0.054688;0.017578;1.041992;
234723;0.055664;0.020508;1.031250;
234933;0.059570;0.021484;1.018555;
235143;0.060547;0.026367;0.989258;
235363;0.063477;0.026367;0.970703;
235583;0.077148;0.020508;0.951172;
235813;0.086914;0.022461;0.963867;
236023;0.096680;0.024414;0.979492;
236243;0.095703;0.019531;0.976562;
236453;0.100586;0.016602;1.007812;
236673;0.105469;0.016602;1.025391;
236884;0.109375;0.020508;1.060547;
237099;0.106445;0.013672;1.017578;
237319;0.106445;0.020508;1.033203;
237540;0.103516;0.019531;0.939453;
237760;0.096680;0.020508;0.916992;
237973;0.093750;0.017578;0.854492;
238193;0.095703;0.023438;0.915039;
238413;0.098633;0.019531;0.951172;
238623;0.096680;0.020508;1.020508;
238843;0.098633;0.020508;1.050781;
239053;0.102539;0.019531;1.116211;
239273;0.107422;0.012695;1.164062;
239493;0.105469;0.022461;1.169922;
239713;0.105469;0.016602;1.167969;
239933;0.105469;0.019531;1.168945;
240154;0.102539;0.014648;1.134766;
240363;0.104492;0.021484;1.155273;
240583;0.102539;0.013672;1.149414;
240799;0.105469;0.017578;1.116211;
241019;0.101562;0.017578;1.125000;
241240;0.100586;0.019531;1.078125;
241469;0.097656;0.016602;1.102539;
241703;0.095703;0.029297;1.072266;
241923;0.097656;0.029297;1.103516;
242143;0.095703;0.026367;1.069336;
242353;0.095703;0.035156;1.080078;
242563;0.092773;0.024414;1.043945;
242783;0.098633;0.020508;1.006836;
243003;0.089844;0.022461;1.004883;
243223;0.091797;0.013672;0.961914;
243433;0.095703;0.025391;0.978516;
243653;0.088867;0.018555;0.990234;
243873;0.094727;0.017578;0.987305;
244083;0.092773;0.021484;1.004883;
244293;0.088867;0.018555;0.982422;
244503;0.092773;0.022461;0.993164;
244719;0.089844;0.019531;1.011719;
244939;0.087891;0.029297;0.995117;
245160;0.089844;0.026367;1.006836;
245369;0.089844;0.017578;1.006836;
245583;0.089844;0.022461;1.002930;
245793;0.091797;0.014648;0.994141;
246003;0.090820;0.006836;0.998047;
246223;0.088867;0.010742;0.977539;
246443;0.090820;0.005859;0.993164;
246663;0.085938;0.014648;0.975586;
246883;0.086914;0.019531;0.954102;
247093;0.084961;0.013672;0.990234;
247313;0.084961;0.026367;0.968750;
247533;0.084961;0.025391;0.999023;
247753;0.086914;0.021484;1.036133;
247973;0.086914;0.017578;1.049805;
248193;0.090820;0.021484;1.082031;
248403;0.086914;0.015625;1.098633;
248621;0.086914;0.025391;1.087891;
248839;0.089844;0.022461;1.099609;
249059;0.088867;0.017578;1.116211;
249279;0.083984;0.010742;1.095703;
249503;0.085938;0.019531;1.113281;
249723;0.085938;0.005859;1.094727;
249933;0.084961;0.020508;1.072266;
250143;0.084961;0.024414;1.055664;
250353;0.088867;0.011719;1.065430;
250573;0.087891;0.013672;1.067383;
250783;0.082031;0.022461;1.053711;
250993;0.083984;0.026367;1.071289;
251203;0.086914;0.017578;1.092773;
251413;0.077148;0.022461;1.067383;
251623;0.081055;0.022461;1.093750;
251843;0.085938;0.009766;1.202148;
252063;0.087891;0.018555;1.290039;
252283;0.091797;0.018555;1.401367;
252499;0.100586;0.007812;1.500000;
252719;0.106445;0.013672;1.608398;
252939;0.111328;0.011719;1.668945;
253159;0.119141;0.009766;1.719727;
253369;0.119141;0.008789;1.750977;
253583;0.116211;0.010742;1.775391;
253803;0.120117;0.011719;1.799805;
254023;0.124023;0.005859;1.833008;
254243;0.123047;0.007812;1.859375;
254463;0.125000;0.014648;1.890625;
254683;0.131836;0.002930;1.931641;
254893;0.130859;0.012695;1.948242;
255113;0.127930;0.015625;1.975586;
255323;0.136719;0.016602;1.978516;
255533;0.132812;0.011719;1.960938;
255753;0.127930;0.007812;1.928711;
255973;0.127930;0.019531;1.916016;
256193;0.129883;0.011719;1.907227;
256413;0.129883;0.017578;1.914062;
256629;0.127930;0.011719;1.906250;
256849;0.133789;0.000977;1.910156;
257059;0.129883;0.007812;1.893555;
257269;0.130859;0.004883;1.884766;
257483;0.131836;0.007812;1.881836;
257703;0.130859;0.006836;1.884766;
257923;0.130859;0.015625;1.872070;
258143;0.130859;0.005859;1.861328;
258353;0.128906;0.000000;1.827148;
258573;0.131836;0.007812;1.839844;
258793;0.131836;0.006836;1.841797;
259013;0.130859;0.008789;1.817383;
259233;0.131836;0.008789;1.840820;
259443;0.135742;0.004883;1.847656;
259654;0.132812;0.006836;1.846680;
259863;0.133789;0.016602;1.854492;
260083;0.138672;0.010742;1.871094;
260303;0.134766;0.006836;1.875000;
260519;0.140625;0.001953;1.893555;
260749;0.141602;0.010742;1.891602;
260969;0.147461;0.016602;1.929688;
261203;0.147461;0.009766;1.905273;
261413;0.143555;-0.004883;1.852539;
261633;0.148438;0.018555;1.856445;
261843;0.145508;0.015625;1.838867;
262053;0.145508;0.018555;1.847656;
262263;0.148438;0.016602;1.849609;
262483;0.149414;0.018555;1.834961;
262703;0.155273;0.021484;1.893555;
262923;0.153320;0.018555;1.904297;
263133;0.155273;0.011719;1.903320;
263353;0.159180;0.012695;1.929688;
263563;0.162109;0.022461;1.946289;
263783;0.161133;0.018555;1.940430;
264003;0.162109;0.013672;1.909180;
264208;0.160156;0.011719;1.899414;
264429;0.162109;0.009766;1.885742;
264649;0.160156;0.000000;1.834961;
264883;0.162109;0.003906;1.797852;
265103;0.159180;0.006836;1.781250;
265323;0.164062;0.012695;1.759766;
265543;0.163086;0.009766;1.748047;
265763;0.166992;0.010742;1.735352;
265973;0.166016;0.014648;1.757812;
266193;0.166992;0.014648;1.763672;
266413;0.171875;0.013672;1.835938;
266633;0.184570;0.018555;1.876953;
266853;0.184570;0.011719;1.904297;
267063;0.190430;0.012695;1.917969;
267283;0.194336;0.011719;1.923828;
267493;0.195312;0.012695;1.946289;
267713;0.198242;0.027344;1.959961;
267933;0.194336;0.020508;1.938477;
268149;0.198242;0.018555;1.915039;
268369;0.196289;0.011719;1.886719;
268579;0.196289;0.010742;1.846680;
268799;0.196289;0.011719;1.843750;
269023;0.196289;0.009766;1.812500;
269243;0.197266;0.007812;1.801758;
269463;0.198242;0.012695;1.791992;
269674;0.196289;0.010742;1.761719;
269893;0.196289;0.003906;1.720703;
270113;0.200195;0.016602;1.725586;
270323;0.203125;-0.000977;1.735352;
270543;0.205078;0.009766;1.746094;
270763;0.208984;0.010742;1.725586;
270973;0.194336;0.014648;1.710938;
271183;0.193359;0.008789;1.703125;
271393;0.185547;0.021484;1.717773;
271613;0.174805;0.010742;1.705078;
271833;0.166016;0.029297;1.726562;
272049;0.152344;0.013672;1.650391;
272279;0.134766;0.022461;1.554688;
272509;0.110352;0.017578;1.432617;
272733;0.086914;0.024414;1.238281;
272953;0.059570;0.023438;1.031250;
273173;0.041992;0.024414;0.845703;
273383;0.024414;0.025391;0.679688;
273593;0.005859;0.025391;0.476562;
273813;0.009766;0.023438;0.388672;
274023;0.002930;0.025391;0.265625;
274243;0.003906;0.025391;0.170898;
274463;0.000977;0.028320;0.098633;
274684;0.001953;0.021484;0.068359;
274893;0.002930;0.022461;0.028320;
275113;0.000977;0.020508;0.024414;
275323;-0.001953;0.024414;0.025391;
275543;-0.003906;0.028320;0.041016;
275749;-0.007812;0.035156;0.042969;
275969;-0.007812;0.036133;0.048828;
276189;-0.007812;0.034180;0.047852;
276410;-0.005859;0.033203;0.054688;
276629;-0.010742;0.036133;0.052734;
276843;-0.007812;0.037109;0.051758;
277059;-0.008789;0.036133;0.055664;
277293;-0.008789;0.036133;0.045898;
277513;-0.010742;0.036133;0.042969;
277723;-0.006836;0.034180;0.023438;
277943;-0.011719;0.034180;0.017578;
278153;-0.011719;0.029297;0.015625;
278363;-0.007812;0.036133;0.011719;
278573;-0.009766;0.030273;0.005859;
278779;-0.008789;0.026367;-0.000977;
279003;-0.010742;0.026367;-0.005859;
279223;-0.014648;0.029297;0.002930;
279433;-0.009766;0.030273;0.002930;
279643;-0.012695;0.025391;0.000977;
279860;-0.010742;0.027344;-0.000977;
280079;-0.009766;0.026367;0.003906;
280303;-0.012695;0.028320;0.008789;
280509;-0.015625;0.031250;0.011719;
280728;-0.010742;0.030273;0.020508;
280953;-0.011719;0.027344;0.018555;
281173;-0.016602;0.030273;0.025391;
281393;-0.014648;0.023438;0.025391;
281613;-0.018555;0.031250;0.037109;
281833;-0.011719;0.022461;0.034180;
282053;-0.015625;0.026367;0.038086;
282273;-0.013672;0.028320;0.040039;
282483;-0.014648;0.025391;0.034180;
282693;-0.018555;0.033203;0.038086;
282913;-0.018555;0.035156;0.036133;
283133;-0.014648;0.024414;0.040039;
283355;-0.010742;0.022461;0.065430;
283583;-0.016602;0.031250;0.043945;
283803;-0.016602;0.032227;0.040039;
284019;-0.017578;0.034180;0.036133;
284232;-0.018555;0.031250;0.024414;
284449;-0.017578;0.032227;0.032227;
284669;-0.015625;0.033203;0.027344;
284879;-0.016602;0.029297;0.012695;
285103;-0.014648;0.030273;0.024414;
285324;-0.017578;0.026367;0.007812;
285543;-0.017578;0.029297;0.019531;
285763;-0.018555;0.028320;0.012695;
285983;-0.017578;0.028320;0.013672;
286193;-0.017578;0.029297;0.013672;
286409;-0.018555;0.029297;0.009766;
286633;-0.018555;0.028320;0.016602;
286853;-0.017578;0.027344;0.007812;
287069;-0.018555;0.026367;0.011719;
287303;-0.018555;0.027344;0.012695;
287513;-0.019531;0.023438;0.021484;
287733;-0.018555;0.025391;0.022461;
287953;-0.019531;0.024414;0.015625;
288169;-0.020508;0.026367;0.023438;
288380;-0.020508;0.028320;0.018555;
288609;-0.022461;0.029297;0.017578;
288819;-0.019531;0.024414;0.017578;
289039;-0.022461;0.024414;0.017578;
289253;-0.023438;0.019531;0.011719;
289463;-0.021484;0.021484;0.017578;
289683;-0.023438;0.022461;0.010742;
289893;-0.022461;0.025391;0.020508;
290113;-0.023438;0.023438;0.007812;
290333;-0.021484;0.023438;0.019531;
290553;-0.021484;0.021484;0.019531;
290774;-0.022461;0.020508;0.011719;
290993;-0.022461;0.017578;0.010742;
291213;-0.024414;0.021484;0.007812;
291423;-0.026367;0.022461;0.000000;
291643;-0.025391;0.016602;0.011719;
291863;-0.025391;0.022461;0.007812;
292079;-0.028320;0.024414;0.009766;
292309;-0.027344;0.022461;0.006836;
292529;-0.025391;0.028320;0.003906;
292749;-0.026367;0.031250;0.001953;
292983;-0.027344;0.030273;-0.002930;
293203;-0.027344;0.023438;-0.007812;
293423;-0.027344;0.025391;-0.001953;
293643;-0.028320;0.029297;0.000000;
293853;-0.029297;0.029297;0.000977;
294073;-0.031250;0.029297;0.012695;
294293;-0.033203;0.025391;0.011719;
294515;-0.031250;0.031250;0.028320;
294743;-0.033203;0.028320;0.033203;
294963;-0.032227;0.028320;0.033203;
295179;-0.031250;0.031250;0.036133;
295403;-0.032227;0.029297;0.027344;
295623;-0.033203;0.024414;0.041016;
295833;-0.035156;0.020508;0.027344;
296049;-0.036133;0.024414;0.023438;
296269;-0.036133;0.024414;0.020508;
296499;-0.038086;0.021484;0.002930;
296719;-0.036133;0.018555;-0.000977;
296933;-0.037109;0.017578;0.011719;
297139;-0.038086;0.022461;0.004883;
297349;-0.041992;0.023438;-0.004883;
297575;-0.044922;0.025391;0.022461;
297793;-0.043945;0.023438;0.089844;
298013;-0.051758;0.031250;0.110352;
298223;-0.032227;0.019531;0.274414;
298443;-0.038086;0.028320;0.421875;
298653;-0.034180;0.026367;0.515625;
298873;-0.027344;0.031250;0.685547;
299093;-0.020508;0.033203;0.807617;
299303;-0.016602;0.031250;0.927734;
299523;-0.006836;0.024414;1.059570;
299743;0.002930;0.026367;1.166992;
299953;0.017578;0.025391;1.300781;
300173;0.030273;0.023438;1.394531;
300389;0.046875;0.018555;1.486328;
300609;0.054688;0.019531;1.553711;
300823;0.057617;0.016602;1.604492;
301053;0.058594;0.017578;1.650391;
301260;0.054688;0.023438;1.681641;
301489;0.052734;0.025391;1.690430;
301713;0.045898;0.025391;1.711914;
301923;0.046875;0.012695;1.741211;
302143;0.047852;0.011719;1.778320;
302363;0.063477;0.020508;1.854492;
302583;0.054688;0.010742;1.866211;
302803;0.058594;0.015625;1.918945;
303013;0.048828;0.026367;1.923828;
303223;0.042969;0.010742;1.916992;
303443;0.057617;0.025391;1.906250;
303653;0.049805;0.024414;1.855469;
303873;0.049805;0.032227;1.855469;
304093;0.039062;0.040039;1.814453;
304303;0.031250;0.028320;1.763672;
304513;0.022461;0.024414;1.703125;
304729;0.009766;0.025391;1.651367;
304959;0.004883;0.020508;1.610352;
305189;0.004883;0.014648;1.601562;
305409;0.001953;0.023438;1.603516;
305633;0.000977;0.019531;1.637695;
305853;0.001953;0.018555;1.657227;
306073;0.001953;0.018555;1.682617;
306283;0.002930;0.013672;1.706055;
306493;0.004883;0.015625;1.725586;
306713;0.003906;0.012695;1.744141;
306923;0.001953;0.016602;1.749023;
307143;0.000977;0.024414;1.756836;
307363;-0.000977;0.019531;1.754883;
307573;-0.000977;0.017578;1.757812;
307793;-0.000977;0.016602;1.758789;
308013;-0.002930;0.016602;1.767578;
308233;-0.000977;0.014648;1.779297;
308453;-0.005859;0.016602;1.785156;
308669;-0.004883;0.014648;1.785156;
308879;-0.004883;0.014648;1.794922;
309089;-0.007812;0.015625;1.793945;
309303;-0.009766;0.015625;1.783203;
309509;-0.010742;0.012695;1.772461;
309743;-0.016602;0.017578;1.756836;
309963;-0.019531;0.016602;1.750000;
310173;-0.023438;0.015625;1.728516;
310383;-0.024414;0.020508;1.738281;
310603;-0.025391;0.021484;1.728516;
310823;-0.027344;0.018555;1.742188;
311043;-0.029297;0.010742;1.737305;
311263;-0.025391;0.005859;1.752930;
311473;-0.022461;-0.001953;1.785156;
311693;-0.022461;0.000977;1.807617;
311913;-0.020508;0.007812;1.845703;
312133;-0.015625;0.008789;1.883789;
312343;-0.012695;0.011719;1.908203;
312553;-0.016602;0.013672;1.928711;
312779;-0.013672;0.018555;1.942383;
313000;-0.016602;0.013672;1.953125;
313223;-0.014648;0.009766;1.938477;
313433;-0.016602;0.017578;1.936523;
313649;-0.018555;0.015625;1.922852;
313883;-0.020508;0.019531;1.899414;
314093;-0.025391;0.025391;1.855469;
314303;-0.033203;0.022461;1.791016;
314523;-0.039062;0.021484;1.751953;
314743;-0.043945;0.018555;1.690430;
314964;-0.047852;0.018555;1.645508;
315183;-0.053711;0.010742;1.565430;
315403;-0.062500;0.017578;1.519531;
315613;-0.060547;0.015625;1.461914;
315823;-0.067383;0.025391;1.424805;
316043;-0.070312;0.019531;1.371094;
316263;-0.073242;0.017578;1.336914;
316473;-0.073242;0.019531;1.321289;
316693;-0.076172;0.020508;1.333984;
316909;-0.073242;0.018555;1.347656;
317130;-0.070312;0.019531;1.367188;
317349;-0.069336;0.014648;1.395508;
317549;-0.072266;0.019531;1.395508;
317763;-0.073242;0.019531;1.375977;
317973;-0.073242;0.016602;1.346680;
318193;-0.076172;0.022461;1.291016;
318413;-0.083008;0.017578;1.241211;
318633;-0.083984;0.019531;1.184570;
318853;-0.086914;0.013672;1.135742;
319063;-0.089844;0.015625;1.105469;
319273;-0.091797;0.020508;1.059570;
319493;-0.092773;0.021484;1.045898;
319705;-0.092773;0.020508;1.034180;
319933;-0.094727;0.026367;1.015625;
320153;-0.094727;0.022461;1.037109;
320359;-0.093750;0.021484;1.046875;
320583;-0.093750;0.025391;1.067383;
320789;-0.091797;0.022461;1.092773;
321009;-0.088867;0.025391;1.139648;
321229;-0.087891;0.021484;1.179688;
321449;-0.083008;0.021484;1.209961;
321669;-0.083008;0.017578;1.257812;
321899;-0.080078;0.021484;1.287109;
322110;-0.078125;0.022461;1.302734;
322329;-0.079102;0.017578;1.315430;
322553;-0.079102;0.024414;1.324219;
322763;-0.078125;0.022461;1.333984;
322969;-0.081055;0.019531;1.324219;
323183;-0.082031;0.015625;1.277344;
323403;-0.083984;0.021484;1.252930;
323619;-0.085938;0.019531;1.234375;
323843;-0.085938;0.018555;1.205078;
324063;-0.085938;0.015625;1.199219;
324279;-0.084961;0.018555;1.190430;
324513;-0.083984;0.024414;1.188477;
324733;-0.088867;0.019531;1.170898;
324943;-0.090820;0.014648;1.155273;
325159;-0.089844;0.020508;1.149414;
325379;-0.090820;0.020508;1.139648;
325589;-0.090820;0.020508;1.136719;
325828;-0.092773;0.021484;1.134766;
326041;-0.091797;0.021484;1.121094;
326248;-0.090820;0.017578;1.121094;
326479;-0.090820;0.018555;1.150391;
326699;-0.086914;0.017578;1.180664;
326913;-0.086914;0.021484;1.220703;
327123;-0.086914;0.020508;1.234375;
327339;-0.083984;0.020508;1.250000;
327563;-0.083984;0.018555;1.255859;
327773;-0.083008;0.017578;1.241211;
327979;-0.083984;0.022461;1.230469;
328213;-0.085938;0.016602;1.243164;
328433;-0.082031;0.023438;1.265625;
328653;-0.080078;0.022461;1.303711;
328863;-0.075195;0.013672;1.341797;
329083;-0.073242;0.009766;1.375977;
329295;-0.067383;0.020508;1.421875;
329519;-0.066406;0.013672;1.447266;
329729;-0.066406;0.022461;1.462891;
329959;-0.064453;0.017578;1.485352;
330189;-0.063477;0.014648;1.495117;
330419;-0.065430;0.015625;1.481445;
330649;-0.066406;0.020508;1.464844;
330869;-0.070312;0.016602;1.437500;
331079;-0.069336;0.021484;1.433594;
331303;-0.066406;0.016602;1.404297;
331513;-0.068359;0.015625;1.366211;
331729;-0.075195;0.017578;1.316406;
331963;-0.077148;0.019531;1.236328;
332183;-0.082031;0.019531;1.175781;
332403;-0.085938;0.023438;1.111328;
332623;-0.089844;0.021484;1.042969;
332843;-0.093750;0.022461;0.990234;
333063;-0.092773;0.023438;0.950195;
333283;-0.094727;0.022461;0.913086;
333503;-0.093750;0.020508;0.891602;
333723;-0.096680;0.019531;0.899414;
333939;-0.093750;0.021484;0.896484;
334159;-0.094727;0.026367;0.903320;
334369;-0.092773;0.025391;0.913086;
334569;-0.090820;0.020508;0.920898;
334789;-0.090820;0.019531;0.945312;
335020;-0.091797;0.019531;0.956055;
335250;-0.090820;0.023438;0.978516;
335483;-0.091797;0.021484;1.004883;
335689;-0.083984;0.020508;1.053711;
335914;-0.082031;0.022461;1.101562;
336123;-0.079102;0.018555;1.143555;
336343;-0.078125;0.018555;1.165039;
336559;-0.072266;0.021484;1.187500;
336793;-0.071289;0.020508;1.190430;
337013;-0.070312;0.017578;1.183594;
337220;-0.068359;0.020508;1.163086;
337443;-0.069336;0.017578;1.143555;
337663;-0.065430;0.019531;1.122070;
337869;-0.064453;0.018555;1.107422;
338093;-0.059570;0.020508;1.093750;
338315;-0.054688;0.021484;1.106445;
338539;-0.051758;0.025391;1.111328;
338750;-0.041016;0.020508;1.123047;
338979;-0.032227;0.023438;1.142578;
339189;-0.022461;0.023438;1.155273;
339409;-0.010742;0.019531;1.172852;
339643;0.000000;0.020508;1.191406;
339863;0.012695;0.023438;1.208008;
340075;0.018555;0.025391;1.209961;
340300;0.022461;0.022461;1.197266;
340513;0.026367;0.024414;1.195312;
340733;0.019531;0.022461;1.123047;
340953;0.014648;0.024414;1.059570;
341172;0.012695;0.023438;0.981445;
341393;0.008789;0.020508;0.935547;
341613;0.007812;0.023438;0.881836;
341829;0.003906;0.013672;0.863281;
342053;0.006836;0.022461;0.887695;
342263;0.005859;0.020508;0.916992;
342478;0.009766;0.023438;0.928711;
342699;0.008789;0.018555;0.957031;
342933;0.011719;0.021484;0.991211;
343149;0.010742;0.018555;1.012695;
343369;0.010742;0.020508;1.024414;
343599;0.010742;0.015625;1.032227;
343819;0.010742;0.020508;1.008789;
344033;0.009766;0.020508;0.999023;
344253;0.010742;0.018555;0.973633;
344459;0.008789;0.019531;0.954102;
344683;-0.000977;0.019531;0.926758;
344893;-0.002930;0.017578;0.915039;
345110;-0.004883;0.021484;0.891602;
345343;-0.006836;0.025391;0.891602;
345563;-0.008789;0.030273;0.872070;
345769;-0.011719;0.026367;0.874023;
345983;-0.010742;0.026367;0.858398;
346203;-0.009766;0.027344;0.876953;
346409;-0.006836;0.030273;0.891602;
346619;-0.002930;0.032227;0.924805;
346840;-0.000977;0.024414;0.948242;
347059;-0.002930;0.030273;0.986328;
347289;-0.001953;0.020508;0.998047;
347509;-0.001953;0.021484;1.027344;
347739;0.000000;0.023438;1.041016;
347960;0.002930;0.024414;1.044922;
348169;0.002930;0.022461;1.037109;
348399;0.002930;0.024414;1.040039;
348623;-0.001953;0.021484;1.022461;
348833;-0.004883;0.028320;1.009766;
349050;-0.005859;0.015625;1.007812;
349273;-0.009766;0.017578;0.994141;
349493;-0.001953;0.026367;1.034180;
349709;0.000000;0.023438;1.060547;
349933;0.001953;0.022461;1.110352;
350143;0.005859;0.016602;1.143555;
350355;0.010742;0.019531;1.186523;
350590;0.009766;0.018555;1.204102;
350813;0.010742;0.023438;1.227539;
351033;0.006836;0.022461;1.222656;
351239;0.006836;0.025391;1.204102;
351471;0.002930;0.018555;1.166016;
351689;0.004883;0.019531;1.124023;
351910;-0.001953;0.024414;1.083984;
352129;0.001953;0.023438;1.060547;
352343;-0.001953;0.017578;1.048828;
352563;-0.002930;0.027344;1.040039;
352769;-0.002930;0.026367;1.029297;
352983;0.000000;0.021484;1.040039;
353193;-0.002930;0.020508;1.032227;
353409;-0.002930;0.021484;1.041016;
353623;0.000977;0.024414;1.044922;
353843;0.000000;0.027344;1.042969;
354059;-0.004883;0.019531;1.050781;
354283;-0.000977;0.023438;1.052734;
354493;-0.001953;0.027344;1.061523;
354709;-0.003906;0.023438;1.054688;
354943;-0.004883;0.030273;1.050781;
355149;-0.005859;0.024414;1.046875;
355359;-0.005859;0.025391;1.054688;
355570;0.000000;0.018555;1.049805;
355800;0.000000;0.018555;1.047852;
356009;0.000000;0.019531;1.044922;
356240;-0.005859;0.024414;1.040039;
356453;-0.004883;0.021484;1.040039;
356669;-0.005859;0.023438;1.043945;
356893;-0.003906;0.014648;1.045898;
357103;-0.000977;0.027344;1.054688;
357313;0.000977;0.014648;1.044922;
357539;0.002930;0.019531;1.044922;
357753;-0.000977;0.017578;1.054688;
357963;0.000977;0.017578;1.039062;
358179;-0.001953;0.020508;1.048828;
358403;-0.006836;0.017578;1.042969;
358613;-0.005859;0.017578;1.039062;
358830;-0.000977;0.019531;1.055664;
359040;0.000000;0.021484;1.055664;
359253;0.000000;0.020508;1.061523;
359459;0.002930;0.020508;1.060547;
359680;0.000977;0.021484;1.066406;
359909;0.000000;0.032227;1.067383;
360139;-0.005859;0.024414;1.045898;
360360;-0.003906;0.022461;1.063477;
360579;-0.001953;0.022461;1.059570;
360803;0.000977;0.020508;1.058594;
361013;-0.000977;0.019531;1.052734;
361223;0.000000;0.015625;1.035156;
361439;-0.000977;0.018555;1.025391;
361653;-0.005859;0.022461;1.021484;
361873;-0.005859;0.022461;1.019531;
362080;-0.007812;0.021484;1.022461;
362293;-0.005859;0.020508;1.022461;
362503;-0.005859;0.024414;1.023438;
362723;-0.002930;0.018555;1.028320;
362953;-0.000977;0.020508;1.025391;
363173;0.000977;0.017578;1.031250;
363393;-0.000977;0.018555;1.035156;
363619;-0.004883;0.019531;1.041992;
363839;-0.003906;0.023438;1.037109;
364071;-0.000977;0.014648;1.015625;
364299;-0.001953;0.021484;1.020508;
364509;0.000000;0.013672;1.015625;
364730;0.000000;0.017578;1.008789;
364963;-0.004883;0.021484;1.016602;
365183;-0.005859;0.024414;1.004883;
365399;-0.006836;0.022461;1.005859;
365613;-0.003906;0.018555;1.005859;
365833;-0.001953;0.017578;0.998047;
366049;-0.001953;0.019531;0.996094;
366283;-0.000977;0.017578;1.007812;
366503;-0.003906;0.019531;1.007812;
366713;-0.002930;0.022461;0.996094;
366943;-0.004883;0.019531;1.009766;
367163;-0.001953;0.021484;1.016602;
367373;-0.001953;0.022461;1.010742;
367593;-0.000977;0.018555;1.018555;
367809;-0.001953;0.021484;1.031250;
368030;-0.001953;0.022461;1.027344;
368248;-0.002930;0.024414;1.041992;
368480;-0.004883;0.020508;1.038086;
368709;-0.002930;0.018555;1.032227;
368939;-0.002930;0.022461;1.039062;
369153;-0.000977;0.018555;1.031250;
369369;0.000977;0.021484;1.017578;
369593;-0.001953;0.023438;1.007812;
369803;-0.000977;0.023438;0.991211;
370019;-0.005859;0.022461;0.966797;
370233;-0.006836;0.020508;0.964844;
370453;-0.011719;0.024414;0.946289;
370669;-0.005859;0.026367;0.966797;
370893;-0.004883;0.024414;0.965820;
371103;-0.001953;0.016602;0.976562;
371313;-0.004883;0.014648;0.984375;
371529;0.000977;0.012695;1.010742;
371750;-0.006836;0.024414;1.019531;
371959;-0.009766;0.025391;1.031250;
