Time;acc_x;acc_y;acc_z;

1485;0.104492;0.037109;1.013672;
1633;0.106445;0.036133;0.996094;
1773;0.105469;0.033203;0.998047;
1913;0.104492;0.033203;0.996094;
2053;0.103516;0.029297;0.992188;
2193;0.105469;0.030273;1.001953;
2333;0.105469;0.034180;0.993164;
2473;0.104492;0.032227;1.000977;
2613;0.107422;0.031250;0.994141;
2753;0.102539;0.033203;0.988281;
2893;0.106445;0.036133;0.988281;
3033;0.106445;0.035156;0.989258;
3173;0.103516;0.033203;0.990234;
3313;0.102539;0.036133;0.984375;
3453;0.104492;0.029297;0.982422;
3593;0.102539;0.039062;0.982422;
3733;0.105469;0.032227;0.984375;
3869;0.104492;0.030273;0.979492;
4040;0.106445;0.037109;0.992188;
4223;0.104492;0.034180;1.010742;
4373;0.103516;0.035156;1.001953;
4513;0.102539;0.037109;1.004883;
4653;0.104492;0.031250;1.000977;
4793;0.105469;0.034180;1.005859;
4933;0.105469;0.029297;1.006836;
5083;0.103516;0.033203;0.994141;
5223;0.103516;0.033203;1.005859;
5363;0.107422;0.027344;0.992188;
5503;0.104492;0.029297;1.000977;
5643;0.103516;0.031250;0.998047;
5783;0.104492;0.033203;1.012695;
5923;0.106445;0.036133;0.999023;
6063;0.106445;0.034180;1.007812;
6200;0.103516;0.033203;0.998047;
6389;0.101562;0.039062;1.004883;
6574;0.106445;0.039062;1.020508;
6713;0.102539;0.033203;1.014648;
6863;0.103516;0.033203;1.008789;
7003;0.105469;0.034180;1.018555;
7143;0.100586;0.039062;1.005859;
7283;0.103516;0.037109;1.011719;
7423;0.103516;0.033203;1.014648;
7573;0.103516;0.034180;1.015625;
7713;0.103516;0.031250;1.008789;
7853;0.104492;0.034180;1.018555;
7993;0.104492;0.033203;1.018555;
8133;0.105469;0.032227;1.002930;
8283;0.104492;0.032227;1.022461;
8423;0.103516;0.033203;1.004883;
8590;0.103516;0.036133;0.998047;
8759;0.106445;0.035156;1.003906;
8913;0.105469;0.032227;1.017578;
9053;0.102539;0.038086;1.022461;
9203;0.106445;0.037109;1.011719;
9343;0.104492;0.035156;1.021484;
9483;0.103516;0.033203;1.009766;
9623;0.108398;0.035156;1.016602;
9763;0.105469;0.032227;1.030273;
9913;0.103516;0.033203;1.021484;
10053;0.105469;0.032227;1.021484;
10193;0.105469;0.033203;1.029297;
10333;0.103516;0.035156;1.027344;
10473;0.104492;0.032227;1.022461;
10613;0.101562;0.035156;1.016602;
10753;0.104492;0.037109;1.011719;
10903;0.100586;0.034180;1.013672;
11059;0.105469;0.030273;1.013672;
11243;0.101562;0.035156;1.012695;
11393;0.103516;0.031250;1.004883;
11533;0.100586;0.036133;1.006836;
11673;0.101562;0.037109;1.012695;
11813;0.102539;0.030273;1.002930;
11953;0.101562;0.033203;1.012695;
12093;0.102539;0.034180;1.008789;
12233;0.104492;0.037109;1.024414;
12373;0.103516;0.034180;1.008789;
12513;0.101562;0.036133;1.019531;
12653;0.101562;0.029297;1.012695;
12793;0.104492;0.036133;1.017578;
12933;0.106445;0.032227;1.012695;
13073;0.104492;0.032227;1.015625;
13209;0.103516;0.033203;1.017578;
13381;0.102539;0.035156;1.029297;
13563;0.102539;0.030273;1.020508;
13703;0.102539;0.032227;1.024414;
13843;0.104492;0.030273;1.027344;
13983;0.105469;0.032227;1.024414;
14123;0.100586;0.032227;1.027344;
14263;0.104492;0.028320;1.015625;
14403;0.099609;0.033203;1.026367;
14543;0.105469;0.032227;1.017578;
14693;0.101562;0.033203;1.014648;
14833;0.106445;0.037109;1.027344;
14973;0.103516;0.038086;1.027344;
15123;0.106445;0.041992;1.032227;
15263;0.101562;0.039062;1.020508;
15403;0.102539;0.033203;1.025391;
15549;0.100586;0.036133;1.014648;
15700;0.104492;0.030273;1.006836;
15873;0.102539;0.037109;1.020508;
16013;0.105469;0.037109;1.036133;
16153;0.103516;0.040039;1.026367;
16293;0.099609;0.036133;1.033203;
16433;0.102539;0.037109;1.022461;
16573;0.103516;0.037109;1.032227;
16713;0.102539;0.032227;1.020508;
16853;0.107422;0.036133;1.041992;
16993;0.101562;0.033203;1.029297;
17133;0.105469;0.032227;1.031250;
17273;0.105469;0.031250;1.041992;
17413;0.105469;0.033203;1.032227;
17553;0.102539;0.033203;1.033203;
17703;0.103516;0.035156;1.041992;
17843;0.099609;0.032227;1.033203;
18009;0.101562;0.034180;1.026367;
18169;0.101562;0.032227;1.017578;
18343;0.101562;0.033203;1.027344;
18493;0.104492;0.034180;1.020508;
18633;0.104492;0.034180;1.025391;
18783;0.105469;0.039062;1.042969;
18923;0.101562;0.037109;1.029297;
19063;0.103516;0.037109;1.035156;
19203;0.103516;0.034180;1.023438;
19343;0.102539;0.041016;1.040039;
19493;0.104492;0.028320;1.021484;
19633;0.102539;0.032227;1.035156;
19773;0.101562;0.036133;1.044922;
19913;0.100586;0.030273;1.026367;
20053;0.104492;0.030273;1.041016;
20193;0.100586;0.032227;1.022461;
20340;0.100586;0.035156;1.036133;
20509;0.103516;0.028320;1.021484;
20683;0.104492;0.031250;1.016602;
20823;0.102539;0.033203;1.017578;
20963;0.101562;0.031250;1.019531;
21103;0.105469;0.031250;1.019531;
21243;0.100586;0.032227;1.012695;
21383;0.101562;0.035156;1.015625;
21523;0.099609;0.036133;1.012695;
21663;0.102539;0.036133;1.017578;
21803;0.099609;0.031250;1.006836;
21953;0.100586;0.038086;1.024414;
22093;0.102539;0.036133;1.020508;
22233;0.101562;0.038086;1.011719;
22373;0.100586;0.038086;1.014648;
22513;0.100586;0.039062;1.018555;
22651;0.099609;0.032227;1.023438;
22809;0.101562;0.035156;1.024414;
22993;0.099609;0.027344;1.032227;
23143;0.098633;0.032227;1.039062;
23283;0.099609;0.032227;1.031250;
23433;0.101562;0.032227;1.022461;
23573;0.100586;0.032227;1.037109;
23713;0.101562;0.029297;1.017578;
23863;0.101562;0.029297;1.022461;
24003;0.101562;0.027344;1.019531;
24143;0.101562;0.032227;1.012695;
24283;0.099609;0.031250;1.019531;
24423;0.100586;0.033203;1.009766;
24563;0.100586;0.035156;1.029297;
24703;0.100586;0.034180;1.013672;
24843;0.100586;0.031250;1.009766;
24979;0.103516;0.029297;1.022461;
25159;0.097656;0.034180;1.010742;
25333;0.101562;0.034180;1.022461;
25473;0.101562;0.029297;1.052734;
25613;0.101562;0.027344;1.052734;
25753;0.100586;0.033203;1.026367;
25893;0.103516;0.033203;1.019531;
26033;0.098633;0.038086;1.035156;
26173;0.100586;0.032227;1.025391;
26313;0.099609;0.034180;1.018555;
26453;0.101562;0.037109;1.018555;
26593;0.103516;0.038086;1.038086;
26733;0.101562;0.037109;1.021484;
26873;0.102539;0.039062;1.031250;
27013;0.099609;0.038086;1.031250;
27153;0.100586;0.040039;1.029297;
27289;0.101562;0.035156;1.037109;
27469;0.101562;0.031250;1.028320;
27643;0.098633;0.032227;1.017578;
27793;0.102539;0.030273;1.016602;
27933;0.099609;0.032227;1.011719;
28083;0.100586;0.033203;1.025391;
28223;0.097656;0.035156;1.013672;
28363;0.097656;0.029297;1.026367;
28503;0.099609;0.029297;0.986328;
28643;0.097656;0.032227;1.008789;
28783;0.096680;0.034180;1.010742;
28923;0.099609;0.039062;1.026367;
29063;0.102539;0.033203;1.004883;
29203;0.099609;0.037109;1.035156;
29343;0.100586;0.034180;1.021484;
29483;0.101562;0.034180;1.015625;
29619;0.096680;0.035156;1.016602;
29789;0.097656;0.038086;1.023438;
29973;0.099609;0.039062;1.014648;
30113;0.102539;0.041016;1.018555;
30263;0.095703;0.037109;1.006836;
30403;0.099609;0.033203;1.005859;
30543;0.099609;0.033203;1.000000;
30693;0.098633;0.032227;0.997070;
30833;0.100586;0.034180;1.009766;
30973;0.099609;0.039062;1.024414;
31113;0.098633;0.038086;1.002930;
31253;0.099609;0.036133;1.007812;
31403;0.096680;0.036133;0.993164;
31543;0.098633;0.036133;1.005859;
31683;0.095703;0.033203;0.980469;
31823;0.095703;0.033203;0.986328;
31979;0.098633;0.036133;0.998047;
32159;0.097656;0.036133;1.008789;
32333;0.097656;0.032227;0.989258;
32483;0.099609;0.036133;1.000977;
32623;0.100586;0.034180;0.994141;
32763;0.096680;0.036133;0.985352;
32903;0.097656;0.037109;0.993164;
33043;0.098633;0.032227;0.997070;
33193;0.095703;0.034180;1.000000;
33333;0.095703;0.039062;0.987305;
33473;0.099609;0.037109;0.993164;
33613;0.102539;0.034180;0.984375;
33753;0.095703;0.035156;0.980469;
33893;0.096680;0.035156;0.980469;
34033;0.099609;0.038086;0.979492;
34173;0.097656;0.035156;0.989258;
34329;0.096680;0.037109;0.999023;
34513;0.096680;0.030273;1.007812;
34663;0.096680;0.035156;1.003906;
34803;0.094727;0.031250;0.993164;
34943;0.097656;0.037109;1.012695;
35083;0.096680;0.031250;0.993164;
35223;0.095703;0.038086;1.019531;
35363;0.098633;0.033203;1.001953;
35503;0.096680;0.032227;1.011719;
35643;0.094727;0.032227;0.992188;
35783;0.095703;0.028320;0.974609;
35923;0.096680;0.031250;0.991211;
36063;0.097656;0.030273;1.000977;
36203;0.093750;0.031250;0.998047;
36343;0.095703;0.032227;0.995117;
36483;0.094727;0.027344;0.989258;
36629;0.095703;0.032227;0.972656;
36823;0.093750;0.032227;0.992188;
36973;0.095703;0.036133;1.014648;
37123;0.097656;0.033203;0.993164;
37263;0.096680;0.038086;1.002930;
37403;0.094727;0.036133;0.988281;
37543;0.096680;0.040039;0.996094;
37683;0.094727;0.038086;0.994141;
37823;0.090820;0.032227;1.005859;
37963;0.097656;0.036133;1.000000;
38103;0.092773;0.036133;0.994141;
38253;0.097656;0.040039;1.000000;
38393;0.095703;0.037109;1.014648;
38533;0.095703;0.036133;1.005859;
38673;0.097656;0.038086;1.017578;
38815;0.094727;0.038086;1.001953;
38999;0.096680;0.036133;0.994141;
39173;0.095703;0.035156;1.004883;
39323;0.096680;0.033203;1.000000;
39463;0.094727;0.034180;0.990234;
39603;0.095703;0.031250;1.005859;
39743;0.098633;0.034180;1.008789;
39883;0.097656;0.032227;1.001953;
40023;0.093750;0.034180;0.981445;
40163;0.093750;0.035156;0.994141;
40303;0.094727;0.030273;0.976562;
40443;0.095703;0.035156;0.995117;
40583;0.094727;0.032227;0.986328;
40723;0.091797;0.034180;1.003906;
40863;0.095703;0.032227;1.001953;
41003;0.099609;0.034180;1.018555;
41139;0.094727;0.033203;0.998047;
41330;0.094727;0.038086;1.019531;
41493;0.097656;0.036133;1.012695;
41633;0.096680;0.039062;1.000000;
41783;0.094727;0.041992;0.987305;
41923;0.096680;0.041992;1.000000;
42063;0.095703;0.039062;0.991211;
42213;0.094727;0.041992;0.998047;
42353;0.096680;0.039062;1.000000;
42493;0.092773;0.035156;1.006836;
42633;0.097656;0.031250;0.989258;
42773;0.094727;0.029297;1.000000;
42913;0.094727;0.030273;1.001953;
43053;0.094727;0.038086;1.002930;
43193;0.100586;0.039062;1.011719;
43333;0.096680;0.032227;1.002930;
43470;0.096680;0.035156;1.003906;
43629;0.096680;0.032227;1.006836;
43788;0.094727;0.032227;1.017578;
43933;0.096680;0.034180;1.036133;
44073;0.095703;0.036133;1.014648;
44213;0.096680;0.035156;1.024414;
44353;0.097656;0.041992;1.015625;
44493;0.095703;0.035156;1.024414;
44633;0.096680;0.035156;1.015625;
44773;0.095703;0.035156;1.022461;
44913;0.093750;0.035156;1.006836;
45053;0.096680;0.035156;1.010742;
45193;0.095703;0.033203;1.002930;
45333;0.094727;0.035156;1.010742;
45473;0.094727;0.044922;1.008789;
45613;0.094727;0.043945;1.014648;
45753;0.095703;0.042969;1.026367;
45899;0.096680;0.037109;1.022461;
46069;0.097656;0.033203;1.027344;
46233;0.097656;0.035156;1.004883;
46383;0.097656;0.030273;1.008789;
46523;0.097656;0.035156;1.007812;
46673;0.096680;0.036133;1.007812;
46813;0.098633;0.032227;1.016602;
46953;0.095703;0.035156;0.994141;
47093;0.094727;0.032227;0.995117;
47233;0.096680;0.029297;0.994141;
47373;0.093750;0.035156;1.000000;
47513;0.094727;0.037109;1.003906;
47653;0.096680;0.027344;0.991211;
47793;0.095703;0.032227;1.003906;
47933;0.093750;0.033203;1.012695;
48073;0.095703;0.034180;1.014648;
48229;0.095703;0.038086;1.018555;
48400;0.095703;0.040039;1.021484;
48573;0.095703;0.037109;1.024414;
48713;0.094727;0.035156;1.010742;
48863;0.094727;0.030273;0.991211;
49003;0.093750;0.034180;1.003906;
49143;0.093750;0.029297;0.995117;
49283;0.093750;0.029297;1.009766;
49423;0.092773;0.032227;1.000000;
49563;0.093750;0.036133;1.022461;
49703;0.094727;0.039062;1.029297;
49843;0.094727;0.034180;1.030273;
49983;0.097656;0.033203;1.024414;
50123;0.094727;0.029297;1.020508;
50263;0.096680;0.034180;1.013672;
50413;0.096680;0.036133;1.009766;
50558;0.093750;0.035156;1.021484;
50719;0.093750;0.036133;1.015625;
50873;0.095703;0.037109;1.018555;
51023;0.095703;0.035156;1.021484;
51163;0.093750;0.038086;1.031250;
51303;0.092773;0.039062;1.010742;
51443;0.095703;0.038086;1.015625;
51583;0.094727;0.026367;1.007812;
51723;0.094727;0.034180;1.010742;
51863;0.093750;0.031250;1.006836;
52003;0.093750;0.030273;1.007812;
52143;0.092773;0.031250;1.001953;
52283;0.095703;0.032227;1.010742;
52423;0.096680;0.032227;1.000000;
52563;0.095703;0.039062;1.005859;
52703;0.095703;0.033203;1.009766;
52840;0.094727;0.038086;1.014648;
53011;0.095703;0.034180;1.026367;
53183;0.096680;0.036133;1.040039;
53333;0.096680;0.034180;1.053711;
53473;0.091797;0.039062;1.037109;
53613;0.099609;0.042969;1.024414;
53753;0.094727;0.039062;1.011719;
53893;0.086914;0.032227;1.003906;
54033;0.097656;0.033203;0.994141;
54173;0.086914;0.033203;1.013672;
54313;0.093750;0.033203;1.010742;
54453;0.088867;0.035156;1.004883;
54593;0.092773;0.037109;0.997070;
54743;0.090820;0.034180;0.997070;
54883;0.091797;0.033203;0.990234;
55023;0.090820;0.029297;0.975586;
55163;0.093750;0.041016;0.973633;
55329;0.088867;0.032227;0.977539;
55489;0.088867;0.041016;0.985352;
55663;0.091797;0.041016;0.987305;
55813;0.091797;0.040039;1.000000;
55953;0.086914;0.034180;0.979492;
56093;0.091797;0.029297;0.981445;
56233;0.091797;0.029297;0.975586;
56373;0.088867;0.038086;0.986328;
56513;0.089844;0.032227;0.981445;
56653;0.088867;0.031250;0.982422;
56793;0.087891;0.033203;0.967773;
56933;0.088867;0.036133;0.988281;
57083;0.087891;0.035156;0.993164;
57223;0.087891;0.041016;0.968750;
57363;0.088867;0.043945;0.970703;
57503;0.091797;0.037109;0.963867;
57640;0.091797;0.035156;0.968750;
57809;0.089844;0.041992;0.981445;
57973;0.088867;0.036133;0.989258;
58123;0.087891;0.035156;0.993164;
58263;0.088867;0.037109;0.967773;
58403;0.087891;0.034180;0.965820;
58543;0.086914;0.029297;0.976562;
58683;0.087891;0.031250;0.980469;
58823;0.083984;0.027344;0.972656;
58963;0.088867;0.027344;0.960938;
59103;0.083984;0.036133;0.969727;
59253;0.086914;0.036133;0.966797;
59393;0.090820;0.034180;0.958008;
59533;0.085938;0.034180;0.975586;
59673;0.084961;0.036133;0.973633;
59813;0.083008;0.041992;0.950195;
59949;0.083008;0.027344;0.930664;
60109;0.083008;0.035156;0.932617;
60279;0.083984;0.036133;0.932617;
60423;0.083008;0.036133;0.938477;
60573;0.082031;0.034180;0.951172;
60713;0.082031;0.033203;0.974609;
60853;0.080078;0.031250;0.983398;
60993;0.085938;0.038086;0.963867;
61133;0.085938;0.041016;0.958008;
61273;0.082031;0.036133;0.967773;
61413;0.084961;0.041016;0.969727;
61553;0.083984;0.034180;0.982422;
61693;0.083008;0.034180;0.993164;
61833;0.085938;0.040039;0.987305;
61973;0.080078;0.037109;0.979492;
62113;0.083008;0.033203;0.973633;
62253;0.083984;0.038086;0.961914;
62399;0.080078;0.038086;0.964844;
62539;0.082031;0.035156;0.971680;
62689;0.079102;0.031250;0.952148;
62863;0.079102;0.039062;0.958008;
63013;0.078125;0.033203;0.968750;
63153;0.077148;0.036133;0.971680;
63293;0.080078;0.040039;0.966797;
63433;0.079102;0.036133;0.963867;
63583;0.076172;0.035156;0.958008;
63723;0.077148;0.041016;0.966797;
63863;0.079102;0.039062;0.979492;
64003;0.074219;0.032227;0.977539;
64143;0.076172;0.041992;0.981445;
64283;0.077148;0.032227;0.958984;
64423;0.074219;0.033203;0.967773;
64563;0.074219;0.031250;0.968750;
64713;0.078125;0.036133;0.959961;
64849;0.076172;0.031250;0.975586;
65009;0.076172;0.035156;0.987305;
65173;0.077148;0.032227;0.985352;
65313;0.073242;0.033203;0.973633;
65453;0.074219;0.030273;0.979492;
65593;0.078125;0.037109;0.983398;
65733;0.075195;0.037109;0.969727;
65873;0.074219;0.034180;0.973633;
66013;0.073242;0.037109;0.975586;
66153;0.071289;0.038086;0.983398;
66293;0.070312;0.036133;0.974609;
66433;0.072266;0.037109;0.971680;
66573;0.069336;0.039062;0.975586;
66713;0.073242;0.040039;0.976562;
66853;0.070312;0.036133;0.985352;
66993;0.072266;0.038086;0.980469;
67133;0.070312;0.038086;0.982422;
67279;0.067383;0.033203;0.977539;
67449;0.072266;0.034180;0.965820;
67623;0.073242;0.036133;0.972656;
67763;0.066406;0.030273;0.966797;
67903;0.066406;0.032227;0.973633;
68043;0.066406;0.035156;0.958008;
68183;0.067383;0.035156;0.960938;
68323;0.069336;0.036133;0.965820;
68463;0.065430;0.036133;0.973633;
68603;0.067383;0.037109;0.985352;
68743;0.067383;0.036133;0.977539;
68883;0.064453;0.034180;0.983398;
69023;0.065430;0.039062;0.984375;
69163;0.065430;0.038086;0.988281;
69313;0.062500;0.040039;0.990234;
69453;0.066406;0.042969;1.001953;
69588;0.063477;0.037109;0.994141;
69759;0.065430;0.032227;0.992188;
69943;0.063477;0.034180;0.981445;
70083;0.063477;0.035156;0.980469;
70223;0.062500;0.035156;0.988281;
70363;0.062500;0.041016;0.989258;
70513;0.060547;0.038086;0.980469;
70653;0.061523;0.038086;0.981445;
70793;0.064453;0.040039;0.989258;
70943;0.060547;0.038086;0.998047;
71083;0.060547;0.041016;0.995117;
71223;0.060547;0.040039;0.993164;
71373;0.058594;0.037109;0.994141;
71513;0.058594;0.039062;0.997070;
71664;0.057617;0.034180;0.997070;
71803;0.058594;0.037109;1.000977;
71939;0.058594;0.039062;0.996094;
72099;0.056641;0.037109;0.988281;
72253;0.054688;0.036133;0.994141;
72463;0.058594;0.039062;0.994141;
72683;0.055664;0.037109;0.985352;
72903;0.053711;0.040039;0.999023;
73113;0.055664;0.034180;0.996094;
73323;0.054688;0.039062;0.998047;
73543;0.052734;0.034180;0.991211;
73763;0.051758;0.035156;0.994141;
73983;0.054688;0.041016;1.000000;
74203;0.053711;0.036133;0.997070;
74423;0.051758;0.041992;0.993164;
74643;0.051758;0.037109;1.002930;
74853;0.050781;0.039062;1.004883;
75073;0.052734;0.039062;0.999023;
75293;0.050781;0.041016;0.997070;
75499;0.050781;0.039062;1.005859;
75740;0.048828;0.036133;0.994141;
75993;0.049805;0.035156;0.996094;
76213;0.049805;0.030273;1.007812;
76423;0.046875;0.041016;0.995117;
76643;0.045898;0.041016;0.990234;
76863;0.048828;0.036133;1.006836;
77073;0.049805;0.031250;1.005859;
77293;0.044922;0.036133;0.992188;
77503;0.043945;0.031250;0.983398;
77713;0.043945;0.038086;0.979492;
77933;0.044922;0.038086;0.999023;
78143;0.044922;0.043945;0.997070;
78363;0.044922;0.037109;0.999023;
78583;0.044922;0.041992;1.013672;
78793;0.045898;0.034180;1.003906;
79009;0.042969;0.041992;0.999023;
79264;0.044922;0.035156;0.995117;
79483;0.042969;0.039062;0.984375;
79693;0.042969;0.035156;0.993164;
79913;0.042969;0.036133;0.998047;
80123;0.041992;0.034180;1.007812;
80343;0.044922;0.034180;1.010742;
80563;0.039062;0.041016;0.993164;
80773;0.041016;0.044922;0.996094;
80983;0.041992;0.039062;0.991211;
81193;0.039062;0.034180;0.995117;
81403;0.043945;0.037109;0.990234;
81613;0.041992;0.035156;0.995117;
81833;0.040039;0.036133;0.997070;
82043;0.041016;0.040039;0.998047;
82249;0.040039;0.039062;1.001953;
82489;0.041016;0.036133;0.994141;
82743;0.041016;0.035156;1.000977;
82963;0.039062;0.034180;0.999023;
83173;0.041992;0.034180;1.006836;
83383;0.038086;0.042969;1.001953;
83593;0.040039;0.037109;1.001953;
83803;0.037109;0.037109;1.002930;
84023;0.039062;0.041992;1.007812;
84233;0.036133;0.037109;1.003906;
84443;0.037109;0.040039;1.008789;
84653;0.035156;0.037109;1.008789;
84863;0.036133;0.038086;1.006836;
85083;0.034180;0.036133;1.002930;
85303;0.035156;0.038086;0.998047;
85513;0.036133;0.033203;1.009766;
85729;0.035156;0.035156;1.007812;
85983;0.035156;0.038086;1.002930;
86203;0.036133;0.038086;1.008789;
86413;0.034180;0.038086;1.000000;
86633;0.036133;0.040039;1.006836;
86853;0.033203;0.037109;1.000977;
87063;0.035156;0.038086;1.005859;
87283;0.035156;0.037109;1.012695;
87503;0.032227;0.039062;1.015625;
87723;0.033203;0.040039;1.007812;
87943;0.033203;0.040039;1.001953;
88153;0.034180;0.039062;1.015625;
88363;0.035156;0.039062;1.004883;
88583;0.034180;0.036133;1.010742;
88793;0.030273;0.032227;1.007812;
89009;0.031250;0.042969;1.012695;
89249;0.033203;0.036133;1.013672;
89473;0.030273;0.040039;1.000000;
89693;0.030273;0.037109;1.004883;
89913;0.029297;0.039062;0.999023;
90133;0.032227;0.036133;1.005859;
90343;0.032227;0.036133;1.009766;
90563;0.027344;0.033203;0.992188;
90773;0.026367;0.041992;1.000000;
90993;0.028320;0.039062;0.990234;
91213;0.026367;0.039062;1.002930;
91423;0.025391;0.038086;0.990234;
91643;0.026367;0.038086;0.984375;
91853;0.025391;0.040039;0.992188;
92063;0.028320;0.043945;0.992188;
92273;0.025391;0.040039;0.992188;
92493;0.025391;0.038086;0.981445;
92709;0.024414;0.038086;0.985352;
92949;0.025391;0.034180;0.995117;
93183;0.022461;0.041016;0.988281;
93403;0.027344;0.036133;1.000000;
93623;0.023438;0.035156;0.994141;
93833;0.023438;0.037109;0.993164;
94053;0.023438;0.039062;0.993164;
94263;0.024414;0.039062;0.998047;
94483;0.020508;0.041016;0.996094;
94703;0.023438;0.033203;0.990234;
94923;0.025391;0.036133;1.000977;
95143;0.023438;0.036133;1.005859;
95353;0.023438;0.036133;1.007812;
95563;0.025391;0.038086;1.008789;
95773;0.019531;0.034180;0.998047;
95993;0.022461;0.037109;1.005859;
96210;0.022461;0.037109;1.002930;
96463;0.021484;0.040039;1.011719;
96683;0.020508;0.041016;1.008789;
96903;0.019531;0.040039;1.007812;
97123;0.017578;0.038086;1.012695;
97333;0.019531;0.041016;1.008789;
97543;0.021484;0.038086;1.003906;
97763;0.019531;0.035156;1.006836;
97983;0.019531;0.030273;1.000977;
98193;0.019531;0.035156;1.007812;
98413;0.019531;0.035156;1.011719;
98623;0.022461;0.038086;1.003906;
98833;0.019531;0.041992;1.011719;
99053;0.018555;0.040039;0.997070;
99273;0.020508;0.038086;1.014648;
99489;0.018555;0.039062;1.015625;
99709;0.021484;0.037109;1.015625;
99953;0.019531;0.039062;1.018555;
100173;0.020508;0.033203;1.019531;
100383;0.018555;0.034180;1.013672;
100593;0.019531;0.033203;1.010742;
100803;0.020508;0.027344;1.008789;
101023;0.017578;0.038086;1.023438;
101243;0.018555;0.038086;1.017578;
101463;0.019531;0.038086;1.012695;
101683;0.017578;0.038086;1.026367;
101893;0.018555;0.039062;1.023438;
102113;0.017578;0.035156;1.017578;
102333;0.017578;0.039062;1.019531;
102543;0.017578;0.040039;1.011719;
102763;0.015625;0.039062;1.024414;
102991;0.017578;0.036133;1.024414;
103251;0.017578;0.039062;1.020508;
103473;0.015625;0.041992;1.017578;
103693;0.015625;0.037109;1.013672;
103913;0.016602;0.033203;1.007812;
104133;0.017578;0.039062;1.026367;
104353;0.018555;0.034180;1.019531;
104563;0.016602;0.041016;1.019531;
104783;0.014648;0.037109;1.020508;
105003;0.017578;0.037109;1.019531;
105213;0.015625;0.035156;1.013672;
105433;0.016602;0.036133;1.025391;
105653;0.014648;0.041992;1.023438;
105873;0.013672;0.037109;1.016602;
106093;0.013672;0.038086;1.014648;
106303;0.018555;0.039062;1.025391;
106519;0.015625;0.038086;1.027344;
106763;0.015625;0.039062;1.018555;
106979;0.015625;0.039062;1.017578;
107223;0.017578;0.039062;1.019531;
107443;0.013672;0.040039;1.012695;
107663;0.015625;0.035156;1.012695;
107873;0.018555;0.035156;1.016602;
108093;0.015625;0.038086;1.016602;
108303;0.016602;0.040039;1.027344;
108513;0.016602;0.038086;1.024414;
108733;0.017578;0.037109;1.024414;
108953;0.015625;0.038086;1.037109;
109173;0.016602;0.036133;1.027344;
109383;0.013672;0.032227;1.020508;
109593;0.014648;0.035156;1.014648;
109803;0.015625;0.034180;1.019531;
110023;0.014648;0.033203;1.016602;
110239;0.014648;0.041016;1.029297;
110461;0.016602;0.039062;1.021484;
110700;0.012695;0.038086;1.020508;
110943;0.012695;0.034180;1.012695;
111163;0.015625;0.037109;1.025391;
111373;0.012695;0.038086;1.023438;
111593;0.013672;0.038086;1.020508;
111813;0.011719;0.035156;1.012695;
112023;0.014648;0.036133;1.025391;
112233;0.017578;0.037109;1.021484;
112453;0.016602;0.040039;1.018555;
112673;0.016602;0.035156;1.018555;
112893;0.017578;0.037109;1.029297;
113113;0.018555;0.035156;1.028320;
113323;0.014648;0.041992;1.025391;
113543;0.012695;0.035156;1.017578;
113763;0.014648;0.036133;1.028320;
114009;0.014648;0.033203;1.021484;
114233;0.015625;0.039062;1.028320;
114453;0.013672;0.039062;1.023438;
114673;0.015625;0.037109;1.013672;
114893;0.015625;0.035156;1.026367;
115113;0.015625;0.041016;1.031250;
115333;0.016602;0.041016;1.026367;
115553;0.018555;0.038086;1.032227;
115773;0.018555;0.039062;1.023438;
115983;0.018555;0.039062;1.025391;
116203;0.016602;0.038086;1.023438;
116413;0.017578;0.041016;1.020508;
116633;0.017578;0.035156;1.011719;
116853;0.015625;0.036133;1.016602;
117063;0.017578;0.035156;1.012695;
117279;0.014648;0.037109;1.024414;
117529;0.016602;0.038086;1.028320;
117763;0.015625;0.035156;1.024414;
117983;0.019531;0.036133;1.034180;
118193;0.017578;0.036133;1.032227;
118413;0.017578;0.037109;1.016602;
118633;0.014648;0.036133;1.015625;
118853;0.016602;0.038086;1.019531;
119063;0.015625;0.036133;1.016602;
119285;0.016602;0.040039;1.012695;
119503;0.016602;0.033203;1.009766;
119713;0.013672;0.037109;1.001953;
119933;0.017578;0.041016;1.024414;
120143;0.014648;0.032227;1.017578;
120363;0.015625;0.041016;1.018555;
120579;0.011719;0.034180;1.007812;
120829;0.013672;0.041016;1.021484;
121043;0.025391;0.036133;1.032227;
121263;0.022461;0.035156;1.033203;
121483;0.016602;0.039062;1.024414;
121703;0.018555;0.035156;1.037109;
121913;0.018555;0.038086;1.033203;
122133;0.017578;0.035156;1.022461;
122343;0.012695;0.038086;1.012695;
122553;0.018555;0.039062;1.030273;
122773;0.017578;0.042969;1.029297;
122983;0.017578;0.039062;1.021484;
123203;0.016602;0.036133;1.022461;
123413;0.013672;0.034180;1.005859;
123623;0.016602;0.035156;1.023438;
123833;0.015625;0.039062;1.023438;
124039;0.016602;0.036133;1.022461;
124279;0.016602;0.035156;1.019531;
124523;0.018555;0.038086;1.035156;
124743;0.018555;0.039062;1.027344;
124963;0.016602;0.039062;1.026367;
125173;0.017578;0.036133;1.026367;
125383;0.020508;0.038086;1.034180;
125603;0.019531;0.035156;1.030273;
125823;0.018555;0.037109;1.025391;
126033;0.017578;0.039062;1.025391;
126253;0.020508;0.041016;1.030273;
126463;0.016602;0.041016;1.026367;
126683;0.020508;0.038086;1.030273;
126903;0.017578;0.041016;1.021484;
127113;0.018555;0.041016;1.020508;
127323;0.018555;0.038086;1.023438;
127539;0.017578;0.037109;1.018555;
127780;0.016602;0.034180;1.017578;
128023;0.017578;0.039062;1.030273;
128233;0.019531;0.032227;1.035156;
128453;0.018555;0.036133;1.026367;
128663;0.014648;0.038086;1.024414;
128883;0.019531;0.036133;1.023438;
129103;0.019531;0.033203;1.029297;
129323;0.017578;0.039062;1.020508;
129533;0.016602;0.032227;1.019531;
129743;0.018555;0.041016;1.029297;
129963;0.017578;0.043945;1.039062;
130173;0.019531;0.040039;1.031250;
130393;0.016602;0.041992;1.025391;
130603;0.013672;0.039062;1.023438;
130815;0.016602;0.038086;1.014648;
131050;0.017578;0.037109;1.016602;
131303;0.016602;0.039062;1.019531;
131523;0.015625;0.036133;1.025391;
131733;0.017578;0.036133;1.026367;
131943;0.019531;0.036133;1.031250;
132163;0.019531;0.037109;1.036133;
132373;0.018555;0.033203;1.030273;
132593;0.016602;0.040039;1.022461;
132803;0.019531;0.036133;1.031250;
133013;0.019531;0.033203;1.025391;
133233;0.016602;0.037109;1.023438;
133443;0.014648;0.037109;1.012695;
133663;0.015625;0.035156;1.015625;
133883;0.021484;0.039062;1.019531;
134093;0.018555;0.041016;1.016602;
134310;0.020508;0.039062;1.023438;
134549;0.015625;0.036133;1.013672;
134773;0.021484;0.039062;1.029297;
134993;0.017578;0.040039;1.018555;
135213;0.017578;0.041016;1.010742;
135433;0.019531;0.038086;1.023438;
135643;0.023438;0.039062;1.029297;
135863;0.019531;0.038086;1.037109;
136073;0.020508;0.038086;1.034180;
136283;0.019531;0.035156;1.022461;
136493;0.019531;0.034180;1.020508;
136713;0.020508;0.036133;1.016602;
136933;0.018555;0.034180;1.022461;
137143;0.018555;0.034180;1.015625;
137353;0.018555;0.038086;1.026367;
137569;0.016602;0.039062;1.026367;
137810;0.018555;0.035156;1.018555;
138063;0.016602;0.040039;1.018555;
138283;0.021484;0.037109;1.021484;
138493;0.017578;0.043945;1.020508;
138713;0.018555;0.039062;1.012695;
138933;0.016602;0.033203;1.004883;
139153;0.017578;0.034180;1.009766;
139373;0.018555;0.042969;1.016602;
139593;0.021484;0.034180;1.023438;
139813;0.018555;0.034180;1.019531;
140023;0.018555;0.034180;1.034180;
140233;0.020508;0.037109;1.020508;
140453;0.017578;0.032227;1.020508;
140673;0.017578;0.034180;1.022461;
140893;0.017578;0.038086;1.025391;
141109;0.020508;0.041016;1.021484;
141363;0.016602;0.041016;1.016602;
141583;0.016602;0.040039;1.015625;
141793;0.018555;0.036133;1.024414;
142003;0.019531;0.041992;1.030273;
142213;0.018555;0.041016;1.010742;
142423;0.017578;0.041016;1.022461;
142643;0.016602;0.041016;1.018555;
142853;0.021484;0.034180;1.019531;
143073;0.021484;0.041992;1.021484;
143293;0.018555;0.036133;1.014648;
143513;0.017578;0.037109;1.029297;
143733;0.017578;0.038086;1.013672;
143953;0.020508;0.039062;1.024414;
144173;0.020508;0.037109;1.024414;
144379;0.015625;0.037109;1.026367;
144619;0.018555;0.035156;1.016602;
144873;0.021484;0.041992;1.024414;
145093;0.016602;0.041016;1.024414;
145303;0.017578;0.041016;1.026367;
145513;0.020508;0.031250;1.021484;
145733;0.020508;0.038086;1.018555;
145953;0.019531;0.034180;1.018555;
146163;0.016602;0.037109;1.016602;
146373;0.018555;0.035156;1.014648;
146583;0.018555;0.040039;1.005859;
146793;0.020508;0.041016;1.017578;
147003;0.017578;0.038086;1.008789;
147223;0.014648;0.036133;1.010742;
147433;0.019531;0.036133;1.024414;
147643;0.018555;0.034180;1.022461;
147859;0.022461;0.034180;1.032227;
148103;0.018555;0.036133;1.029297;
148323;0.018555;0.040039;1.022461;
148543;0.021484;0.041016;1.023438;
148753;0.019531;0.040039;1.020508;
148973;0.019531;0.037109;1.011719;
149193;0.018555;0.041016;1.004883;
149413;0.016602;0.041992;1.005859;
149633;0.019531;0.036133;1.005859;
149843;0.018555;0.040039;1.015625;
150063;0.018555;0.041016;1.018555;
150273;0.018555;0.040039;1.024414;
150493;0.019531;0.032227;1.028320;
150713;0.020508;0.035156;1.029297;
150923;0.023438;0.034180;1.028320;
151129;0.021484;0.040039;1.028320;
151369;0.018555;0.038086;1.025391;
151623;0.020508;0.036133;1.027344;
151833;0.024414;0.039062;1.037109;
152053;0.016602;0.038086;1.013672;
152263;0.020508;0.037109;1.015625;
152483;0.021484;0.041016;1.024414;
152693;0.022461;0.041992;1.024414;
152903;0.021484;0.039062;1.024414;
153123;0.020508;0.037109;1.025391;
153333;0.021484;0.036133;1.030273;
153553;0.022461;0.039062;1.025391;
153773;0.022461;0.039062;1.022461;
153983;0.019531;0.032227;1.031250;
154193;0.022461;0.038086;1.024414;
154403;0.017578;0.042969;1.015625;
154618;0.021484;0.036133;1.014648;
154873;0.020508;0.037109;1.020508;
155083;0.022461;0.041016;1.018555;
155293;0.022461;0.034180;1.020508;
155513;0.019531;0.037109;1.024414;
155733;0.019531;0.035156;1.014648;
155943;0.020508;0.033203;1.024414;
156153;0.021484;0.042969;1.021484;
156373;0.017578;0.033203;1.022461;
156593;0.020508;0.043945;1.023438;
156803;0.021484;0.045898;1.024414;
157013;0.019531;0.040039;1.034180;
157223;0.019531;0.036133;1.024414;
157433;0.020508;0.031250;1.031250;
157653;0.020508;0.037109;1.022461;
157861;0.021484;0.034180;1.020508;
158099;0.021484;0.040039;1.019531;
158333;0.023438;0.034180;1.022461;
158553;0.018555;0.047852;1.008789;
158773;0.018555;0.038086;0.995117;
158993;0.020508;0.035156;1.025391;
159203;0.023438;0.031250;1.027344;
159423;0.020508;0.036133;1.020508;
159643;0.021484;0.039062;1.029297;
159853;0.024414;0.039062;1.029297;
160073;0.024414;0.034180;1.033203;
160293;0.023438;0.041016;1.027344;
160503;0.020508;0.031250;1.025391;
160723;0.023438;0.037109;1.033203;
160943;0.023438;0.041992;1.022461;
161153;0.019531;0.043945;1.023438;
161369;0.017578;0.042969;1.023438;
161579;0.021484;0.035156;1.029297;
161833;0.023438;0.044922;1.016602;
162043;0.019531;0.038086;1.026367;
162253;0.022461;0.038086;1.030273;
162473;0.021484;0.032227;1.016602;
162693;0.022461;0.035156;1.027344;
162913;0.022461;0.036133;1.018555;
163133;0.020508;0.038086;1.025391;
163343;0.022461;0.040039;1.028320;
163553;0.020508;0.033203;1.021484;
163763;0.025391;0.044922;1.030273;
163983;0.022461;0.037109;1.027344;
164203;0.019531;0.035156;1.026367;
164413;0.020508;0.041016;1.020508;
164623;0.021484;0.038086;1.030273;
164839;0.021484;0.037109;1.026367;
165058;0.021484;0.036133;1.020508;
165283;0.021484;0.038086;1.022461;
165503;0.021484;0.041016;1.017578;
165723;0.021484;0.041016;1.013672;
165933;0.022461;0.044922;1.023438;
166153;0.018555;0.035156;1.019531;
166373;0.022461;0.037109;1.020508;
166583;0.022461;0.028320;1.010742;
166803;0.023438;0.036133;1.025391;
167013;0.027344;0.042969;1.023438;
167233;0.021484;0.040039;1.006836;
167443;0.021484;0.041992;1.022461;
167653;0.023438;0.038086;1.019531;
167873;0.024414;0.041016;1.015625;
168089;0.018555;0.041016;1.012695;
168329;0.021484;0.034180;1.023438;
168573;0.024414;0.035156;1.034180;
168793;0.022461;0.036133;1.020508;
169003;0.019531;0.042969;1.024414;
169223;0.019531;0.042969;1.009766;
169433;0.019531;0.034180;1.018555;
169653;0.020508;0.039062;1.011719;
169873;0.020508;0.041016;1.025391;
170083;0.021484;0.037109;1.024414;
170293;0.021484;0.037109;1.015625;
170503;0.020508;0.038086;1.016602;
170723;0.024414;0.038086;1.026367;
170943;0.022461;0.036133;1.021484;
171153;0.020508;0.039062;1.007812;
171363;0.021484;0.037109;1.009766;
171579;0.021484;0.035156;1.015625;
171809;0.021484;0.043945;1.019531;
172063;0.019531;0.036133;1.017578;
172273;0.018555;0.040039;1.009766;
172483;0.022461;0.038086;1.017578;
172703;0.022461;0.039062;1.017578;
172923;0.022461;0.038086;1.020508;
173133;0.019531;0.042969;1.013672;
173343;0.022461;0.038086;1.010742;
173563;0.023438;0.037109;1.012695;
173773;0.023438;0.039062;1.015625;
173993;0.021484;0.038086;1.016602;
174203;0.021484;0.036133;1.024414;
174413;0.022461;0.036133;1.023438;
174633;0.024414;0.036133;1.021484;
174853;0.021484;0.036133;1.013672;
175070;0.024414;0.038086;1.017578;
175310;0.021484;0.039062;1.019531;
175563;0.019531;0.038086;1.017578;
175773;0.022461;0.041016;1.026367;
175983;0.023438;0.038086;1.025391;
176203;0.023438;0.038086;1.030273;
176423;0.023438;0.039062;1.022461;
176633;0.022461;0.039062;1.017578;
176853;0.022461;0.037109;1.010742;
177073;0.021484;0.035156;1.021484;
177294;0.022461;0.036133;1.021484;
177513;0.020508;0.036133;1.015625;
177723;0.022461;0.041992;1.021484;
177943;0.018555;0.041992;1.022461;
178163;0.022461;0.034180;1.014648;
178373;0.022461;0.034180;1.014648;
178609;0.021484;0.039062;1.024414;
178843;0.022461;0.038086;1.020508;
179053;0.025391;0.037109;1.015625;
179263;0.025391;0.038086;1.031250;
179483;0.025391;0.037109;1.029297;
179703;0.020508;0.036133;1.016602;
179923;0.021484;0.033203;1.025391;
180143;0.022461;0.033203;1.023438;
180363;0.021484;0.038086;1.023438;
180573;0.020508;0.039062;1.023438;
180793;0.023438;0.038086;1.018555;
181013;0.024414;0.040039;1.027344;
181233;0.025391;0.040039;1.023438;
181453;0.020508;0.041992;1.024414;
181673;0.022461;0.041992;1.019531;
181890;0.022461;0.038086;1.024414;
182139;0.023438;0.042969;1.018555;
182393;0.024414;0.041016;1.016602;
182603;0.025391;0.037109;1.018555;
182814;0.024414;0.041016;1.023438;
183023;0.024414;0.035156;1.013672;
183243;0.021484;0.038086;1.016602;
183453;0.022461;0.036133;1.003906;
183673;0.023438;0.036133;1.025391;
183893;0.023438;0.038086;1.022461;
184113;0.023438;0.037109;1.026367;
184323;0.024414;0.038086;1.022461;
184533;0.023438;0.037109;1.016602;
184753;0.025391;0.035156;1.030273;
184973;0.025391;0.041016;1.025391;
185193;0.023438;0.035156;1.025391;
185440;0.024414;0.037109;1.020508;
185693;0.023438;0.037109;1.024414;
185913;0.027344;0.040039;1.032227;
186123;0.025391;0.035156;1.028320;
186343;0.026367;0.036133;1.027344;
186553;0.026367;0.037109;1.021484;
186773;0.026367;0.036133;1.026367;
186983;0.021484;0.038086;1.017578;
187203;0.023438;0.038086;1.028320;
187413;0.026367;0.041992;1.025391;
187633;0.026367;0.040039;1.019531;
187843;0.022461;0.039062;1.019531;
188053;0.022461;0.033203;1.009766;
188273;0.024414;0.038086;1.015625;
188483;0.025391;0.038086;1.028320;
188700;0.027344;0.038086;1.017578;
188939;0.024414;0.036133;1.022461;
189153;0.028320;0.040039;1.036133;
189373;0.026367;0.042969;1.041992;
189593;0.025391;0.042969;1.031250;
189813;0.025391;0.041016;1.029297;
190023;0.027344;0.037109;1.031250;
190243;0.026367;0.039062;1.024414;
190453;0.028320;0.038086;1.024414;
190673;0.023438;0.036133;1.026367;
190893;0.021484;0.039062;1.013672;
191113;0.021484;0.038086;1.025391;
191333;0.028320;0.041016;1.029297;
191543;0.022461;0.037109;1.023438;
191763;0.022461;0.041016;1.025391;
191969;0.023438;0.041016;1.016602;
192210;0.027344;0.037109;1.029297;
192473;0.023438;0.038086;1.013672;
192683;0.023438;0.037109;1.008789;
192893;0.024414;0.041016;1.023438;
193103;0.023438;0.035156;1.021484;
193315;0.023438;0.038086;1.011719;
193543;0.025391;0.035156;1.016602;
193763;0.024414;0.037109;1.022461;
193983;0.025391;0.032227;1.019531;
194203;0.022461;0.037109;1.020508;
194423;0.025391;0.035156;1.015625;
194643;0.026367;0.041992;1.035156;
194853;0.026367;0.040039;1.028320;
195060;0.022461;0.042969;1.016602;
195320;0.022461;0.037109;1.025391;
195570;0.025391;0.034180;1.017578;
195823;0.022461;0.042969;1.025391;
196033;0.026367;0.038086;1.016602;
196255;0.028320;0.037109;1.029297;
196503;0.024414;0.039062;1.020508;
196723;0.021484;0.035156;1.008789;
196943;0.024414;0.040039;1.027344;
197163;0.029297;0.035156;1.026367;
197373;0.026367;0.040039;1.022461;
197593;0.020508;0.034180;1.019531;
197813;0.025391;0.038086;1.025391;
198025;0.026367;0.035156;1.027344;
198283;0.022461;0.041992;1.017578;
198493;0.025391;0.037109;1.020508;
198699;0.022461;0.039062;1.021484;
198939;0.024414;0.039062;1.024414;
199193;0.023438;0.040039;1.033203;
199413;0.026367;0.037109;1.023438;
199623;0.023438;0.036133;1.026367;
199843;0.030273;0.037109;1.029297;
200053;0.031250;0.037109;1.030273;
200263;0.032227;0.038086;1.024414;
200483;0.036133;0.039062;1.027344;
200693;0.036133;0.039062;1.033203;
200913;0.038086;0.042969;1.020508;
201123;0.036133;0.034180;1.039062;
201333;0.038086;0.043945;1.042969;
201553;0.039062;0.037109;1.038086;
201773;0.038086;0.036133;1.029297;
201983;0.037109;0.035156;1.031250;
202209;0.039062;0.032227;1.032227;
202453;0.041016;0.035156;1.036133;
202673;0.041016;0.039062;1.033203;
202883;0.037109;0.037109;1.036133;
203103;0.039062;0.038086;1.027344;
203333;0.040039;0.039062;1.024414;
203553;0.040039;0.039062;1.030273;
203771;0.041016;0.038086;1.016602;
204033;0.040039;0.044922;1.033203;
204263;0.041016;0.039062;1.017578;
204473;0.039062;0.039062;1.018555;
204693;0.040039;0.039062;1.022461;
204909;0.041016;0.041016;1.025391;
205163;0.040039;0.038086;1.025391;
205373;0.041016;0.041016;1.036133;
205593;0.041016;0.037109;1.029297;
205821;0.041992;0.037109;1.031250;
206031;0.041016;0.038086;1.031250;
206273;0.042969;0.041992;1.036133;
206483;0.042969;0.039062;1.032227;
206695;0.042969;0.034180;1.027344;
206933;0.041016;0.040039;1.029297;
207153;0.042969;0.040039;1.031250;
207360;0.040039;0.042969;1.021484;
207583;0.040039;0.039062;1.025391;
207803;0.041992;0.039062;1.019531;
208023;0.041992;0.041016;1.014648;
208243;0.041992;0.039062;1.018555;
208453;0.042969;0.034180;1.017578;
208683;0.043945;0.041016;1.024414;
208903;0.041992;0.036133;1.021484;
209110;0.042969;0.039062;1.026367;
209340;0.042969;0.036133;1.019531;
209583;0.039062;0.035156;1.012695;
209793;0.041016;0.037109;1.010742;
210013;0.041992;0.036133;1.019531;
210223;0.040039;0.038086;1.014648;
210443;0.040039;0.040039;1.011719;
210663;0.041016;0.037109;1.017578;
210883;0.041992;0.037109;1.008789;
211103;0.041016;0.041992;1.016602;
211313;0.044922;0.041016;1.009766;
211523;0.041992;0.041992;1.018555;
211743;0.042969;0.041016;1.018555;
211953;0.041016;0.038086;1.015625;
212173;0.041016;0.037109;1.012695;
212393;0.044922;0.039062;1.031250;
212609;0.039062;0.037109;1.008789;
212829;0.041016;0.038086;1.004883;
213073;0.041016;0.035156;1.000000;
213293;0.041016;0.037109;1.000000;
213513;0.041992;0.037109;0.997070;
213733;0.041992;0.039062;1.015625;
213953;0.041992;0.041016;1.002930;
214163;0.043945;0.036133;1.006836;
214373;0.044922;0.036133;1.016602;
214583;0.043945;0.040039;1.031250;
214793;0.044922;0.046875;1.021484;
215003;0.041992;0.037109;1.015625;
215223;0.042969;0.036133;1.012695;
215433;0.040039;0.035156;1.003906;
215643;0.038086;0.036133;1.007812;
215853;0.038086;0.033203;1.016602;
216070;0.040039;0.035156;1.016602;
216311;0.042969;0.036133;1.021484;
216563;0.039062;0.039062;1.013672;
216773;0.041016;0.037109;1.022461;
216993;0.041016;0.040039;1.020508;
217203;0.040039;0.040039;1.006836;
217423;0.040039;0.045898;1.022461;
217633;0.039062;0.039062;1.014648;
217843;0.038086;0.042969;1.018555;
218053;0.040039;0.043945;1.018555;
218273;0.041016;0.043945;1.024414;
218493;0.041016;0.043945;1.016602;
218713;0.040039;0.040039;1.023438;
218923;0.042969;0.037109;1.020508;
219133;0.041016;0.038086;1.031250;
219353;0.041016;0.035156;1.031250;
219563;0.040039;0.036133;1.028320;
219770;0.038086;0.036133;1.017578;
220013;0.037109;0.041992;1.020508;
220233;0.039062;0.036133;1.011719;
220453;0.040039;0.045898;1.021484;
220673;0.039062;0.036133;1.004883;
220893;0.038086;0.038086;1.009766;
221103;0.040039;0.042969;1.014648;
221313;0.039062;0.043945;1.014648;
221533;0.036133;0.043945;1.028320;
221773;0.040039;0.042969;1.026367;
221993;0.040039;0.039062;1.038086;
222213;0.040039;0.041992;1.028320;
222423;0.040039;0.040039;1.019531;
222633;0.034180;0.033203;1.015625;
222843;0.040039;0.034180;1.029297;
223063;0.036133;0.038086;1.032227;
223279;0.037109;0.036133;1.017578;
223520;0.038086;0.039062;1.026367;
223763;0.038086;0.037109;1.020508;
223973;0.036133;0.041016;1.026367;
224193;0.038086;0.041016;1.031250;
224413;0.036133;0.039062;1.009766;
224633;0.035156;0.041992;1.022461;
224843;0.035156;0.041016;1.017578;
225063;0.037109;0.041992;1.030273;
225273;0.035156;0.042969;1.022461;
225493;0.034180;0.041992;1.012695;
225703;0.037109;0.040039;1.014648;
225923;0.037109;0.039062;1.017578;
226143;0.036133;0.040039;1.018555;
226363;0.036133;0.041016;1.021484;
226573;0.035156;0.038086;1.022461;
226789;0.036133;0.037109;1.025391;
227033;0.035156;0.037109;1.016602;
227243;0.038086;0.041016;1.034180;
227463;0.035156;0.037109;1.011719;
227673;0.034180;0.039062;1.024414;
227893;0.037109;0.040039;1.039062;
228103;0.037109;0.038086;1.026367;
228323;0.039062;0.039062;1.033203;
228543;0.035156;0.041016;1.031250;
228753;0.035156;0.037109;1.013672;
228963;0.033203;0.044922;1.033203;
229184;0.037109;0.041992;1.021484;
229403;0.034180;0.039062;1.022461;
229623;0.033203;0.037109;1.019531;
229843;0.032227;0.037109;1.007812;
230049;0.038086;0.041992;1.030273;
230290;0.035156;0.035156;1.039062;
230543;0.040039;0.038086;1.031250;
230763;0.036133;0.041016;1.029297;
230983;0.036133;0.041016;1.030273;
231203;0.035156;0.042969;1.018555;
231423;0.037109;0.041016;1.026367;
231643;0.034180;0.041992;1.021484;
231863;0.039062;0.040039;1.018555;
232083;0.032227;0.041016;1.016602;
232293;0.035156;0.043945;1.011719;
232513;0.035156;0.041992;1.018555;
232723;0.036133;0.043945;1.024414;
232943;0.034180;0.041992;1.018555;
233163;0.034180;0.036133;1.027344;
233373;0.034180;0.034180;1.017578;
233589;0.038086;0.041992;1.022461;
233833;0.036133;0.034180;1.027344;
234053;0.035156;0.040039;1.021484;
234273;0.036133;0.038086;1.034180;
234493;0.036133;0.039062;1.040039;
234713;0.035156;0.039062;1.027344;
234933;0.035156;0.041992;1.028320;
235143;0.035156;0.040039;1.022461;
235363;0.033203;0.041016;1.026367;
235573;0.034180;0.042969;1.022461;
235783;0.035156;0.039062;1.029297;
235993;0.035156;0.044922;1.028320;
