Time;acc_x;acc_y;acc_z;

307243;-0.018555;0.024414;0.013672;
307459;-0.020508;0.026367;0.014648;
307609;-0.021484;0.028320;0.005859;
307749;-0.020508;0.024414;0.014648;
307889;-0.020508;0.024414;0.003906;
308029;-0.023438;0.023438;0.005859;
308169;-0.022461;0.023438;0.002930;
308309;-0.021484;0.021484;0.010742;
308449;-0.022461;0.021484;0.011719;
308589;-0.023438;0.021484;0.010742;
308729;-0.024414;0.022461;0.008789;
308869;-0.023438;0.022461;0.003906;
309009;-0.021484;0.022461;0.009766;
309149;-0.024414;0.023438;0.008789;
309289;-0.022461;0.022461;0.009766;
309429;-0.025391;0.020508;0.008789;
309569;-0.025391;0.016602;0.013672;
309709;-0.026367;0.023438;0.005859;
309845;-0.025391;0.024414;0.009766;
309994;-0.027344;0.023438;0.009766;
310144;-0.025391;0.023438;0.010742;
310294;-0.027344;0.025391;0.011719;
310444;-0.024414;0.023438;0.019531;
310599;-0.027344;0.022461;0.013672;
310749;-0.027344;0.022461;0.011719;
310889;-0.028320;0.018555;0.008789;
311024;-0.028320;0.020508;0.010742;
311154;-0.029297;0.019531;0.022461;
311309;-0.029297;0.021484;0.022461;
311449;-0.028320;0.020508;0.017578;
311589;-0.028320;0.020508;0.021484;
311739;-0.029297;0.021484;0.013672;
311879;-0.030273;0.022461;0.017578;
312019;-0.031250;0.022461;0.017578;
312160;-0.031250;0.019531;0.024414;
312309;-0.033203;0.020508;0.019531;
312449;-0.029297;0.019531;0.025391;
312585;-0.033203;0.018555;0.032227;
312734;-0.032227;0.017578;0.027344;
312884;-0.030273;0.018555;0.022461;
313034;-0.033203;0.020508;0.020508;
313189;-0.034180;0.018555;0.026367;
313329;-0.033203;0.021484;0.022461;
313469;-0.035156;0.020508;0.020508;
313609;-0.034180;0.022461;0.016602;
313749;-0.035156;0.020508;0.020508;
313889;-0.036133;0.018555;0.017578;
314029;-0.035156;0.024414;0.010742;
314169;-0.036133;0.023438;0.018555;
314299;-0.036133;0.025391;0.014648;
314439;-0.038086;0.023438;0.016602;
314579;-0.036133;0.028320;0.013672;
314719;-0.037109;0.028320;0.010742;
314859;-0.038086;0.032227;0.009766;
314999;-0.038086;0.035156;0.001953;
315134;-0.038086;0.036133;0.000000;
315274;-0.040039;0.037109;-0.007812;
315414;-0.040039;0.038086;-0.017578;
315564;-0.040039;0.040039;-0.024414;
315714;-0.040039;0.041016;-0.027344;
315855;-0.040039;0.035156;-0.041992;
316009;-0.040039;0.029297;-0.046875;
316149;-0.041016;0.027344;-0.050781;
316289;-0.040039;0.027344;-0.040039;
316429;-0.041016;0.027344;-0.015625;
316569;-0.043945;0.028320;-0.017578;
316719;-0.045898;0.029297;-0.005859;
316859;-0.045898;0.030273;0.023438;
316999;-0.048828;0.029297;0.038086;
317139;-0.048828;0.031250;0.048828;
317279;-0.048828;0.023438;0.075195;
317419;-0.050781;0.028320;0.106445;
317559;-0.049805;0.023438;0.160156;
317709;-0.048828;0.027344;0.211914;
317849;-0.049805;0.025391;0.273438;
317984;-0.048828;0.026367;0.315430;
318124;-0.048828;0.024414;0.385742;
318274;-0.044922;0.027344;0.468750;
318414;-0.041992;0.028320;0.535156;
318565;-0.033203;0.024414;0.621094;
318719;-0.029297;0.026367;0.721680;
318859;-0.027344;0.021484;0.781250;
318999;-0.025391;0.016602;0.867188;
319139;-0.024414;0.018555;0.929688;
319279;-0.021484;0.019531;1.007812;
319419;-0.016602;0.021484;1.064453;
319559;-0.008789;0.023438;1.137695;
319699;-0.001953;0.019531;1.203125;
319839;0.006836;0.019531;1.250977;
319979;0.015625;0.015625;1.313477;
320119;0.019531;0.012695;1.350586;
320259;0.026367;0.009766;1.398438;
320409;0.030273;0.009766;1.428711;
320549;0.033203;0.013672;1.473633;
320689;0.035156;0.012695;1.502930;
320814;0.036133;0.011719;1.546875;
320964;0.034180;0.015625;1.569336;
321115;0.036133;0.015625;1.608398;
321264;0.036133;0.018555;1.645508;
321414;0.036133;0.020508;1.673828;
321559;0.040039;0.024414;1.692383;
321699;0.039062;0.026367;1.714844;
321839;0.041016;0.023438;1.718750;
321979;0.038086;0.023438;1.741211;
322119;0.038086;0.025391;1.760742;
322259;0.039062;0.022461;1.780273;
322399;0.035156;0.019531;1.765625;
322539;0.035156;0.019531;1.770508;
322689;0.034180;0.017578;1.790039;
322829;0.034180;0.017578;1.796875;
322969;0.033203;0.021484;1.800781;
323109;0.036133;0.011719;1.808594;
323249;0.034180;0.006836;1.834961;
323399;0.037109;0.002930;1.870117;
323534;0.040039;0.010742;1.902344;
323674;0.036133;0.012695;1.894531;
323824;0.037109;0.027344;1.920898;
323974;0.035156;0.022461;1.923828;
324115;0.034180;0.033203;1.916016;
324269;0.033203;0.031250;1.919922;
324409;0.029297;0.031250;1.912109;
324549;0.028320;0.022461;1.897461;
324689;0.025391;0.029297;1.908203;
324829;0.024414;0.026367;1.912109;
324969;0.027344;0.023438;1.914062;
325109;0.027344;0.018555;1.935547;
325249;0.025391;0.018555;1.957031;
325389;0.028320;0.022461;1.986328;
325529;0.030273;0.016602;2.001953;
325669;0.031250;0.017578;2.026367;
325819;0.033203;0.017578;2.042969;
325959;0.035156;0.017578;2.078125;
326099;0.036133;0.009766;2.097656;
326236;0.036133;0.009766;2.121094;
326384;0.038086;0.011719;2.149414;
326534;0.037109;0.010742;2.151367;
326684;0.035156;0.010742;2.167969;
326834;0.036133;0.007812;2.160156;
326989;0.034180;0.004883;2.157227;
327129;0.035156;0.003906;2.154297;
327269;0.032227;0.004883;2.148438;
327409;0.032227;0.008789;2.150391;
327549;0.025391;0.004883;2.120117;
327699;0.023438;0.008789;2.103516;
327839;0.025391;0.010742;2.097656;
327979;0.018555;0.008789;2.069336;
328119;0.017578;0.014648;2.047852;
328259;0.014648;0.014648;2.041016;
328399;0.013672;0.016602;2.038086;
328539;0.014648;0.018555;2.048828;
328679;0.013672;0.018555;2.051758;
328819;0.014648;0.015625;2.063477;
328954;0.015625;0.011719;2.061523;
329105;0.017578;0.007812;2.075195;
329254;0.016602;0.013672;2.087891;
329404;0.016602;0.012695;2.105469;
329559;0.013672;0.011719;2.108398;
329694;0.016602;0.013672;2.115234;
329834;0.016602;0.017578;2.126953;
329989;0.017578;0.010742;2.138672;
330129;0.014648;0.005859;2.121094;
330269;0.013672;0.009766;2.118164;
330409;0.011719;0.007812;2.100586;
330559;0.008789;0.010742;2.094727;
330699;0.005859;0.008789;2.083984;
330839;0.004883;0.007812;2.063477;
330979;0.000000;0.007812;2.051758;
331119;0.000000;0.011719;2.034180;
331259;-0.001953;0.011719;2.031250;
331399;-0.002930;0.011719;2.031250;
331539;-0.004883;0.008789;2.015625;
331679;-0.005859;0.014648;2.023438;
331819;-0.005859;0.014648;2.036133;
331955;-0.008789;0.011719;2.026367;
332104;-0.007812;0.011719;2.037109;
332244;-0.007812;0.016602;2.050781;
332394;-0.007812;0.017578;2.065430;
332545;-0.005859;0.018555;2.065430;
332699;-0.006836;0.011719;2.074219;
332839;-0.001953;0.011719;2.077148;
332979;-0.000977;0.009766;2.087891;
333119;-0.000977;0.007812;2.089844;
333259;-0.002930;0.005859;2.085938;
333399;-0.002930;0.013672;2.094727;
333539;-0.004883;0.010742;2.093750;
333679;-0.003906;0.008789;2.082031;
333819;-0.001953;0.004883;2.068359;
333955;-0.000977;0.010742;2.078125;
334099;-0.006836;0.012695;2.057617;
334239;-0.004883;0.010742;2.059570;
334379;-0.002930;0.007812;2.047852;
334529;-0.006836;0.012695;2.046875;
334665;-0.006836;0.016602;2.048828;
334815;-0.007812;0.013672;2.041016;
334964;-0.004883;0.016602;2.053711;
335105;-0.006836;0.017578;2.035156;
335245;-0.005859;0.014648;2.046875;
335399;-0.006836;0.015625;2.046875;
335539;-0.006836;0.013672;2.042969;
335689;-0.006836;0.013672;2.044922;
335829;-0.004883;0.012695;2.037109;
335969;-0.005859;0.009766;2.033203;
336109;-0.006836;0.012695;2.022461;
336249;-0.005859;0.009766;2.024414;
336389;-0.003906;0.009766;2.023438;
336529;-0.006836;0.011719;2.018555;
336679;-0.003906;0.011719;2.021484;
336819;-0.006836;0.011719;2.011719;
336959;-0.005859;0.012695;2.018555;
337109;-0.003906;0.012695;2.000977;
337249;-0.002930;0.016602;2.003906;
337384;-0.003906;0.011719;1.998047;
337524;-0.004883;0.013672;1.999023;
337674;-0.003906;0.011719;1.996094;
337824;-0.002930;0.014648;2.000000;
337954;-0.003906;0.019531;1.992188;
338099;-0.002930;0.014648;1.986328;
338239;-0.001953;0.016602;1.986328;
338379;-0.001953;0.010742;1.984375;
338519;-0.001953;0.012695;1.979492;
338659;-0.000977;0.015625;1.975586;
338799;-0.001953;0.014648;1.975586;
338939;-0.002930;0.014648;1.970703;
339079;-0.000977;0.012695;1.960938;
339219;0.002930;0.012695;1.959961;
339359;0.001953;0.017578;1.959961;
339499;-0.001953;0.014648;1.947266;
339639;-0.000977;0.020508;1.950195;
339779;-0.002930;0.016602;1.942383;
339919;-0.000977;0.013672;1.928711;
340054;-0.001953;0.018555;1.920898;
340205;-0.000977;0.013672;1.914062;
340354;0.000000;0.013672;1.890625;
340505;-0.003906;0.014648;1.870117;
340654;-0.003906;0.012695;1.834961;
340799;-0.006836;0.013672;1.810547;
340939;-0.009766;0.014648;1.770508;
341089;-0.011719;0.013672;1.719727;
341229;-0.015625;0.016602;1.695312;
341369;-0.019531;0.013672;1.645508;
341509;-0.019531;0.016602;1.607422;
341649;-0.026367;0.017578;1.562500;
341789;-0.030273;0.015625;1.516602;
341929;-0.031250;0.017578;1.458008;
342069;-0.039062;0.017578;1.412109;
342209;-0.041016;0.017578;1.348633;
342349;-0.042969;0.019531;1.328125;
342489;-0.047852;0.016602;1.292969;
342629;-0.043945;0.016602;1.283203;
342765;-0.048828;0.019531;1.267578;
342914;-0.047852;0.016602;1.250977;
343065;-0.047852;0.025391;1.226562;
343214;-0.050781;0.021484;1.220703;
343364;-0.047852;0.022461;1.227539;
343519;-0.045898;0.024414;1.239258;
343659;-0.042969;0.018555;1.243164;
343799;-0.041016;0.020508;1.260742;
343939;-0.038086;0.020508;1.266602;
344089;-0.041992;0.024414;1.256836;
344239;-0.042969;0.024414;1.240234;
344379;-0.043945;0.026367;1.207031;
344519;-0.046875;0.023438;1.152344;
344669;-0.050781;0.024414;1.088867;
344809;-0.053711;0.027344;1.031250;
344949;-0.060547;0.021484;0.965820;
345099;-0.060547;0.023438;0.931641;
345239;-0.060547;0.020508;0.893555;
345379;-0.063477;0.022461;0.870117;
345514;-0.065430;0.019531;0.835938;
345664;-0.062500;0.021484;0.812500;
345814;-0.066406;0.021484;0.789062;
345955;-0.068359;0.027344;0.762695;
346104;-0.066406;0.025391;0.747070;
346259;-0.069336;0.026367;0.740234;
346409;-0.065430;0.028320;0.745117;
346549;-0.062500;0.024414;0.758789;
346689;-0.065430;0.029297;0.755859;
346829;-0.063477;0.028320;0.768555;
346969;-0.062500;0.025391;0.764648;
347109;-0.061523;0.030273;0.793945;
347249;-0.062500;0.029297;0.806641;
347389;-0.060547;0.029297;0.818359;
347539;-0.060547;0.031250;0.823242;
347679;-0.060547;0.027344;0.825195;
347819;-0.055664;0.029297;0.848633;
347969;-0.053711;0.025391;0.858398;
348109;-0.054688;0.028320;0.867188;
348245;-0.052734;0.026367;0.874023;
348394;-0.054688;0.029297;0.872070;
348534;-0.054688;0.019531;0.874023;
348675;-0.052734;0.021484;0.876953;
348815;-0.054688;0.015625;0.868164;
348964;-0.052734;0.023438;0.860352;
349119;-0.051758;0.018555;0.846680;
349259;-0.054688;0.021484;0.829102;
349399;-0.057617;0.012695;0.817383;
349539;-0.054688;0.018555;0.802734;
349679;-0.056641;0.014648;0.788086;
349819;-0.057617;0.021484;0.767578;
349959;-0.056641;0.018555;0.748047;
350099;-0.054688;0.021484;0.734375;
350239;-0.060547;0.017578;0.714844;
350379;-0.060547;0.025391;0.706055;
350519;-0.059570;0.019531;0.684570;
350659;-0.059570;0.021484;0.675781;
350799;-0.061523;0.023438;0.662109;
350939;-0.062500;0.025391;0.655273;
351074;-0.062500;0.027344;0.645508;
351224;-0.061523;0.028320;0.641602;
351365;-0.063477;0.026367;0.644531;
351514;-0.062500;0.027344;0.639648;
351664;-0.062500;0.025391;0.635742;
351819;-0.060547;0.024414;0.633789;
351959;-0.062500;0.028320;0.635742;
352099;-0.063477;0.027344;0.629883;
352239;-0.061523;0.029297;0.636719;
352379;-0.061523;0.029297;0.635742;
352519;-0.060547;0.030273;0.639648;
352659;-0.061523;0.030273;0.653320;
352799;-0.060547;0.028320;0.664062;
352939;-0.056641;0.026367;0.685547;
353079;-0.059570;0.027344;0.691406;
353214;-0.055664;0.027344;0.709961;
353359;-0.052734;0.024414;0.725586;
353499;-0.053711;0.024414;0.733398;
353639;-0.051758;0.022461;0.745117;
353774;-0.049805;0.021484;0.760742;
353924;-0.050781;0.020508;0.764648;
354074;-0.049805;0.019531;0.765625;
354224;-0.046875;0.023438;0.765625;
354375;-0.048828;0.025391;0.769531;
354529;-0.048828;0.024414;0.763672;
354669;-0.046875;0.023438;0.758789;
354809;-0.045898;0.024414;0.750977;
354959;-0.049805;0.023438;0.742188;
355099;-0.047852;0.023438;0.735352;
355239;-0.049805;0.023438;0.721680;
355375;-0.050781;0.024414;0.716797;
355529;-0.049805;0.026367;0.704102;
355669;-0.051758;0.025391;0.710938;
355809;-0.052734;0.026367;0.699219;
355949;-0.053711;0.024414;0.690430;
356089;-0.052734;0.026367;0.678711;
356229;-0.053711;0.028320;0.673828;
356369;-0.052734;0.027344;0.654297;
356505;-0.055664;0.026367;0.658203;
356634;-0.054688;0.024414;0.650391;
356786;-0.052734;0.026367;0.649414;
356924;-0.051758;0.024414;0.648438;
357074;-0.052734;0.026367;0.652344;
357216;-0.052734;0.024414;0.659180;
357369;-0.049805;0.027344;0.670898;
357509;-0.051758;0.025391;0.678711;
357649;-0.050781;0.027344;0.690430;
357789;-0.046875;0.021484;0.701172;
357929;-0.044922;0.026367;0.718750;
358069;-0.041992;0.023438;0.731445;
358219;-0.044922;0.021484;0.732422;
358359;-0.041992;0.021484;0.742188;
358500;-0.041016;0.022461;0.755859;
358649;-0.039062;0.024414;0.761719;
358789;-0.036133;0.023438;0.774414;
358929;-0.035156;0.022461;0.775391;
359069;-0.033203;0.022461;0.782227;
359219;-0.032227;0.024414;0.795898;
359364;-0.032227;0.024414;0.791016;
359504;-0.028320;0.023438;0.793945;
359654;-0.028320;0.026367;0.799805;
359804;-0.029297;0.025391;0.801758;
359944;-0.025391;0.029297;0.812500;
360099;-0.021484;0.025391;0.809570;
360239;-0.018555;0.026367;0.820312;
360379;-0.018555;0.031250;0.821289;
360519;-0.013672;0.027344;0.830078;
360659;-0.010742;0.028320;0.841797;
360799;-0.007812;0.029297;0.842773;
360939;-0.001953;0.031250;0.848633;
361089;0.001953;0.026367;0.845703;
361229;0.004883;0.029297;0.864258;
361369;0.007812;0.026367;0.866211;
361509;0.011719;0.029297;0.867188;
361649;0.012695;0.029297;0.872070;
361789;0.014648;0.026367;0.874023;
361929;0.012695;0.025391;0.884766;
362074;0.016602;0.025391;0.882812;
362215;0.017578;0.029297;0.901367;
362364;0.016602;0.027344;0.891602;
362514;0.015625;0.031250;0.905273;
362654;0.018555;0.031250;0.908203;
362794;0.016602;0.033203;0.923828;
362939;0.018555;0.026367;0.911133;
363079;0.017578;0.031250;0.919922;
363219;0.018555;0.028320;0.920898;
363359;0.016602;0.028320;0.926758;
363509;0.019531;0.027344;0.939453;
363649;0.017578;0.027344;0.934570;
363789;0.019531;0.029297;0.925781;
363939;0.016602;0.029297;0.930664;
364079;0.018555;0.027344;0.925781;
364229;0.018555;0.028320;0.921875;
364369;0.019531;0.027344;0.918945;
364509;0.020508;0.028320;0.913086;
364649;0.022461;0.026367;0.918945;
364785;0.022461;0.024414;0.927734;
364934;0.023438;0.024414;0.945312;
365085;0.028320;0.024414;0.970703;
365224;0.030273;0.022461;0.995117;
365374;0.031250;0.024414;1.024414;
365504;0.037109;0.021484;1.052734;
365659;0.039062;0.022461;1.078125;
365799;0.041992;0.025391;1.103516;
365939;0.042969;0.025391;1.134766;
366079;0.042969;0.015625;1.136719;
366219;0.043945;0.019531;1.151367;
366359;0.043945;0.019531;1.168945;
366499;0.046875;0.021484;1.170898;
366639;0.044922;0.025391;1.161133;
366779;0.045898;0.021484;1.158203;
366919;0.043945;0.019531;1.156250;
367059;0.043945;0.020508;1.154297;
367199;0.042969;0.019531;1.150391;
367339;0.041992;0.022461;1.134766;
367479;0.039062;0.026367;1.116211;
367619;0.040039;0.023438;1.118164;
367754;0.040039;0.021484;1.134766;
367905;0.038086;0.025391;1.119141;
368055;0.040039;0.023438;1.129883;
368204;0.039062;0.024414;1.127930;
368355;0.038086;0.024414;1.121094;
368494;0.040039;0.025391;1.117188;
368639;0.040039;0.025391;1.121094;
368789;0.039062;0.026367;1.112305;
368929;0.041016;0.029297;1.108398;
369069;0.041016;0.023438;1.115234;
369209;0.035156;0.023438;1.110352;
369349;0.038086;0.027344;1.112305;
369489;0.036133;0.024414;1.094727;
369629;0.036133;0.022461;1.087891;
369769;0.035156;0.026367;1.091797;
369909;0.033203;0.024414;1.098633;
370049;0.034180;0.027344;1.100586;
370189;0.034180;0.026367;1.084961;
370329;0.033203;0.026367;1.078125;
370469;0.033203;0.025391;1.080078;
370615;0.035156;0.023438;1.071289;
370754;0.032227;0.021484;1.066406;
370884;0.032227;0.024414;1.080078;
371026;0.036133;0.023438;1.072266;
371174;0.035156;0.022461;1.071289;
371319;0.029297;0.025391;1.071289;
371459;0.033203;0.022461;1.059570;
371599;0.033203;0.019531;1.048828;
371739;0.034180;0.022461;1.078125;
371879;0.031250;0.019531;1.060547;
372019;0.032227;0.020508;1.056641;
372159;0.033203;0.024414;1.068359;
372294;0.031250;0.024414;1.046875;
372439;0.031250;0.025391;1.051758;
372579;0.031250;0.022461;1.059570;
372719;0.032227;0.026367;1.043945;
372859;0.032227;0.023438;1.048828;
373009;0.030273;0.022461;1.062500;
373149;0.032227;0.025391;1.070312;
373284;0.033203;0.025391;1.077148;
373424;0.034180;0.025391;1.093750;
373574;0.035156;0.022461;1.093750;
373725;0.037109;0.026367;1.095703;
373864;0.035156;0.026367;1.115234;
374014;0.039062;0.025391;1.126953;
374159;0.037109;0.020508;1.110352;
374299;0.037109;0.023438;1.120117;
374449;0.038086;0.025391;1.146484;
374589;0.041992;0.030273;1.135742;
374729;0.039062;0.026367;1.131836;
374869;0.038086;0.025391;1.120117;
375009;0.039062;0.029297;1.109375;
375159;0.035156;0.028320;1.101562;
375299;0.033203;0.024414;1.083008;
375439;0.033203;0.024414;1.060547;
375589;0.034180;0.025391;1.068359;
375729;0.033203;0.025391;1.054688;
375879;0.031250;0.019531;1.036133;
376019;0.031250;0.023438;1.042969;
376154;0.029297;0.023438;1.029297;
376306;0.029297;0.019531;1.035156;
376444;0.028320;0.021484;1.030273;
376594;0.029297;0.024414;1.020508;
376735;0.030273;0.022461;1.038086;
376874;0.028320;0.021484;1.025391;
377014;0.032227;0.023438;1.048828;
377169;0.028320;0.023438;1.054688;
377309;0.030273;0.023438;1.036133;
377449;0.031250;0.024414;1.056641;
377589;0.030273;0.024414;1.061523;
377729;0.031250;0.025391;1.069336;
377869;0.031250;0.022461;1.066406;
378009;0.034180;0.023438;1.067383;
378149;0.031250;0.026367;1.078125;
378289;0.032227;0.023438;1.068359;
378429;0.033203;0.025391;1.080078;
378569;0.034180;0.020508;1.092773;
378709;0.036133;0.018555;1.104492;
378849;0.036133;0.020508;1.112305;
378985;0.039062;0.016602;1.112305;
379134;0.038086;0.017578;1.132812;
379275;0.041016;0.017578;1.131836;
379425;0.038086;0.015625;1.126953;
379574;0.041016;0.014648;1.143555;
379724;0.038086;0.007812;1.135742;
379859;0.040039;0.010742;1.140625;
379999;0.041016;0.011719;1.148438;
380139;0.042969;0.014648;1.134766;
380289;0.041016;0.015625;1.140625;
380429;0.041016;0.013672;1.146484;
380569;0.039062;0.012695;1.147461;
380709;0.042969;0.015625;1.138672;
380849;0.041016;0.014648;1.129883;
380989;0.041016;0.018555;1.134766;
381129;0.039062;0.018555;1.139648;
381269;0.040039;0.020508;1.144531;
381409;0.037109;0.020508;1.124023;
381549;0.036133;0.021484;1.103516;
381689;0.037109;0.023438;1.110352;
381835;0.034180;0.024414;1.088867;
381974;0.032227;0.021484;1.064453;
382115;0.033203;0.023438;1.082031;
382254;0.032227;0.022461;1.057617;
382404;0.030273;0.021484;1.047852;
382555;0.029297;0.021484;1.033203;
382709;0.029297;0.022461;1.043945;
382849;0.030273;0.022461;1.036133;
382999;0.029297;0.019531;1.023438;
383139;0.030273;0.023438;1.031250;
383280;0.029297;0.019531;1.028320;
383429;0.027344;0.019531;1.017578;
383579;0.027344;0.022461;1.022461;
383719;0.027344;0.020508;1.022461;
383859;0.027344;0.016602;1.017578;
383999;0.026367;0.021484;1.014648;
384139;0.028320;0.018555;1.003906;
384279;0.030273;0.022461;1.019531;
384419;0.028320;0.022461;1.000977;
384559;0.029297;0.017578;1.019531;
384704;0.027344;0.019531;1.017578;
384854;0.026367;0.021484;1.002930;
384995;0.027344;0.019531;1.013672;
385144;0.029297;0.022461;1.027344;
385284;0.030273;0.018555;1.013672;
385424;0.027344;0.019531;1.015625;
385569;0.029297;0.020508;1.011719;
385709;0.030273;0.020508;1.017578;
385849;0.032227;0.020508;1.020508;
385989;0.030273;0.021484;1.011719;
386129;0.028320;0.018555;1.021484;
386269;0.028320;0.017578;1.010742;
386409;0.024414;0.019531;1.016602;
386549;0.028320;0.020508;1.016602;
386689;0.026367;0.019531;1.000000;
386829;0.026367;0.018555;1.015625;
386969;0.028320;0.017578;1.006836;
387109;0.026367;0.022461;1.017578;
387249;0.028320;0.016602;1.012695;
387389;0.028320;0.022461;1.009766;
387524;0.028320;0.020508;1.013672;
387674;0.031250;0.017578;1.003906;
387816;0.030273;0.022461;1.009766;
387965;0.031250;0.023438;1.026367;
388104;0.030273;0.020508;1.012695;
388244;0.030273;0.018555;1.016602;
388389;0.026367;0.021484;1.006836;
388524;0.027344;0.022461;1.017578;
388669;0.027344;0.019531;1.009766;
388809;0.032227;0.017578;1.016602;
388949;0.030273;0.019531;1.014648;
389084;0.031250;0.022461;1.022461;
389239;0.032227;0.022461;1.025391;
389379;0.031250;0.022461;1.024414;
389519;0.031250;0.017578;1.018555;
389655;0.031250;0.022461;1.028320;
389809;0.029297;0.016602;1.015625;
389949;0.027344;0.019531;1.013672;
390089;0.028320;0.017578;1.000000;
390229;0.031250;0.021484;1.000977;
390364;0.027344;0.019531;1.005859;
390494;0.027344;0.025391;1.021484;
390634;0.026367;0.022461;1.015625;
390774;0.027344;0.021484;1.017578;
390915;0.031250;0.020508;1.027344;
391064;0.029297;0.018555;1.022461;
391214;0.033203;0.020508;1.048828;
391356;0.030273;0.021484;1.048828;
391504;0.032227;0.022461;1.041992;
391649;0.032227;0.020508;1.058594;
391784;0.032227;0.020508;1.072266;
391924;0.035156;0.022461;1.075195;
392069;0.036133;0.021484;1.083984;
392209;0.041992;0.029297;1.094727;
392349;0.038086;0.025391;1.101562;
392489;0.036133;0.024414;1.074219;
392636;0.038086;0.022461;1.085938;
392789;0.039062;0.024414;1.103516;
392929;0.041016;0.024414;1.094727;
393069;0.039062;0.019531;1.098633;
393205;0.040039;0.021484;1.090820;
393344;0.039062;0.028320;1.105469;
393499;0.040039;0.024414;1.102539;
393634;0.038086;0.021484;1.096680;
393775;0.037109;0.028320;1.105469;
393925;0.038086;0.027344;1.090820;
394064;0.033203;0.021484;1.087891;
394205;0.035156;0.023438;1.079102;
394354;0.036133;0.019531;1.056641;
394494;0.036133;0.020508;1.062500;
394624;0.032227;0.019531;1.050781;
394774;0.034180;0.020508;1.045898;
394919;0.031250;0.018555;1.036133;
395059;0.034180;0.022461;1.022461;
395199;0.026367;0.020508;1.022461;
395339;0.030273;0.018555;1.008789;
395474;0.029297;0.020508;1.017578;
395619;0.030273;0.021484;0.986328;
395759;0.027344;0.019531;0.977539;
395899;0.025391;0.021484;0.969727;
396035;0.026367;0.021484;0.974609;
396189;0.028320;0.021484;0.956055;
396329;0.025391;0.021484;0.947266;
396469;0.023438;0.021484;0.948242;
396605;0.023438;0.023438;0.939453;
396744;0.023438;0.020508;0.937500;
396884;0.025391;0.022461;0.933594;
397034;0.024414;0.021484;0.943359;
397175;0.023438;0.024414;0.953125;
397314;0.025391;0.020508;0.957031;
397465;0.028320;0.022461;1.000977;
397614;0.029297;0.017578;1.000977;
397764;0.032227;0.024414;1.026367;
397914;0.031250;0.021484;1.043945;
398064;0.034180;0.024414;1.051758;
398219;0.038086;0.021484;1.050781;
398359;0.039062;0.024414;1.082031;
398499;0.039062;0.023438;1.087891;
398639;0.038086;0.027344;1.098633;
398774;0.041016;0.025391;1.104492;
398919;0.042969;0.023438;1.116211;
399059;0.041992;0.019531;1.121094;
399199;0.044922;0.024414;1.128906;
399339;0.044922;0.025391;1.139648;
399484;0.042969;0.024414;1.136719;
399629;0.045898;0.024414;1.144531;
399769;0.045898;0.022461;1.150391;
399909;0.046875;0.021484;1.158203;
400045;0.046875;0.022461;1.147461;
400184;0.048828;0.025391;1.158203;
400334;0.043945;0.022461;1.137695;
400484;0.046875;0.026367;1.128906;
400634;0.044922;0.020508;1.126953;
400774;0.042969;0.023438;1.123047;
400924;0.042969;0.022461;1.112305;
401074;0.045898;0.022461;1.097656;
401214;0.041992;0.023438;1.100586;
401359;0.041992;0.027344;1.108398;
401499;0.041016;0.020508;1.103516;
401639;0.039062;0.022461;1.098633;
401784;0.040039;0.022461;1.087891;
401924;0.039062;0.020508;1.085938;
402069;0.040039;0.022461;1.077148;
402209;0.037109;0.024414;1.082031;
402349;0.039062;0.022461;1.072266;
402490;0.039062;0.020508;1.062500;
402639;0.036133;0.021484;1.046875;
402789;0.036133;0.022461;1.057617;
402929;0.038086;0.020508;1.042969;
403065;0.037109;0.020508;1.037109;
403204;0.035156;0.019531;1.021484;
403344;0.034180;0.020508;1.017578;
403485;0.033203;0.023438;1.001953;
403626;0.032227;0.021484;0.998047;
403774;0.031250;0.022461;0.968750;
403914;0.028320;0.017578;0.962891;
404064;0.029297;0.022461;0.975586;
404204;0.027344;0.023438;0.955078;
404359;0.027344;0.021484;0.948242;
404499;0.027344;0.023438;0.940430;
404639;0.027344;0.022461;0.942383;
404779;0.024414;0.021484;0.926758;
404924;0.024414;0.025391;0.935547;
405069;0.024414;0.021484;0.935547;
405219;0.028320;0.019531;0.937500;
405359;0.026367;0.023438;0.953125;
405494;0.030273;0.023438;0.966797;
405639;0.030273;0.021484;0.982422;
405779;0.033203;0.021484;0.982422;
405919;0.033203;0.024414;1.011719;
406059;0.039062;0.021484;1.008789;
406214;0.036133;0.023438;1.032227;
406354;0.036133;0.024414;1.043945;
406494;0.040039;0.023438;1.065430;
406645;0.037109;0.026367;1.082031;
406794;0.040039;0.024414;1.077148;
406924;0.041992;0.021484;1.102539;
407074;0.045898;0.023438;1.104492;
407214;0.047852;0.026367;1.122070;
407365;0.047852;0.019531;1.106445;
407514;0.044922;0.018555;1.109375;
407669;0.042969;0.021484;1.105469;
407809;0.045898;0.016602;1.092773;
407959;0.043945;0.018555;1.095703;
408094;0.043945;0.023438;1.074219;
408236;0.041992;0.020508;1.078125;
408389;0.042969;0.020508;1.061523;
408529;0.040039;0.019531;1.069336;
408669;0.039062;0.020508;1.058594;
408810;0.037109;0.021484;1.036133;
408954;0.037109;0.019531;1.026367;
409109;0.034180;0.020508;1.027344;
409249;0.036133;0.020508;1.000977;
409389;0.032227;0.020508;1.000000;
409524;0.032227;0.015625;0.982422;
409664;0.034180;0.022461;0.990234;
409814;0.033203;0.021484;0.989258;
409964;0.036133;0.021484;1.007812;
410114;0.032227;0.022461;0.990234;
410264;0.036133;0.018555;1.009766;
410415;0.033203;0.024414;1.011719;
410555;0.036133;0.024414;1.014648;
410704;0.038086;0.023438;1.043945;
410859;0.039062;0.025391;1.055664;
410999;0.036133;0.025391;1.064453;
411139;0.041016;0.020508;1.065430;
411279;0.042969;0.022461;1.076172;
411414;0.039062;0.021484;1.064453;
411569;0.041992;0.023438;1.081055;
411709;0.042969;0.020508;1.064453;
411849;0.044922;0.024414;1.075195;
411989;0.039062;0.020508;1.052734;
412124;0.040039;0.024414;1.059570;
412269;0.041016;0.025391;1.034180;
412419;0.037109;0.022461;1.037109;
412559;0.036133;0.023438;1.021484;
412694;0.039062;0.024414;1.021484;
412844;0.038086;0.020508;1.011719;
412985;0.033203;0.025391;1.004883;
413134;0.032227;0.024414;0.991211;
413284;0.033203;0.023438;0.987305;
413435;0.032227;0.020508;0.992188;
413574;0.033203;0.022461;0.958984;
413724;0.032227;0.019531;0.966797;
413864;0.029297;0.021484;0.962891;
414004;0.031250;0.024414;0.960938;
414149;0.032227;0.021484;0.963867;
414289;0.030273;0.019531;0.960938;
414429;0.033203;0.019531;0.969727;
414566;0.032227;0.020508;0.973633;
414709;0.033203;0.021484;0.986328;
414849;0.033203;0.020508;0.994141;
414989;0.033203;0.021484;0.999023;
415129;0.039062;0.021484;1.017578;
415264;0.040039;0.019531;1.028320;
415399;0.041016;0.023438;1.041992;
415549;0.039062;0.023438;1.051758;
415689;0.041992;0.025391;1.065430;
415825;0.042969;0.022461;1.068359;
415974;0.044922;0.021484;1.082031;
416124;0.043945;0.023438;1.084961;
416275;0.046875;0.022461;1.091797;
416424;0.046875;0.022461;1.089844;
416565;0.045898;0.021484;1.082031;
416707;0.046875;0.020508;1.080078;
416854;0.044922;0.021484;1.073242;
416996;0.041992;0.021484;1.056641;
417144;0.042969;0.020508;1.055664;
417294;0.041016;0.024414;1.041016;
417439;0.037109;0.022461;1.025391;
417589;0.037109;0.021484;1.011719;
417729;0.037109;0.024414;1.009766;
417864;0.037109;0.023438;0.996094;
418015;0.033203;0.020508;0.973633;
418159;0.034180;0.022461;0.958984;
418299;0.032227;0.024414;0.973633;
418439;0.032227;0.023438;0.969727;
418579;0.034180;0.023438;0.975586;
418715;0.034180;0.020508;0.971680;
418854;0.035156;0.024414;0.989258;
418999;0.033203;0.021484;0.987305;
419139;0.037109;0.023438;1.007812;
419274;0.038086;0.023438;1.010742;
419414;0.037109;0.022461;1.033203;
419564;0.040039;0.021484;1.035156;
419725;0.042969;0.021484;1.035156;
419875;0.039062;0.024414;1.056641;
420014;0.041992;0.022461;1.042969;
420155;0.042969;0.020508;1.061523;
420294;0.041016;0.021484;1.050781;
420444;0.041992;0.024414;1.060547;
420594;0.041992;0.024414;1.054688;
420739;0.045898;0.023438;1.079102;
420889;0.042969;0.022461;1.078125;
421024;0.044922;0.022461;1.074219;
421169;0.044922;0.021484;1.084961;
421309;0.042969;0.022461;1.074219;
421449;0.045898;0.023438;1.083984;
421584;0.044922;0.019531;1.074219;
421715;0.045898;0.026367;1.076172;
421869;0.043945;0.023438;1.066406;
422009;0.043945;0.024414;1.073242;
422159;0.041016;0.020508;1.043945;
422299;0.043945;0.023438;1.049805;
422434;0.041016;0.026367;1.037109;
422589;0.039062;0.023438;1.020508;
422715;0.040039;0.023438;1.015625;
422854;0.039062;0.023438;1.012695;
422994;0.039062;0.020508;1.013672;
423134;0.039062;0.024414;1.013672;
423274;0.037109;0.024414;0.998047;
423425;0.037109;0.025391;0.991211;
423578;0.035156;0.023438;0.986328;
423724;0.033203;0.022461;0.986328;
423879;0.035156;0.019531;0.976562;
424029;0.035156;0.022461;0.963867;
424169;0.033203;0.021484;0.966797;
424309;0.034180;0.024414;0.984375;
424455;0.035156;0.022461;0.992188;
424609;0.039062;0.029297;0.986328;
424749;0.036133;0.027344;0.999023;
424889;0.037109;0.025391;1.000000;
425024;0.037109;0.025391;1.015625;
425179;0.039062;0.020508;1.005859;
425319;0.040039;0.023438;1.024414;
425459;0.039062;0.019531;1.025391;
425604;0.039062;0.023438;1.037109;
425744;0.042969;0.024414;1.031250;
425885;0.038086;0.023438;1.024414;
426034;0.039062;0.026367;1.041016;
426184;0.045898;0.020508;1.036133;
426324;0.040039;0.026367;1.048828;
426474;0.040039;0.025391;1.044922;
426617;0.042969;0.024414;1.053711;
426754;0.042969;0.021484;1.048828;
426889;0.041016;0.022461;1.052734;
427025;0.044922;0.024414;1.051758;
427169;0.044922;0.023438;1.062500;
427319;0.043945;0.026367;1.056641;
427459;0.043945;0.027344;1.069336;
427600;0.041992;0.024414;1.050781;
427734;0.042969;0.024414;1.060547;
427879;0.042969;0.018555;1.047852;
428029;0.043945;0.024414;1.053711;
428169;0.041016;0.025391;1.034180;
428305;0.041016;0.026367;1.046875;
428459;0.043945;0.023438;1.036133;
428599;0.039062;0.025391;1.023438;
428739;0.041992;0.025391;1.017578;
428874;0.039062;0.022461;1.017578;
429014;0.041016;0.023438;1.009766;
429154;0.039062;0.026367;1.019531;
429306;0.041992;0.022461;1.011719;
429456;0.037109;0.024414;1.015625;
429594;0.036133;0.027344;1.005859;
429745;0.038086;0.022461;0.991211;
429894;0.039062;0.020508;0.997070;
430025;0.039062;0.019531;0.991211;
430169;0.037109;0.018555;0.991211;
430314;0.039062;0.022461;0.989258;
430459;0.036133;0.025391;1.007812;
430599;0.035156;0.026367;1.000000;
430734;0.038086;0.023438;0.999023;
430889;0.037109;0.021484;0.995117;
431029;0.036133;0.024414;1.000000;
431169;0.038086;0.023438;1.006836;
431304;0.039062;0.022461;1.005859;
431454;0.039062;0.019531;1.007812;
431609;0.037109;0.021484;1.017578;
431749;0.038086;0.022461;1.010742;
431889;0.041016;0.022461;1.032227;
432024;0.042969;0.020508;1.024414;
432166;0.041016;0.020508;1.041992;
432314;0.041992;0.018555;1.046875;
432464;0.043945;0.021484;1.045898;
432615;0.043945;0.021484;1.037109;
432764;0.043945;0.022461;1.042969;
432914;0.044922;0.027344;1.040039;
433044;0.042969;0.019531;1.040039;
433189;0.042969;0.018555;1.035156;
433329;0.041992;0.024414;1.042969;
433469;0.044922;0.024414;1.040039;
433610;0.043945;0.020508;1.046875;
433749;0.041992;0.021484;1.036133;
433889;0.046875;0.021484;1.045898;
434029;0.043945;0.022461;1.030273;
434170;0.042969;0.024414;1.049805;
434315;0.042969;0.021484;1.039062;
434459;0.041016;0.023438;1.043945;
434599;0.045898;0.023438;1.042969;
434739;0.046875;0.026367;1.046875;
434879;0.042969;0.026367;1.033203;
435024;0.041016;0.023438;1.039062;
435165;0.043945;0.023438;1.035156;
435314;0.043945;0.026367;1.030273;
435464;0.042969;0.024414;1.030273;
435595;0.041992;0.024414;1.028320;
435734;0.043945;0.023438;1.026367;
435864;0.041992;0.024414;1.029297;
436014;0.042969;0.024414;1.030273;
436164;0.043945;0.025391;1.032227;
436315;0.041992;0.021484;1.033203;
436459;0.043945;0.029297;1.013672;
436599;0.042969;0.025391;1.033203;
436734;0.041992;0.026367;1.025391;
436879;0.042969;0.025391;1.026367;
437019;0.040039;0.024414;1.013672;
437169;0.041016;0.020508;1.012695;
437304;0.040039;0.023438;1.012695;
437459;0.040039;0.025391;1.014648;
437599;0.041016;0.026367;1.004883;
437739;0.041992;0.023438;1.020508;
437889;0.041992;0.025391;1.006836;
438014;0.039062;0.024414;0.999023;
438169;0.038086;0.022461;0.995117;
438309;0.039062;0.026367;1.004883;
438454;0.039062;0.023438;0.993164;
438604;0.039062;0.023438;1.009766;
438734;0.039062;0.022461;0.986328;
438884;0.038086;0.021484;0.998047;
439024;0.041016;0.022461;0.998047;
439174;0.040039;0.024414;1.006836;
439314;0.040039;0.023438;0.998047;
439469;0.042969;0.023438;1.011719;
439609;0.041992;0.022461;1.004883;
439759;0.040039;0.020508;1.005859;
439899;0.041016;0.020508;1.005859;
440034;0.039062;0.020508;1.008789;
440179;0.042969;0.020508;1.015625;
440319;0.042969;0.021484;1.010742;
440459;0.044922;0.022461;1.021484;
440599;0.041992;0.021484;1.009766;
440734;0.042969;0.024414;1.028320;
440879;0.043945;0.022461;1.017578;
441019;0.042969;0.026367;1.029297;
441154;0.041992;0.023438;1.009766;
441304;0.043945;0.024414;1.023438;
441454;0.043945;0.021484;1.014648;
441604;0.044922;0.026367;1.037109;
441744;0.046875;0.026367;1.027344;
441884;0.046875;0.023438;1.013672;
442034;0.050781;0.023438;1.028320;
442184;0.049805;0.027344;1.024414;
442324;0.046875;0.029297;1.022461;
442459;0.048828;0.031250;1.033203;
442599;0.045898;0.029297;1.028320;
442739;0.046875;0.027344;1.041992;
442874;0.042969;0.029297;1.041016;
443019;0.045898;0.032227;1.032227;
443159;0.045898;0.027344;1.024414;
443299;0.041992;0.027344;1.019531;
443439;0.045898;0.027344;1.033203;
443574;0.046875;0.026367;1.045898;
443719;0.048828;0.026367;1.041016;
443859;0.045898;0.025391;1.035156;
443999;0.044922;0.025391;1.023438;
444139;0.047852;0.030273;1.041016;
444274;0.047852;0.022461;1.041016;
444404;0.046875;0.023438;1.037109;
444544;0.048828;0.025391;1.032227;
444694;0.046875;0.027344;1.042969;
444844;0.046875;0.031250;1.046875;
444984;0.046875;0.029297;1.034180;
445144;0.046875;0.030273;1.028320;
445294;0.046875;0.027344;1.025391;
445444;0.047852;0.022461;1.033203;
445599;0.045898;0.023438;1.022461;
445739;0.047852;0.027344;1.032227;
445879;0.048828;0.026367;1.022461;
446014;0.045898;0.030273;1.033203;
446169;0.045898;0.031250;1.019531;
446309;0.046875;0.032227;1.025391;
446449;0.045898;0.028320;1.020508;
446599;0.046875;0.027344;1.034180;
446734;0.047852;0.029297;1.038086;
446889;0.047852;0.028320;1.040039;
447029;0.047852;0.025391;1.039062;
447169;0.045898;0.030273;1.035156;
447304;0.046875;0.028320;1.038086;
447444;0.047852;0.025391;1.038086;
447594;0.048828;0.028320;1.038086;
447734;0.047852;0.025391;1.034180;
447874;0.047852;0.022461;1.024414;
448024;0.047852;0.023438;1.033203;
448176;0.049805;0.023438;1.047852;
448324;0.045898;0.023438;1.032227;
448474;0.045898;0.021484;1.038086;
448629;0.047852;0.018555;1.022461;
448769;0.050781;0.016602;1.029297;
448909;0.049805;0.018555;1.040039;
449045;0.047852;0.019531;1.041016;
449199;0.047852;0.020508;1.043945;
449339;0.046875;0.019531;1.030273;
449489;0.047852;0.022461;1.034180;
449629;0.045898;0.022461;1.033203;
449764;0.044922;0.024414;1.026367;
449915;0.043945;0.025391;1.009766;
450069;0.044922;0.025391;1.000977;
450209;0.044922;0.025391;1.000000;
450349;0.041992;0.028320;1.000000;
450484;0.041992;0.027344;0.996094;
450624;0.041992;0.029297;0.997070;
450764;0.041992;0.027344;0.997070;
450914;0.039062;0.027344;0.986328;
451064;0.041016;0.026367;0.988281;
451214;0.042969;0.025391;1.003906;
451364;0.042969;0.025391;1.000000;
451504;0.041016;0.026367;1.005859;
451654;0.045898;0.027344;1.019531;
451794;0.045898;0.029297;1.023438;
451929;0.041992;0.025391;1.010742;
452069;0.043945;0.028320;1.010742;
452209;0.044922;0.028320;1.015625;
452344;0.044922;0.025391;1.013672;
452489;0.043945;0.022461;1.028320;
452629;0.046875;0.024414;1.027344;
452769;0.045898;0.022461;1.024414;
452904;0.043945;0.023438;1.021484;
453049;0.045898;0.020508;1.035156;
453189;0.046875;0.026367;1.041016;
453329;0.045898;0.026367;1.024414;
453469;0.047852;0.025391;1.032227;
453606;0.044922;0.025391;1.024414;
453759;0.045898;0.023438;1.035156;
453894;0.046875;0.025391;1.034180;
454025;0.045898;0.026367;1.028320;
454174;0.047852;0.023438;1.026367;
454324;0.046875;0.025391;1.037109;
454474;0.045898;0.025391;1.022461;
454624;0.044922;0.027344;1.019531;
454765;0.047852;0.019531;1.021484;
454914;0.046875;0.026367;1.037109;
455064;0.047852;0.024414;1.026367;
455214;0.047852;0.027344;1.031250;
455359;0.044922;0.021484;1.030273;
455499;0.045898;0.024414;1.029297;
455639;0.048828;0.020508;1.025391;
455774;0.048828;0.024414;1.032227;
455924;0.047852;0.025391;1.021484;
456079;0.049805;0.023438;1.028320;
456229;0.052734;0.023438;1.035156;
456369;0.053711;0.022461;1.041016;
456506;0.051758;0.023438;1.023438;
456659;0.051758;0.025391;1.028320;
456809;0.050781;0.021484;1.032227;
456949;0.051758;0.020508;1.026367;
457094;0.052734;0.020508;1.033203;
457249;0.053711;0.021484;1.037109;
457394;0.052734;0.019531;1.049805;
457534;0.051758;0.023438;1.041992;
457684;0.050781;0.018555;1.042969;
457824;0.049805;0.020508;1.034180;
457975;0.045898;0.024414;1.047852;
458124;0.050781;0.023438;1.041992;
458274;0.049805;0.021484;1.036133;
458406;0.049805;0.023438;1.049805;
458560;0.049805;0.022461;1.042969;
458705;0.048828;0.027344;1.041016;
458859;0.046875;0.026367;1.033203;
458999;0.049805;0.026367;1.039062;
459149;0.050781;0.025391;1.038086;
459286;0.047852;0.024414;1.039062;
459425;0.048828;0.024414;1.035156;
459569;0.049805;0.023438;1.041016;
459709;0.049805;0.023438;1.045898;
459849;0.046875;0.022461;1.041016;
459989;0.049805;0.022461;1.041016;
460124;0.049805;0.018555;1.032227;
460279;0.051758;0.016602;1.041992;
460429;0.048828;0.018555;1.043945;
460564;0.048828;0.019531;1.036133;
460704;0.050781;0.021484;1.036133;
460844;0.049805;0.019531;1.039062;
460984;0.051758;0.019531;1.050781;
461124;0.050781;0.021484;1.043945;
461275;0.050781;0.023438;1.037109;
461424;0.050781;0.021484;1.045898;
461574;0.050781;0.024414;1.040039;
461719;0.047852;0.026367;1.049805;
461869;0.047852;0.023438;1.045898;
462009;0.050781;0.026367;1.056641;
462144;0.048828;0.025391;1.042969;
462294;0.051758;0.028320;1.046875;
462449;0.049805;0.025391;1.042969;
462589;0.049805;0.022461;1.037109;
462729;0.049805;0.023438;1.035156;
462864;0.053711;0.026367;1.051758;
463019;0.050781;0.025391;1.049805;
463159;0.046875;0.022461;1.044922;
463294;0.049805;0.028320;1.050781;
463454;0.047852;0.024414;1.028320;
463594;0.047852;0.025391;1.029297;
463744;0.049805;0.026367;1.039062;
463885;0.048828;0.025391;1.035156;
464034;0.048828;0.023438;1.041992;
464185;0.048828;0.022461;1.035156;
464335;0.048828;0.024414;1.031250;
464484;0.049805;0.023438;1.031250;
464629;0.047852;0.021484;1.030273;
464769;0.051758;0.021484;1.034180;
464904;0.051758;0.022461;1.033203;
465039;0.050781;0.024414;1.032227;
465179;0.047852;0.025391;1.051758;
465319;0.048828;0.027344;1.042969;
465460;0.048828;0.025391;1.042969;
465609;0.052734;0.026367;1.043945;
465759;0.049805;0.024414;1.049805;
465899;0.047852;0.027344;1.038086;
466039;0.050781;0.024414;1.043945;
466174;0.050781;0.022461;1.040039;
466309;0.052734;0.026367;1.042969;
466449;0.048828;0.021484;1.038086;
466584;0.049805;0.027344;1.042969;
466714;0.050781;0.022461;1.044922;
466864;0.050781;0.023438;1.053711;
467004;0.048828;0.024414;1.044922;
467154;0.049805;0.023438;1.033203;
467304;0.050781;0.022461;1.033203;
467444;0.048828;0.021484;1.038086;
467584;0.049805;0.024414;1.035156;
467724;0.050781;0.024414;1.031250;
467874;0.050781;0.022461;1.033203;
468014;0.051758;0.025391;1.038086;
468169;0.047852;0.026367;1.037109;
468309;0.048828;0.025391;1.030273;
468449;0.049805;0.026367;1.040039;
468584;0.051758;0.027344;1.031250;
468739;0.050781;0.026367;1.038086;
468879;0.051758;0.021484;1.041016;
469019;0.048828;0.027344;1.037109;
469154;0.048828;0.028320;1.033203;
469299;0.046875;0.024414;1.030273;
469439;0.046875;0.025391;1.022461;
469579;0.045898;0.027344;1.021484;
469729;0.046875;0.024414;1.011719;
469866;0.043945;0.024414;0.996094;
470019;0.046875;0.026367;0.997070;
470155;0.043945;0.024414;0.994141;
470304;0.042969;0.022461;0.984375;
470454;0.041992;0.023438;0.979492;
470604;0.041992;0.026367;0.970703;
470745;0.042969;0.024414;0.969727;
470894;0.041016;0.024414;0.945312;
471044;0.039062;0.025391;0.948242;
471184;0.039062;0.023438;0.939453;
471339;0.039062;0.022461;0.953125;
471479;0.038086;0.024414;0.952148;
471614;0.039062;0.025391;0.963867;
471764;0.041992;0.025391;0.961914;
471909;0.041016;0.021484;0.961914;
472049;0.041992;0.025391;0.972656;
472189;0.041016;0.020508;0.975586;
472330;0.046875;0.023438;1.000000;
472479;0.047852;0.023438;1.002930;
472619;0.047852;0.021484;1.002930;
472759;0.048828;0.022461;1.020508;
472899;0.047852;0.023438;1.029297;
473036;0.046875;0.024414;1.029297;
473189;0.049805;0.021484;1.033203;
473324;0.050781;0.019531;1.033203;
473474;0.047852;0.022461;1.039062;
473625;0.048828;0.021484;1.041016;
473774;0.051758;0.021484;1.052734;
473914;0.050781;0.022461;1.056641;
474054;0.048828;0.021484;1.053711;
474194;0.052734;0.022461;1.049805;
474335;0.049805;0.027344;1.057617;
474485;0.049805;0.021484;1.050781;
474639;0.052734;0.026367;1.044922;
474779;0.051758;0.024414;1.042969;
474919;0.050781;0.023438;1.050781;
475070;0.050781;0.020508;1.047852;
475219;0.051758;0.030273;1.051758;
475359;0.050781;0.027344;1.048828;
475499;0.047852;0.024414;1.040039;
475649;0.047852;0.025391;1.044922;
475784;0.051758;0.025391;1.049805;
475939;0.051758;0.024414;1.048828;
476079;0.050781;0.026367;1.046875;
476219;0.050781;0.023438;1.046875;
476359;0.049805;0.023438;1.044922;
476494;0.050781;0.023438;1.052734;
476644;0.051758;0.025391;1.051758;
476784;0.048828;0.026367;1.034180;
476934;0.049805;0.022461;1.037109;
477085;0.050781;0.021484;1.038086;
477234;0.048828;0.026367;1.052734;
477385;0.046875;0.026367;1.042969;
477534;0.052734;0.026367;1.049805;
477675;0.051758;0.025391;1.057617;
477814;0.048828;0.022461;1.042969;
477959;0.049805;0.024414;1.043945;
478099;0.050781;0.023438;1.047852;
478239;0.051758;0.022461;1.046875;
478390;0.050781;0.024414;1.048828;
478535;0.050781;0.025391;1.057617;
478689;0.049805;0.028320;1.054688;
478829;0.047852;0.021484;1.041016;
478969;0.049805;0.024414;1.048828;
479104;0.051758;0.024414;1.052734;
479249;0.049805;0.023438;1.039062;
479389;0.050781;0.025391;1.044922;
479529;0.048828;0.021484;1.044922;
479669;0.048828;0.023438;1.045898;
479804;0.049805;0.022461;1.048828;
479944;0.048828;0.024414;1.048828;
480084;0.046875;0.023438;1.049805;
480234;0.050781;0.024414;1.053711;
480385;0.049805;0.023438;1.035156;
480524;0.049805;0.023438;1.032227;
480674;0.048828;0.023438;1.049805;
480814;0.047852;0.025391;1.045898;
480954;0.050781;0.025391;1.050781;
481104;0.047852;0.026367;1.053711;
481259;0.048828;0.025391;1.050781;
481399;0.049805;0.023438;1.045898;
481539;0.049805;0.028320;1.046875;
481679;0.049805;0.026367;1.053711;
481814;0.047852;0.025391;1.054688;
481959;0.051758;0.027344;1.047852;
482109;0.052734;0.024414;1.061523;
482249;0.051758;0.025391;1.045898;
482389;0.052734;0.029297;1.055664;
482525;0.050781;0.027344;1.054688;
482664;0.049805;0.023438;1.046875;
482819;0.049805;0.024414;1.050781;
482959;0.050781;0.023438;1.049805;
483094;0.048828;0.026367;1.048828;
483244;0.048828;0.023438;1.039062;
483385;0.049805;0.027344;1.045898;
483534;0.048828;0.022461;1.051758;
483684;0.049805;0.023438;1.053711;
483835;0.049805;0.022461;1.056641;
483986;0.051758;0.026367;1.038086;
484124;0.050781;0.023438;1.041992;
484264;0.049805;0.024414;1.032227;
484409;0.048828;0.024414;1.041016;
484544;0.049805;0.022461;1.050781;
484699;0.049805;0.023438;1.050781;
484839;0.049805;0.028320;1.050781;
484989;0.049805;0.027344;1.051758;
485129;0.049805;0.024414;1.044922;
485274;0.048828;0.027344;1.048828;
485409;0.050781;0.022461;1.034180;
485549;0.046875;0.024414;1.040039;
485689;0.052734;0.025391;1.047852;
485829;0.048828;0.029297;1.042969;
485965;0.049805;0.027344;1.053711;
486109;0.050781;0.029297;1.043945;
486249;0.048828;0.024414;1.044922;
486384;0.047852;0.021484;1.037109;
486515;0.049805;0.023438;1.041016;
486664;0.051758;0.024414;1.041016;
486804;0.048828;0.024414;1.041016;
486954;0.048828;0.026367;1.025391;
487104;0.049805;0.025391;1.035156;
487254;0.047852;0.023438;1.034180;
487394;0.048828;0.025391;1.042969;
487544;0.049805;0.030273;1.029297;
487689;0.046875;0.031250;1.036133;
487829;0.047852;0.030273;1.035156;
487969;0.044922;0.030273;1.030273;
488110;0.049805;0.029297;1.040039;
488264;0.048828;0.029297;1.025391;
488419;0.047852;0.029297;1.032227;
488559;0.048828;0.030273;1.030273;
488699;0.044922;0.030273;1.035156;
488844;0.047852;0.024414;1.032227;
488984;0.047852;0.028320;1.022461;
489149;0.046875;0.021484;1.025391;
489289;0.046875;0.025391;1.023438;
489429;0.046875;0.023438;1.033203;
489565;0.046875;0.022461;1.029297;
489705;0.048828;0.020508;1.033203;
489854;0.050781;0.019531;1.028320;
490004;0.049805;0.019531;1.030273;
490135;0.050781;0.022461;1.026367;
490285;0.049805;0.021484;1.028320;
490434;0.048828;0.019531;1.024414;
490574;0.048828;0.020508;1.029297;
490724;0.048828;0.022461;1.039062;
490869;0.046875;0.024414;1.039062;
491009;0.046875;0.025391;1.036133;
491149;0.047852;0.027344;1.035156;
491289;0.046875;0.024414;1.033203;
491424;0.046875;0.027344;1.039062;
491569;0.050781;0.026367;1.032227;
491709;0.048828;0.028320;1.041992;
491849;0.050781;0.026367;1.041992;
491994;0.051758;0.022461;1.041992;
492134;0.050781;0.027344;1.042969;
492279;0.048828;0.027344;1.041016;
492419;0.050781;0.025391;1.046875;
492559;0.051758;0.025391;1.050781;
492694;0.051758;0.025391;1.050781;
492824;0.051758;0.025391;1.052734;
492964;0.049805;0.027344;1.037109;
493114;0.049805;0.027344;1.041016;
493254;0.048828;0.025391;1.032227;
493404;0.046875;0.024414;1.023438;
493554;0.047852;0.023438;1.026367;
493694;0.046875;0.026367;1.016602;
493834;0.045898;0.026367;1.009766;
493984;0.043945;0.024414;0.986328;
494129;0.044922;0.028320;0.986328;
494269;0.045898;0.028320;0.979492;
494405;0.042969;0.029297;0.982422;
494539;0.042969;0.029297;0.974609;
494689;0.041992;0.026367;0.974609;
494829;0.043945;0.025391;0.977539;
494974;0.041992;0.026367;0.986328;
495124;0.043945;0.029297;0.994141;
495259;0.042969;0.028320;1.007812;
495409;0.043945;0.026367;1.013672;
495549;0.045898;0.030273;1.017578;
495700;0.046875;0.019531;1.020508;
495855;0.049805;0.023438;1.036133;
496009;0.051758;0.024414;1.053711;
496144;0.052734;0.026367;1.055664;
496294;0.050781;0.024414;1.046875;
496445;0.051758;0.022461;1.049805;
496585;0.054688;0.024414;1.061523;
496725;0.051758;0.022461;1.061523;
496874;0.051758;0.020508;1.061523;
497014;0.054688;0.023438;1.070312;
497165;0.053711;0.023438;1.074219;
497319;0.052734;0.021484;1.082031;
497454;0.051758;0.023438;1.076172;
497599;0.055664;0.025391;1.066406;
497749;0.053711;0.022461;1.070312;
497889;0.054688;0.026367;1.077148;
498034;0.054688;0.023438;1.070312;
498165;0.055664;0.022461;1.067383;
498319;0.053711;0.025391;1.073242;
498459;0.055664;0.023438;1.067383;
498599;0.053711;0.028320;1.075195;
498739;0.053711;0.029297;1.080078;
498874;0.052734;0.025391;1.068359;
499019;0.051758;0.024414;1.065430;
499159;0.054688;0.024414;1.071289;
499299;0.053711;0.026367;1.067383;
499434;0.053711;0.025391;1.072266;
499584;0.052734;0.027344;1.062500;
499724;0.053711;0.025391;1.073242;
499874;0.055664;0.027344;1.065430;
500024;0.051758;0.026367;1.064453;
500174;0.055664;0.021484;1.065430;
500315;0.053711;0.026367;1.055664;
500454;0.054688;0.026367;1.063477;
500589;0.055664;0.026367;1.060547;
500729;0.054688;0.024414;1.056641;
500869;0.052734;0.022461;1.071289;
501009;0.053711;0.023438;1.065430;
501144;0.053711;0.026367;1.075195;
501299;0.052734;0.027344;1.069336;
501439;0.052734;0.023438;1.059570;
501579;0.053711;0.026367;1.067383;
501774;0.055664;0.019531;1.068359;
501989;0.052734;0.024414;1.067383;
502199;0.052734;0.022461;1.067383;
502409;0.053711;0.023438;1.062500;
502624;0.053711;0.025391;1.053711;
502855;0.056641;0.027344;1.062500;
503085;0.054688;0.029297;1.072266;
503309;0.054688;0.023438;1.069336;
503529;0.055664;0.025391;1.062500;
503749;0.055664;0.022461;1.074219;
503959;0.054688;0.028320;1.065430;
504179;0.053711;0.025391;1.058594;
504389;0.052734;0.030273;1.078125;
504609;0.052734;0.026367;1.064453;
504824;0.056641;0.023438;1.061523;
505039;0.051758;0.023438;1.063477;
505259;0.054688;0.023438;1.062500;
505479;0.052734;0.022461;1.059570;
505689;0.055664;0.023438;1.073242;
505894;0.054688;0.028320;1.060547;
506109;0.053711;0.024414;1.059570;
506324;0.057617;0.021484;1.067383;
506545;0.055664;0.022461;1.058594;
506764;0.051758;0.025391;1.030273;
506974;0.048828;0.024414;1.012695;
507204;0.044922;0.023438;0.979492;
507424;0.042969;0.022461;0.940430;
507649;0.041016;0.025391;0.942383;
507869;0.039062;0.026367;0.915039;
508079;0.036133;0.029297;0.898438;
508289;0.036133;0.027344;0.898438;
508509;0.036133;0.023438;0.885742;
508719;0.032227;0.027344;0.875000;
508939;0.034180;0.023438;0.875000;
509149;0.035156;0.025391;0.889648;
509359;0.035156;0.027344;0.888672;
509569;0.036133;0.024414;0.907227;
509779;0.038086;0.026367;0.916016;
509989;0.038086;0.025391;0.917969;
510199;0.038086;0.027344;0.944336;
510419;0.041992;0.021484;0.950195;
510634;0.041992;0.025391;0.964844;
510844;0.043945;0.027344;0.986328;
511065;0.045898;0.024414;0.990234;
511285;0.049805;0.027344;1.017578;
511515;0.048828;0.024414;1.029297;
511739;0.054688;0.025391;1.049805;
511959;0.054688;0.023438;1.070312;
512179;0.056641;0.025391;1.072266;
512395;0.056641;0.026367;1.080078;
512619;0.058594;0.025391;1.076172;
512829;0.056641;0.029297;1.074219;
513039;0.059570;0.026367;1.094727;
513249;0.057617;0.026367;1.086914;
513459;0.058594;0.027344;1.083008;
513679;0.057617;0.025391;1.090820;
513889;0.057617;0.025391;1.076172;
514109;0.056641;0.024414;1.079102;
514329;0.057617;0.023438;1.074219;
514534;0.059570;0.025391;1.070312;
514765;0.056641;0.031250;1.088867;
514985;0.058594;0.026367;1.084961;
515214;0.056641;0.027344;1.073242;
515449;0.055664;0.023438;1.070312;
515669;0.056641;0.026367;1.075195;
515879;0.056641;0.021484;1.078125;
516099;0.056641;0.026367;1.071289;
516319;0.057617;0.026367;1.062500;
516539;0.056641;0.025391;1.068359;
516759;0.055664;0.025391;1.069336;
516969;0.056641;0.027344;1.060547;
517179;0.056641;0.029297;1.072266;
517389;0.055664;0.025391;1.052734;
517609;0.055664;0.026367;1.048828;
517819;0.053711;0.027344;1.058594;
518029;0.053711;0.026367;1.050781;
518244;0.053711;0.027344;1.048828;
518474;0.052734;0.029297;1.055664;
518685;0.057617;0.023438;1.053711;
518894;0.051758;0.023438;1.043945;
519119;0.053711;0.025391;1.034180;
519339;0.052734;0.025391;1.037109;
519549;0.049805;0.025391;1.014648;
519769;0.049805;0.025391;1.018555;
519989;0.048828;0.022461;0.993164;
520209;0.045898;0.023438;0.973633;
520419;0.045898;0.023438;0.955078;
520634;0.041016;0.023438;0.935547;
520839;0.041016;0.024414;0.927734;
521059;0.038086;0.023438;0.914062;
521269;0.038086;0.025391;0.897461;
521479;0.036133;0.025391;0.893555;
521699;0.035156;0.024414;0.888672;
521909;0.037109;0.025391;0.891602;
522125;0.038086;0.028320;0.910156;
522354;0.038086;0.025391;0.929688;
522575;0.042969;0.026367;0.958984;
522794;0.045898;0.027344;0.980469;
522999;0.047852;0.027344;1.011719;
523219;0.049805;0.027344;1.028320;
523439;0.051758;0.026367;1.036133;
523659;0.056641;0.021484;1.064453;
523879;0.055664;0.022461;1.077148;
524089;0.059570;0.024414;1.073242;
524299;0.057617;0.025391;1.097656;
524509;0.057617;0.024414;1.093750;
524730;0.056641;0.025391;1.090820;
524949;0.057617;0.023438;1.096680;
525169;0.057617;0.023438;1.088867;
525389;0.058594;0.029297;1.085938;
525599;0.060547;0.027344;1.085938;
525804;0.056641;0.025391;1.083008;
526014;0.057617;0.024414;1.076172;
526234;0.059570;0.029297;1.081055;
526455;0.057617;0.023438;1.063477;
526689;0.059570;0.024414;1.063477;
526899;0.056641;0.025391;1.058594;
527109;0.055664;0.026367;1.068359;
527329;0.055664;0.028320;1.055664;
527539;0.052734;0.026367;1.066406;
527759;0.055664;0.026367;1.061523;
527979;0.055664;0.027344;1.057617;
528189;0.051758;0.024414;1.050781;
528409;0.051758;0.026367;1.034180;
528619;0.047852;0.026367;1.009766;
528824;0.047852;0.026367;1.006836;
529039;0.043945;0.022461;0.978516;
529249;0.042969;0.026367;0.954102;
529459;0.042969;0.025391;0.942383;
529674;0.040039;0.022461;0.936523;
529896;0.041016;0.027344;0.929688;
530114;0.039062;0.028320;0.930664;
530349;0.038086;0.021484;0.919922;
530559;0.040039;0.027344;0.913086;
530769;0.035156;0.028320;0.913086;
530989;0.039062;0.025391;0.928711;
531199;0.040039;0.026367;0.932617;
531419;0.040039;0.027344;0.952148;
531639;0.042969;0.024414;0.958984;
531849;0.042969;0.028320;0.975586;
532059;0.047852;0.022461;0.990234;
532269;0.049805;0.025391;1.006836;
532489;0.047852;0.025391;1.000977;
532709;0.051758;0.024414;1.024414;
532929;0.048828;0.026367;1.032227;
533139;0.054688;0.025391;1.039062;
533355;0.054688;0.024414;1.061523;
533574;0.052734;0.024414;1.067383;
533804;0.054688;0.024414;1.051758;
534024;0.054688;0.025391;1.052734;
534249;0.054688;0.028320;1.047852;
534459;0.051758;0.028320;1.024414;
534679;0.048828;0.030273;1.008789;
534889;0.044922;0.031250;0.985352;
535099;0.041992;0.032227;0.968750;
535319;0.041016;0.031250;0.950195;
535529;0.040039;0.023438;0.931641;
535739;0.036133;0.027344;0.915039;
535959;0.037109;0.027344;0.910156;
536169;0.037109;0.025391;0.926758;
536389;0.041016;0.025391;0.932617;
536609;0.043945;0.024414;0.958008;
536829;0.044922;0.025391;0.984375;
537035;0.046875;0.021484;1.000977;
537265;0.047852;0.026367;1.032227;
537476;0.050781;0.024414;1.063477;
537694;0.057617;0.020508;1.072266;
537909;0.059570;0.019531;1.094727;
538119;0.059570;0.019531;1.118164;
538339;0.058594;0.021484;1.118164;
538559;0.063477;0.026367;1.120117;
538779;0.061523;0.024414;1.116211;
538989;0.062500;0.023438;1.127930;
539199;0.060547;0.020508;1.102539;
539419;0.060547;0.025391;1.098633;
539639;0.057617;0.026367;1.092773;
539849;0.057617;0.027344;1.079102;
540069;0.054688;0.028320;1.065430;
540289;0.053711;0.028320;1.050781;
540499;0.050781;0.025391;1.037109;
540709;0.048828;0.029297;1.047852;
540914;0.048828;0.024414;1.032227;
541124;0.048828;0.025391;1.034180;
541344;0.048828;0.021484;1.041992;
541579;0.050781;0.024414;1.047852;
541799;0.049805;0.023438;1.048828;
542009;0.051758;0.024414;1.057617;
542229;0.052734;0.021484;1.061523;
542440;0.052734;0.024414;1.069336;
542669;0.052734;0.028320;1.064453;
542879;0.052734;0.025391;1.058594;
543099;0.051758;0.024414;1.053711;
543309;0.048828;0.027344;1.035156;
543529;0.051758;0.025391;1.042969;
543749;0.047852;0.025391;1.031250;
543969;0.046875;0.022461;1.011719;
544179;0.044922;0.024414;1.004883;
544389;0.046875;0.022461;0.995117;
544605;0.044922;0.025391;0.995117;
544834;0.041992;0.029297;0.998047;
545054;0.044922;0.029297;1.001953;
545279;0.043945;0.031250;1.001953;
545485;0.044922;0.030273;1.017578;
545699;0.047852;0.027344;1.029297;
545909;0.046875;0.024414;1.023438;
546129;0.049805;0.026367;1.041992;
546339;0.051758;0.024414;1.052734;
546559;0.052734;0.023438;1.051758;
546779;0.053711;0.025391;1.058594;
546999;0.052734;0.023438;1.068359;
547209;0.055664;0.026367;1.063477;
547429;0.056641;0.027344;1.065430;
547639;0.056641;0.028320;1.073242;
547849;0.054688;0.031250;1.067383;
548059;0.053711;0.031250;1.066406;
548274;0.049805;0.030273;1.057617;
548504;0.051758;0.033203;1.067383;
548724;0.047852;0.031250;1.040039;
548959;0.048828;0.032227;1.051758;
549179;0.044922;0.030273;1.029297;
549389;0.045898;0.031250;1.029297;
549609;0.044922;0.029297;1.022461;
549829;0.048828;0.023438;1.015625;
550039;0.045898;0.027344;1.012695;
550259;0.049805;0.022461;1.026367;
550469;0.044922;0.024414;1.007812;
550689;0.045898;0.024414;1.026367;
550909;0.045898;0.026367;1.018555;
551129;0.043945;0.021484;1.013672;
551339;0.045898;0.025391;1.007812;
551549;0.047852;0.029297;1.011719;
551769;0.044922;0.030273;1.014648;
551985;0.045898;0.031250;1.021484;
552219;0.045898;0.027344;1.014648;
552434;0.047852;0.024414;1.026367;
552649;0.045898;0.032227;1.036133;
552859;0.047852;0.027344;1.052734;
553069;0.048828;0.034180;1.057617;
553279;0.048828;0.030273;1.053711;
553499;0.052734;0.028320;1.066406;
553719;0.051758;0.023438;1.070312;
553939;0.053711;0.029297;1.071289;
554149;0.054688;0.027344;1.072266;
554369;0.051758;0.029297;1.080078;
554579;0.052734;0.028320;1.078125;
554799;0.053711;0.027344;1.085938;
555019;0.054688;0.026367;1.083984;
555229;0.054688;0.025391;1.083984;
555445;0.053711;0.024414;1.073242;
555664;0.055664;0.023438;1.078125;
555884;0.052734;0.028320;1.070312;
556105;0.052734;0.031250;1.076172;
556319;0.049805;0.028320;1.057617;
556529;0.053711;0.031250;1.063477;
556749;0.049805;0.028320;1.039062;
556959;0.050781;0.029297;1.051758;
557179;0.048828;0.033203;1.040039;
557399;0.049805;0.027344;1.027344;
557609;0.048828;0.027344;1.028320;
557819;0.047852;0.032227;1.040039;
558029;0.046875;0.033203;1.033203;
558239;0.044922;0.028320;1.031250;
558459;0.048828;0.027344;1.041992;
558679;0.047852;0.029297;1.042969;
558899;0.050781;0.030273;1.051758;
559119;0.052734;0.029297;1.054688;
559324;0.051758;0.026367;1.054688;
559544;0.048828;0.029297;1.043945;
559774;0.047852;0.027344;1.053711;
560009;0.048828;0.024414;1.040039;
560229;0.048828;0.030273;1.036133;
560449;0.050781;0.030273;1.030273;
560659;0.050781;0.028320;1.038086;
560869;0.047852;0.025391;1.030273;
561089;0.045898;0.032227;1.030273;
561309;0.046875;0.031250;1.022461;
561519;0.048828;0.028320;1.026367;
561729;0.047852;0.030273;1.020508;
561949;0.051758;0.031250;1.044922;
562169;0.050781;0.027344;1.034180;
562389;0.049805;0.027344;1.049805;
562599;0.046875;0.028320;1.041992;
562809;0.051758;0.027344;1.065430;
563025;0.051758;0.025391;1.064453;
563234;0.052734;0.027344;1.072266;
563455;0.052734;0.031250;1.068359;
563669;0.055664;0.024414;1.077148;
563889;0.052734;0.027344;1.074219;
564099;0.053711;0.028320;1.069336;
564309;0.052734;0.028320;1.070312;
564519;0.049805;0.032227;1.067383;
564729;0.053711;0.028320;1.066406;
564949;0.051758;0.026367;1.060547;
565159;0.054688;0.029297;1.073242;
565379;0.051758;0.027344;1.066406;
565589;0.053711;0.027344;1.071289;
565794;0.053711;0.030273;1.069336;
566009;0.052734;0.029297;1.073242;
566229;0.052734;0.030273;1.073242;
566439;0.054688;0.028320;1.073242;
566645;0.055664;0.027344;1.071289;
566876;0.054688;0.024414;1.078125;
567094;0.055664;0.026367;1.083008;
567325;0.056641;0.026367;1.070312;
567549;0.052734;0.031250;1.071289;
567769;0.052734;0.027344;1.054688;
567979;0.050781;0.026367;1.048828;
568189;0.050781;0.026367;1.027344;
568399;0.047852;0.027344;1.027344;
568619;0.048828;0.030273;1.017578;
568829;0.047852;0.031250;1.020508;
569039;0.046875;0.032227;1.009766;
569259;0.046875;0.028320;1.013672;
569469;0.043945;0.029297;1.000977;
569679;0.046875;0.032227;1.010742;
569889;0.048828;0.035156;1.010742;
570099;0.048828;0.030273;1.003906;
570319;0.047852;0.029297;1.008789;
570535;0.046875;0.031250;1.012695;
570754;0.048828;0.028320;1.015625;
570984;0.047852;0.027344;1.015625;
571209;0.046875;0.023438;1.022461;
571429;0.047852;0.027344;1.029297;
571649;0.050781;0.028320;1.043945;
571869;0.049805;0.029297;1.036133;
572089;0.052734;0.021484;1.043945;
572299;0.049805;0.025391;1.029297;
572509;0.052734;0.026367;1.041992;
572719;0.049805;0.029297;1.042969;
572929;0.050781;0.032227;1.041016;
573149;0.050781;0.031250;1.040039;
573369;0.053711;0.030273;1.054688;
573589;0.050781;0.033203;1.050781;
573809;0.055664;0.031250;1.071289;
574019;0.053711;0.032227;1.062500;
574224;0.054688;0.030273;1.066406;
574449;0.055664;0.032227;1.073242;
574654;0.054688;0.031250;1.073242;
574865;0.056641;0.031250;1.078125;
575079;0.055664;0.030273;1.078125;
575289;0.060547;0.028320;1.082031;
575499;0.057617;0.029297;1.091797;
575709;0.059570;0.028320;1.093750;
575929;0.055664;0.028320;1.083008;
576149;0.057617;0.026367;1.083984;
576359;0.056641;0.033203;1.085938;
576579;0.057617;0.029297;1.078125;
576789;0.060547;0.030273;1.083984;
576999;0.059570;0.028320;1.079102;
577219;0.058594;0.027344;1.082031;
577429;0.058594;0.031250;1.080078;
577649;0.060547;0.029297;1.088867;
577869;0.057617;0.029297;1.083008;
578085;0.056641;0.032227;1.073242;
578306;0.057617;0.028320;1.053711;
578535;0.055664;0.032227;1.060547;
578759;0.053711;0.035156;1.035156;
578979;0.053711;0.032227;1.034180;
579199;0.050781;0.036133;1.023438;
579409;0.052734;0.036133;1.034180;
579619;0.051758;0.037109;1.018555;
579839;0.050781;0.039062;1.012695;
580049;0.049805;0.037109;1.014648;
580259;0.049805;0.032227;1.005859;
580479;0.051758;0.034180;1.015625;
580699;0.052734;0.030273;1.003906;
580909;0.052734;0.033203;1.016602;
581120;0.053711;0.027344;1.019531;
581349;0.053711;0.023438;1.025391;
581569;0.054688;0.025391;1.033203;
581784;0.057617;0.026367;1.038086;
582005;0.058594;0.028320;1.051758;
582224;0.058594;0.023438;1.062500;
582449;0.058594;0.028320;1.067383;
582659;0.059570;0.022461;1.063477;
582869;0.062500;0.023438;1.079102;
583079;0.058594;0.023438;1.080078;
583289;0.062500;0.023438;1.075195;
583509;0.059570;0.023438;1.067383;
583719;0.064453;0.023438;1.084961;
583934;0.062500;0.027344;1.084961;
584149;0.061523;0.023438;1.080078;
584359;0.062500;0.022461;1.083008;
584569;0.060547;0.024414;1.069336;
584789;0.064453;0.022461;1.080078;
585009;0.061523;0.023438;1.065430;
585215;0.069336;0.021484;1.080078;
585435;0.075195;0.021484;1.083008;
585644;0.078125;0.023438;1.074219;
585874;0.081055;0.021484;1.094727;
586089;0.083008;0.018555;1.099609;
586309;0.083984;0.022461;1.121094;
586519;0.085938;0.017578;1.133789;
586729;0.085938;0.020508;1.148438;
586949;0.089844;0.024414;1.158203;
587159;0.093750;0.024414;1.182617;
587369;0.093750;0.023438;1.190430;
587579;0.093750;0.021484;1.197266;
587789;0.093750;0.025391;1.195312;
588004;0.091797;0.024414;1.196289;
588229;0.091797;0.027344;1.188477;
588449;0.093750;0.029297;1.194336;
588659;0.092773;0.028320;1.193359;
588869;0.094727;0.025391;1.180664;
589094;0.092773;0.027344;1.174805;
589314;0.094727;0.023438;1.168945;
589534;0.087891;0.023438;1.149414;
589769;0.091797;0.021484;1.146484;
589979;0.089844;0.016602;1.140625;
590199;0.087891;0.019531;1.134766;
590409;0.086914;0.018555;1.120117;
590629;0.084961;0.022461;1.121094;
590839;0.083984;0.021484;1.109375;
591059;0.082031;0.021484;1.116211;
591269;0.084961;0.018555;1.115234;
591479;0.085938;0.019531;1.130859;
591699;0.087891;0.022461;1.150391;
591909;0.086914;0.014648;1.155273;
592129;0.087891;0.019531;1.175781;
592339;0.092773;0.022461;1.189453;
592559;0.091797;0.022461;1.198242;
592774;0.090820;0.020508;1.193359;
593004;0.094727;0.025391;1.192383;
593224;0.093750;0.023438;1.194336;
593449;0.095703;0.022461;1.190430;
593659;0.094727;0.024414;1.194336;
593879;0.095703;0.023438;1.186523;
594099;0.092773;0.022461;1.178711;
594309;0.089844;0.022461;1.167969;
594519;0.090820;0.015625;1.162109;
594729;0.090820;0.017578;1.153320;
594939;0.091797;0.020508;1.149414;
595149;0.091797;0.020508;1.163086;
595359;0.093750;0.015625;1.164062;
595569;0.094727;0.019531;1.180664;
595789;0.096680;0.018555;1.188477;
596009;0.096680;0.019531;1.192383;
596219;0.094727;0.019531;1.196289;
596424;0.096680;0.019531;1.206055;
596644;0.100586;0.022461;1.209961;
596854;0.094727;0.023438;1.208008;
597074;0.097656;0.024414;1.219727;
597289;0.097656;0.018555;1.210938;
597499;0.094727;0.022461;1.217773;
597709;0.096680;0.021484;1.213867;
597919;0.098633;0.023438;1.221680;
598129;0.096680;0.019531;1.215820;
598349;0.098633;0.017578;1.219727;
598569;0.094727;0.019531;1.217773;
598779;0.096680;0.016602;1.216797;
598989;0.097656;0.016602;1.220703;
599210;0.095703;0.020508;1.223633;
599439;0.099609;0.017578;1.224609;
599649;0.097656;0.016602;1.218750;
599859;0.098633;0.019531;1.225586;
600069;0.098633;0.018555;1.218750;
600274;0.098633;0.019531;1.207031;
600494;0.096680;0.017578;1.204102;
600724;0.095703;0.018555;1.192383;
600959;0.091797;0.017578;1.180664;
601169;0.091797;0.020508;1.166992;
601379;0.091797;0.021484;1.162109;
601599;0.085938;0.020508;1.143555;
601819;0.084961;0.021484;1.138672;
602029;0.079102;0.023438;1.118164;
602239;0.081055;0.022461;1.119141;
602449;0.083008;0.023438;1.123047;
602659;0.078125;0.020508;1.114258;
602879;0.081055;0.020508;1.107422;
603089;0.082031;0.019531;1.125000;
603309;0.081055;0.019531;1.123047;
603519;0.081055;0.016602;1.127930;
603729;0.079102;0.023438;1.128906;
603954;0.081055;0.019531;1.120117;
604186;0.083008;0.018555;1.135742;
604414;0.089844;0.018555;1.148438;
604649;0.087891;0.016602;1.168945;
604869;0.094727;0.015625;1.177734;
605079;0.092773;0.013672;1.180664;
605299;0.090820;0.016602;1.183594;
605509;0.091797;0.015625;1.187500;
605729;0.086914;0.024414;1.187500;
605939;0.088867;0.016602;1.181641;
606159;0.086914;0.021484;1.173828;
606369;0.084961;0.019531;1.166016;
606589;0.084961;0.020508;1.162109;
606799;0.082031;0.020508;1.150391;
607009;0.081055;0.016602;1.143555;
607219;0.081055;0.020508;1.140625;
607439;0.081055;0.022461;1.126953;
607654;0.082031;0.019531;1.133789;
607864;0.079102;0.019531;1.126953;
608074;0.080078;0.021484;1.128906;
608299;0.077148;0.020508;1.119141;
608519;0.083984;0.014648;1.125977;
608739;0.082031;0.019531;1.122070;
608949;0.083008;0.017578;1.129883;
609159;0.084961;0.016602;1.129883;
609379;0.082031;0.017578;1.130859;
609590;0.083008;0.019531;1.128906;
609809;0.081055;0.015625;1.128906;
610019;0.081055;0.016602;1.138672;
610229;0.081055;0.014648;1.134766;
610449;0.077148;0.019531;1.132812;
610669;0.077148;0.018555;1.132812;
610889;0.077148;0.019531;1.125977;
611109;0.078125;0.019531;1.132812;
611324;0.078125;0.020508;1.125977;
611556;0.076172;0.017578;1.127930;
611764;0.083984;0.019531;1.138672;
611984;0.081055;0.020508;1.140625;
612209;0.083008;0.018555;1.144531;
612429;0.083984;0.018555;1.140625;
612639;0.083008;0.017578;1.142578;
612859;0.083984;0.016602;1.158203;
613079;0.082031;0.022461;1.147461;
613289;0.083008;0.021484;1.143555;
613509;0.082031;0.020508;1.151367;
613729;0.080078;0.019531;1.142578;
613949;0.079102;0.016602;1.134766;
614159;0.079102;0.017578;1.138672;
614369;0.077148;0.019531;1.143555;
614589;0.078125;0.019531;1.125000;
614799;0.077148;0.019531;1.132812;
615014;0.078125;0.018555;1.136719;
615224;0.079102;0.020508;1.142578;
615455;0.080078;0.018555;1.150391;
615674;0.084961;0.016602;1.156250;
615909;0.085938;0.015625;1.166016;
616129;0.087891;0.014648;1.160156;
616339;0.084961;0.015625;1.161133;
616549;0.083984;0.019531;1.169922;
616759;0.083984;0.014648;1.161133;
616969;0.082031;0.021484;1.161133;
617189;0.080078;0.018555;1.156250;
617409;0.079102;0.018555;1.152344;
617619;0.078125;0.018555;1.142578;
617829;0.079102;0.019531;1.148438;
618049;0.079102;0.021484;1.138672;
618265;0.080078;0.021484;1.128906;
618489;0.080078;0.020508;1.134766;
618704;0.079102;0.019531;1.126953;
618935;0.080078;0.017578;1.129883;
619164;0.078125;0.020508;1.125000;
619385;0.076172;0.016602;1.115234;
619609;0.071289;0.021484;1.113281;
619829;0.071289;0.022461;1.105469;
620049;0.071289;0.019531;1.092773;
620259;0.069336;0.023438;1.099609;
620479;0.069336;0.021484;1.087891;
620699;0.069336;0.020508;1.093750;
620909;0.072266;0.017578;1.086914;
621119;0.072266;0.019531;1.086914;
621329;0.070312;0.016602;1.084961;
621549;0.072266;0.017578;1.085938;
621759;0.073242;0.016602;1.090820;
621980;0.074219;0.017578;1.091797;
622209;0.076172;0.015625;1.099609;
622420;0.075195;0.014648;1.107422;
622654;0.072266;0.019531;1.106445;
622884;0.071289;0.020508;1.117188;
623094;0.072266;0.019531;1.110352;
623319;0.071289;0.019531;1.106445;
623529;0.073242;0.020508;1.112305;
623739;0.075195;0.016602;1.111328;
623949;0.075195;0.017578;1.116211;
624169;0.078125;0.015625;1.111328;
624389;0.075195;0.019531;1.117188;
624599;0.074219;0.020508;1.114258;
624819;0.079102;0.019531;1.118164;
625029;0.078125;0.018555;1.119141;
625249;0.075195;0.016602;1.121094;
625459;0.075195;0.018555;1.118164;
625669;0.074219;0.015625;1.114258;
625879;0.074219;0.023438;1.113281;
626089;0.073242;0.016602;1.112305;
626305;0.077148;0.020508;1.116211;
626514;0.070312;0.021484;1.108398;
626744;0.072266;0.021484;1.112305;
626979;0.071289;0.021484;1.105469;
627199;0.073242;0.018555;1.111328;
627409;0.069336;0.021484;1.104492;
627619;0.071289;0.019531;1.105469;
627839;0.075195;0.017578;1.112305;
628059;0.077148;0.018555;1.130859;
628279;0.074219;0.016602;1.118164;
628489;0.074219;0.019531;1.115234;
628709;0.070312;0.018555;1.099609;
628929;0.073242;0.020508;1.113281;
629139;0.068359;0.017578;1.101562;
629359;0.070312;0.021484;1.098633;
629579;0.067383;0.019531;1.096680;
629799;0.068359;0.022461;1.100586;
630014;0.071289;0.017578;1.083008;
630245;0.066406;0.016602;1.073242;
630464;0.073242;0.018555;1.092773;
630689;0.073242;0.015625;1.093750;
630919;0.074219;0.014648;1.089844;
631139;0.072266;0.017578;1.092773;
631349;0.073242;0.020508;1.097656;
631569;0.067383;0.020508;1.086914;
631789;0.068359;0.018555;1.088867;
632009;0.067383;0.020508;1.073242;
632229;0.068359;0.019531;1.082031;
632449;0.069336;0.023438;1.081055;
632659;0.068359;0.020508;1.080078;
632869;0.071289;0.022461;1.079102;
633079;0.068359;0.020508;1.075195;
633299;0.069336;0.022461;1.074219;
633509;0.071289;0.018555;1.086914;
633724;0.070312;0.022461;1.083008;
633944;0.068359;0.017578;1.088867;
634174;0.069336;0.018555;1.088867;
634409;0.065430;0.016602;1.085938;
634619;0.065430;0.018555;1.072266;
634829;0.065430;0.018555;1.079102;
635049;0.064453;0.021484;1.078125;
635259;0.065430;0.020508;1.074219;
635469;0.065430;0.023438;1.074219;
635679;0.067383;0.019531;1.080078;
635889;0.064453;0.019531;1.072266;
636099;0.067383;0.020508;1.082031;
636309;0.065430;0.022461;1.080078;
636529;0.072266;0.017578;1.085938;
636749;0.069336;0.020508;1.085938;
636959;0.072266;0.020508;1.081055;
637179;0.069336;0.018555;1.093750;
637384;0.070312;0.019531;1.083984;
637594;0.070312;0.016602;1.090820;
637814;0.069336;0.021484;1.090820;
638044;0.066406;0.021484;1.078125;
638259;0.068359;0.023438;1.080078;
638479;0.065430;0.018555;1.069336;
638689;0.065430;0.019531;1.074219;
638910;0.067383;0.019531;1.080078;
639129;0.066406;0.018555;1.078125;
639339;0.066406;0.020508;1.078125;
639559;0.070312;0.017578;1.095703;
639769;0.072266;0.016602;1.104492;
639989;0.070312;0.019531;1.110352;
640199;0.072266;0.017578;1.114258;
640419;0.073242;0.014648;1.115234;
640629;0.071289;0.021484;1.114258;
640839;0.071289;0.018555;1.119141;
641061;0.066406;0.018555;1.111328;
641284;0.067383;0.017578;1.109375;
641504;0.068359;0.019531;1.105469;
641734;0.069336;0.016602;1.112305;
641959;0.070312;0.017578;1.111328;
642179;0.074219;0.018555;1.112305;
642399;0.072266;0.019531;1.113281;
642619;0.072266;0.019531;1.116211;
642829;0.071289;0.017578;1.114258;
643049;0.068359;0.022461;1.106445;
643269;0.068359;0.022461;1.109375;
643479;0.068359;0.020508;1.114258;
643699;0.064453;0.023438;1.093750;
643919;0.065430;0.022461;1.099609;
644139;0.068359;0.024414;1.103516;
644359;0.071289;0.018555;1.105469;
644579;0.072266;0.017578;1.108398;
644794;0.071289;0.017578;1.113281;
645024;0.070312;0.012695;1.103516;
645244;0.069336;0.018555;1.114258;
645474;0.066406;0.019531;1.102539;
645709;0.067383;0.020508;1.101562;
645914;0.065430;0.016602;1.101562;
646119;0.064453;0.025391;1.110352;
646329;0.066406;0.025391;1.108398;
646549;0.070312;0.018555;1.107422;
646769;0.066406;0.021484;1.095703;
646989;0.070312;0.018555;1.118164;
647209;0.069336;0.016602;1.119141;
647419;0.070312;0.018555;1.121094;
647639;0.073242;0.018555;1.117188;
647859;0.066406;0.020508;1.104492;
648079;0.066406;0.020508;1.109375;
648299;0.064453;0.021484;1.103516;
648509;0.066406;0.019531;1.108398;
648734;0.067383;0.020508;1.096680;
648954;0.067383;0.022461;1.101562;
649184;0.071289;0.016602;1.114258;
649419;0.068359;0.020508;1.112305;
649639;0.070312;0.017578;1.121094;
649859;0.065430;0.019531;1.114258;
650079;0.066406;0.021484;1.113281;
650289;0.064453;0.024414;1.118164;
650499;0.061523;0.021484;1.110352;
650719;0.066406;0.023438;1.114258;
650929;0.067383;0.020508;1.103516;
651149;0.065430;0.022461;1.106445;
651369;0.070312;0.016602;1.124023;
651589;0.069336;0.018555;1.115234;
651799;0.069336;0.013672;1.121094;
652009;0.070312;0.015625;1.128906;
652219;0.070312;0.019531;1.131836;
652424;0.068359;0.017578;1.126953;
652634;0.066406;0.023438;1.121094;
652855;0.068359;0.015625;1.124023;
653089;0.065430;0.020508;1.120117;
653309;0.066406;0.018555;1.114258;
653519;0.066406;0.024414;1.117188;
653729;0.066406;0.019531;1.117188;
653959;0.072266;0.016602;1.118164;
654179;0.069336;0.020508;1.126953;
654399;0.068359;0.017578;1.130859;
654609;0.069336;0.017578;1.127930;
654829;0.064453;0.020508;1.128906;
655039;0.066406;0.019531;1.131836;
655249;0.064453;0.022461;1.134766;
655459;0.064453;0.013672;1.133789;
655669;0.066406;0.021484;1.139648;
655889;0.069336;0.018555;1.143555;
656104;0.070312;0.019531;1.145508;
656334;0.078125;0.019531;1.159180;
656564;0.079102;0.022461;1.170898;
656799;0.080078;0.017578;1.169922;
657009;0.081055;0.022461;1.165039;
657219;0.080078;0.022461;1.169922;
657429;0.082031;0.019531;1.166016;
657649;0.084961;0.020508;1.164062;
657869;0.080078;0.027344;1.171875;
658079;0.078125;0.020508;1.162109;
658289;0.076172;0.021484;1.151367;
658509;0.076172;0.019531;1.153320;
658719;0.071289;0.024414;1.143555;
658929;0.071289;0.022461;1.143555;
659149;0.072266;0.020508;1.140625;
659369;0.077148;0.021484;1.139648;
659579;0.075195;0.018555;1.125977;
659794;0.076172;0.019531;1.130859;
660024;0.074219;0.022461;1.122070;
660254;0.072266;0.021484;1.119141;
660469;0.069336;0.027344;1.125000;
660689;0.071289;0.016602;1.123047;
660899;0.067383;0.024414;1.123047;
661109;0.069336;0.018555;1.121094;
661319;0.070312;0.019531;1.113281;
661529;0.070312;0.021484;1.097656;
661739;0.065430;0.019531;1.084961;
661949;0.063477;0.019531;1.077148;
662169;0.064453;0.020508;1.067383;
662389;0.065430;0.022461;1.058594;
662599;0.064453;0.018555;1.050781;
662819;0.063477;0.021484;1.041992;
663039;0.059570;0.021484;1.021484;
663259;0.056641;0.019531;1.018555;
663474;0.055664;0.021484;1.006836;
663696;0.053711;0.021484;1.002930;
663924;0.056641;0.019531;1.017578;
664144;0.057617;0.020508;1.021484;
664359;0.058594;0.020508;1.024414;
664579;0.063477;0.020508;1.040039;
664799;0.064453;0.019531;1.055664;
665009;0.062500;0.023438;1.072266;
665219;0.062500;0.017578;1.085938;
665429;0.066406;0.021484;1.097656;
665649;0.068359;0.017578;1.111328;
665869;0.071289;0.016602;1.118164;
666089;0.073242;0.018555;1.118164;
666299;0.073242;0.019531;1.129883;
666509;0.069336;0.017578;1.127930;
666719;0.070312;0.020508;1.126953;
666929;0.068359;0.020508;1.128906;
667139;0.070312;0.021484;1.139648;
667354;0.074219;0.023438;1.142578;
667564;0.073242;0.018555;1.129883;
667775;0.076172;0.019531;1.125977;
667999;0.072266;0.020508;1.125977;
668209;0.069336;0.021484;1.114258;
668429;0.069336;0.026367;1.132812;
668649;0.070312;0.022461;1.135742;
668859;0.071289;0.020508;1.125977;
669079;0.071289;0.022461;1.112305;
669289;0.068359;0.017578;1.104492;
669509;0.064453;0.019531;1.084961;
669729;0.064453;0.018555;1.075195;
669939;0.060547;0.022461;1.069336;
670149;0.063477;0.022461;1.072266;
670369;0.061523;0.020508;1.067383;
670579;0.064453;0.016602;1.071289;
670799;0.063477;0.017578;1.069336;
671014;0.062500;0.020508;1.072266;
671234;0.064453;0.022461;1.080078;
671464;0.064453;0.017578;1.080078;
671689;0.062500;0.019531;1.084961;
671909;0.063477;0.021484;1.090820;
672119;0.068359;0.022461;1.106445;
672339;0.066406;0.018555;1.100586;
672559;0.069336;0.018555;1.112305;
672769;0.068359;0.017578;1.107422;
672979;0.065430;0.022461;1.103516;
673199;0.064453;0.021484;1.113281;
673419;0.065430;0.021484;1.115234;
673639;0.069336;0.017578;1.123047;
673859;0.068359;0.022461;1.121094;
674069;0.070312;0.021484;1.125000;
674289;0.071289;0.018555;1.113281;
674499;0.068359;0.021484;1.118164;
674704;0.066406;0.023438;1.109375;
674924;0.064453;0.020508;1.112305;
675145;0.063477;0.020508;1.128906;
675375;0.065430;0.020508;1.129883;
675599;0.067383;0.024414;1.131836;
675819;0.068359;0.021484;1.125977;
676049;0.070312;0.019531;1.115234;
676259;0.065430;0.015625;1.098633;
676469;0.065430;0.019531;1.089844;
676689;0.066406;0.023438;1.096680;
676909;0.065430;0.016602;1.094727;
677119;0.061523;0.022461;1.080078;
677339;0.062500;0.021484;1.086914;
677549;0.064453;0.021484;1.087891;
677759;0.065430;0.018555;1.082031;
677979;0.063477;0.019531;1.073242;
678189;0.062500;0.020508;1.078125;
678404;0.060547;0.024414;1.081055;
678624;0.060547;0.022461;1.081055;
678854;0.058594;0.021484;1.085938;
679085;0.063477;0.022461;1.095703;
679319;0.063477;0.019531;1.102539;
679529;0.068359;0.018555;1.110352;
679749;0.066406;0.017578;1.110352;
679969;0.067383;0.019531;1.115234;
680189;0.066406;0.020508;1.118164;
680409;0.066406;0.023438;1.125977;
680629;0.066406;0.018555;1.135742;
680839;0.066406;0.020508;1.138672;
681049;0.069336;0.021484;1.140625;
681269;0.071289;0.017578;1.144531;
681489;0.068359;0.015625;1.141602;
681709;0.069336;0.020508;1.139648;
681919;0.069336;0.026367;1.141602;
682134;0.068359;0.025391;1.143555;
682364;0.067383;0.023438;1.138672;
682595;0.065430;0.023438;1.135742;
682824;0.066406;0.022461;1.127930;
683059;0.063477;0.019531;1.114258;
683269;0.063477;0.023438;1.113281;
683479;0.063477;0.019531;1.098633;
683689;0.061523;0.021484;1.097656;
683909;0.059570;0.024414;1.083008;
684119;0.058594;0.023438;1.074219;
684339;0.057617;0.017578;1.067383;
684549;0.056641;0.018555;1.061523;
684759;0.060547;0.018555;1.073242;
684979;0.061523;0.017578;1.070312;
685199;0.065430;0.021484;1.085938;
685409;0.062500;0.020508;1.083984;
685629;0.063477;0.022461;1.104492;
685849;0.060547;0.021484;1.102539;
686064;0.062500;0.022461;1.114258;
686274;0.066406;0.026367;1.128906;
686505;0.064453;0.019531;1.128906;
686739;0.066406;0.022461;1.137695;
686949;0.069336;0.018555;1.145508;
687169;0.066406;0.018555;1.149414;
687379;0.066406;0.018555;1.136719;
687589;0.064453;0.020508;1.133789;
687809;0.060547;0.021484;1.118164;
688019;0.062500;0.022461;1.119141;
688239;0.061523;0.019531;1.109375;
688459;0.064453;0.021484;1.113281;
688669;0.063477;0.019531;1.110352;
688889;0.064453;0.019531;1.099609;
689109;0.064453;0.020508;1.095703;
689329;0.061523;0.019531;1.088867;
689549;0.058594;0.019531;1.079102;
689764;0.060547;0.024414;1.090820;
689996;0.056641;0.021484;1.089844;
690214;0.059570;0.027344;1.088867;
690449;0.059570;0.018555;1.091797;
690664;0.061523;0.021484;1.085938;
690879;0.062500;0.018555;1.082031;
691099;0.060547;0.020508;1.084961;
691319;0.060547;0.017578;1.084961;
691529;0.056641;0.021484;1.089844;
691749;0.060547;0.018555;1.087891;
691969;0.060547;0.024414;1.108398;
692179;0.060547;0.018555;1.110352;
692399;0.065430;0.020508;1.125977;
692619;0.066406;0.022461;1.135742;
692829;0.068359;0.019531;1.142578;
693049;0.067383;0.015625;1.140625;
693259;0.067383;0.019531;1.142578;
693474;0.065430;0.020508;1.160156;
693694;0.066406;0.019531;1.145508;
693924;0.063477;0.018555;1.136719;
694149;0.063477;0.023438;1.125977;
694369;0.063477;0.022461;1.116211;
694589;0.059570;0.021484;1.072266;
694799;0.058594;0.021484;1.059570;
695019;0.057617;0.015625;1.041016;
695239;0.054688;0.020508;1.007812;
695449;0.050781;0.019531;1.002930;
695669;0.045898;0.022461;0.979492;
695879;0.046875;0.023438;0.984375;
696089;0.048828;0.020508;1.000000;
696309;0.053711;0.018555;1.007812;
696519;0.052734;0.020508;1.029297;
696729;0.054688;0.024414;1.035156;
696949;0.058594;0.021484;1.050781;
697165;0.055664;0.020508;1.055664;
697384;0.057617;0.023438;1.069336;
697614;0.057617;0.027344;1.082031;
697839;0.060547;0.023438;1.097656;
698059;0.059570;0.026367;1.095703;
698279;0.057617;0.025391;1.099609;
698489;0.062500;0.025391;1.100586;
698709;0.059570;0.025391;1.082031;
698929;0.059570;0.020508;1.080078;
699139;0.057617;0.020508;1.053711;
699349;0.056641;0.022461;1.046875;
699559;0.053711;0.019531;1.027344;
699779;0.052734;0.024414;1.023438;
699989;0.049805;0.020508;1.023438;
700209;0.053711;0.022461;1.012695;
700419;0.052734;0.019531;1.008789;
700639;0.053711;0.022461;1.005859;
700844;0.052734;0.026367;0.999023;
701074;0.048828;0.022461;0.979492;
701284;0.047852;0.024414;0.983398;
701520;0.045898;0.022461;0.975586;
701749;0.045898;0.026367;0.969727;
701959;0.044922;0.024414;0.973633;
702179;0.045898;0.022461;0.971680;
702399;0.045898;0.023438;0.969727;
702619;0.048828;0.022461;0.972656;
702839;0.047852;0.020508;0.978516;
703049;0.046875;0.023438;0.969727;
703259;0.047852;0.022461;0.970703;
703479;0.047852;0.023438;0.967773;
703689;0.046875;0.025391;0.979492;
703899;0.046875;0.026367;0.981445;
704109;0.045898;0.026367;0.983398;
704329;0.050781;0.018555;0.987305;
704544;0.050781;0.024414;0.989258;
704764;0.046875;0.023438;0.987305;
704984;0.047852;0.021484;0.984375;
705214;0.044922;0.028320;0.979492;
705429;0.044922;0.022461;0.976562;
705639;0.045898;0.022461;0.978516;
705859;0.042969;0.023438;0.970703;
706069;0.043945;0.026367;0.970703;
706289;0.044922;0.024414;0.978516;
706509;0.044922;0.025391;0.975586;
706724;0.047852;0.021484;0.972656;
706939;0.047852;0.023438;0.977539;
707149;0.045898;0.024414;0.971680;
707369;0.042969;0.027344;0.974609;
707579;0.044922;0.024414;0.958008;
707799;0.042969;0.021484;0.972656;
708019;0.044922;0.028320;0.974609;
708224;0.043945;0.026367;0.979492;
708444;0.043945;0.019531;0.978516;
708674;0.044922;0.025391;0.976562;
708905;0.046875;0.017578;0.988281;
709119;0.049805;0.019531;0.983398;
709339;0.043945;0.021484;0.991211;
709549;0.047852;0.023438;0.997070;
709769;0.045898;0.023438;0.996094;
709989;0.043945;0.022461;0.989258;
710199;0.044922;0.024414;0.987305;
710419;0.041992;0.025391;0.986328;
710639;0.041016;0.026367;0.986328;
710859;0.041992;0.023438;0.985352;
711079;0.040039;0.026367;0.980469;
711289;0.040039;0.025391;0.969727;
711499;0.038086;0.027344;0.964844;
711719;0.035156;0.024414;0.965820;
711929;0.032227;0.020508;0.966797;
712144;0.026367;0.028320;0.956055;
712364;0.024414;0.021484;0.947266;
712585;0.025391;0.027344;0.949219;
712819;0.024414;0.025391;0.953125;
713029;0.021484;0.027344;0.916016;
713249;0.023438;0.028320;0.936523;
713459;0.019531;0.026367;0.912109;
713679;0.019531;0.028320;0.902344;
713889;0.021484;0.028320;0.912109;
714109;0.019531;0.033203;0.928711;
714319;0.024414;0.031250;0.954102;
714539;0.025391;0.029297;0.972656;
714759;0.024414;0.033203;0.995117;
714979;0.029297;0.031250;1.018555;
715199;0.028320;0.021484;1.020508;
715419;0.032227;0.033203;1.047852;
715639;0.026367;0.024414;1.028320;
715858;0.028320;0.028320;1.014648;
716074;0.027344;0.032227;1.013672;
716306;0.026367;0.026367;1.012695;
716529;0.024414;0.021484;0.995117;
716749;0.023438;0.024414;0.984375;
716959;0.025391;0.024414;0.992188;
717179;0.022461;0.033203;0.968750;
717389;0.024414;0.026367;0.978516;
717599;0.022461;0.026367;0.986328;
717819;0.022461;0.031250;0.997070;
718029;0.028320;0.030273;1.013672;
718249;0.025391;0.031250;1.016602;
718464;0.026367;0.031250;1.039062;
718689;0.029297;0.035156;1.048828;
718909;0.030273;0.033203;1.062500;
719129;0.029297;0.031250;1.074219;
719339;0.031250;0.027344;1.071289;
719544;0.032227;0.028320;1.081055;
719764;0.027344;0.029297;1.084961;
719984;0.031250;0.031250;1.080078;
720209;0.031250;0.027344;1.077148;
720414;0.030273;0.025391;1.078125;
720639;0.025391;0.029297;1.068359;
720849;0.029297;0.029297;1.067383;
721069;0.030273;0.028320;1.074219;
721279;0.027344;0.030273;1.061523;
721489;0.033203;0.029297;1.085938;
721699;0.028320;0.030273;1.080078;
721909;0.028320;0.033203;1.074219;
722119;0.032227;0.030273;1.093750;
722329;0.028320;0.031250;1.100586;
722539;0.032227;0.032227;1.105469;
722749;0.033203;0.037109;1.119141;
722954;0.032227;0.031250;1.101562;
723174;0.033203;0.033203;1.099609;
723395;0.029297;0.034180;1.086914;
723625;0.031250;0.034180;1.095703;
723859;0.029297;0.028320;1.076172;
724069;0.031250;0.023438;1.083008;
724289;0.026367;0.029297;1.072266;
724494;0.026367;0.028320;1.073242;
724719;0.025391;0.026367;1.062500;
724929;0.021484;0.026367;1.040039;
725149;0.022461;0.027344;1.036133;
725359;0.022461;0.029297;1.021484;
725579;0.024414;0.023438;1.024414;
725789;0.020508;0.027344;1.012695;
725999;0.022461;0.026367;1.010742;
726229;0.021484;0.030273;1.011719;
726449;0.023438;0.031250;1.011719;
726670;0.022461;0.027344;1.007812;
726897;0.018555;0.027344;0.992188;
727124;0.016602;0.030273;0.979492;
727356;0.018555;0.025391;0.970703;
727589;0.014648;0.032227;0.963867;
727799;0.017578;0.028320;0.938477;
728009;0.014648;0.029297;0.931641;
728229;0.011719;0.032227;0.920898;
728439;0.012695;0.027344;0.921875;
728659;0.009766;0.030273;0.928711;
728879;0.014648;0.034180;0.938477;
729089;0.010742;0.029297;0.933594;
729299;0.013672;0.033203;0.945312;
729519;0.012695;0.032227;0.971680;
729739;0.010742;0.034180;0.974609;
729944;0.015625;0.028320;1.013672;
730169;0.022461;0.029297;1.041016;
730384;0.023438;0.031250;1.079102;
730614;0.024414;0.032227;1.092773;
730834;0.027344;0.027344;1.109375;
731064;0.027344;0.026367;1.106445;
731299;0.023438;0.023438;1.104492;
731509;0.023438;0.026367;1.093750;
731719;0.024414;0.025391;1.085938;
731929;0.022461;0.028320;1.055664;
732134;0.019531;0.027344;1.054688;
732339;0.020508;0.028320;1.038086;
732549;0.017578;0.030273;1.027344;
732759;0.019531;0.032227;1.021484;
732969;0.015625;0.030273;1.018555;
733179;0.017578;0.030273;1.019531;
733399;0.016602;0.033203;1.013672;
733619;0.014648;0.027344;1.003906;
733839;0.014648;0.028320;1.005859;
734059;0.013672;0.025391;1.013672;
734274;0.014648;0.028320;1.010742;
734516;0.014648;0.032227;1.011719;
734744;0.011719;0.029297;1.000977;
734979;0.017578;0.025391;1.006836;
735189;0.016602;0.031250;1.026367;
735399;0.019531;0.028320;1.051758;
735609;0.021484;0.027344;1.080078;
735829;0.020508;0.031250;1.096680;
736049;0.021484;0.027344;1.122070;
736269;0.023438;0.029297;1.127930;
736479;0.021484;0.022461;1.128906;
736689;0.019531;0.032227;1.126953;
736909;0.019531;0.026367;1.122070;
737129;0.019531;0.027344;1.085938;
737339;0.019531;0.027344;1.071289;
737549;0.017578;0.030273;1.053711;
737769;0.014648;0.028320;1.026367;
737984;0.013672;0.033203;1.008789;
738204;0.010742;0.030273;1.000000;
738425;0.009766;0.029297;1.004883;
738659;0.013672;0.029297;1.001953;
738869;0.009766;0.031250;1.007812;
739089;0.014648;0.025391;1.013672;
739299;0.012695;0.026367;1.035156;
739509;0.013672;0.027344;1.028320;
739719;0.014648;0.033203;1.043945;
739929;0.010742;0.027344;1.057617;
740139;0.018555;0.030273;1.078125;
740359;0.015625;0.026367;1.066406;
740579;0.017578;0.029297;1.092773;
740799;0.015625;0.027344;1.083984;
741009;0.018555;0.030273;1.094727;
741229;0.014648;0.026367;1.082031;
741439;0.017578;0.029297;1.101562;
741654;0.016602;0.030273;1.102539;
741874;0.018555;0.025391;1.085938;
742094;0.015625;0.026367;1.063477;
742319;0.011719;0.027344;1.024414;
742539;0.007812;0.030273;0.988281;
742749;0.009766;0.028320;0.978516;
742969;0.005859;0.028320;0.960938;
743189;0.003906;0.024414;0.939453;
743399;0.004883;0.026367;0.934570;
743619;0.002930;0.026367;0.935547;
743839;0.001953;0.025391;0.927734;
744049;0.004883;0.029297;0.935547;
744264;0.000977;0.030273;0.934570;
744479;0.003906;0.027344;0.932617;
744699;0.003906;0.031250;0.940430;
744919;0.003906;0.028320;0.953125;
745129;0.003906;0.028320;0.968750;
745334;0.002930;0.029297;0.961914;
745545;0.004883;0.027344;0.993164;
745764;0.006836;0.029297;1.007812;
745984;0.008789;0.024414;1.040039;
746209;0.008789;0.028320;1.059570;
746429;0.010742;0.030273;1.080078;
746649;0.011719;0.029297;1.089844;
746859;0.013672;0.026367;1.125000;
747069;0.014648;0.032227;1.111328;
747279;0.012695;0.024414;1.097656;
747599;0.008789;0.026367;1.078125;
747819;0.006836;0.026367;1.041016;
748039;0.005859;0.027344;1.024414;
748249;0.004883;0.023438;1.009766;
748459;0.003906;0.024414;0.999023;
748679;0.003906;0.025391;0.973633;
748889;0.004883;0.026367;0.968750;
749099;0.000000;0.032227;0.931641;
749314;0.000977;0.033203;0.935547;
749535;-0.002930;0.028320;0.912109;
749754;-0.003906;0.031250;0.894531;
749964;-0.002930;0.030273;0.874023;
750179;-0.003906;0.028320;0.869141;
750399;-0.006836;0.023438;0.847656;
750609;-0.005859;0.033203;0.845703;
750829;-0.003906;0.032227;0.849609;
751039;-0.005859;0.027344;0.855469;
751259;-0.002930;0.029297;0.854492;
751479;-0.004883;0.024414;0.844727;
751699;-0.003906;0.028320;0.852539;
751909;-0.003906;0.021484;0.874023;
752119;-0.005859;0.028320;0.871094;
752329;0.000977;0.021484;0.892578;
752549;0.001953;0.025391;0.913086;
752769;-0.000977;0.024414;0.916016;
752984;0.005859;0.027344;0.928711;
753195;0.000977;0.028320;0.951172;
753424;0.004883;0.031250;0.957031;
753644;0.002930;0.021484;0.962891;
753869;0.002930;0.023438;0.969727;
754079;0.004883;0.021484;0.961914;
754289;0.002930;0.026367;0.969727;
754499;0.000000;0.031250;0.957031;
754709;0.002930;0.029297;0.959961;
754929;0.002930;0.024414;0.953125;
755149;-0.003906;0.029297;0.931641;
755359;0.002930;0.028320;0.936523;
755569;-0.000977;0.027344;0.926758;
755779;-0.000977;0.028320;0.910156;
755999;-0.001953;0.027344;0.899414;
756219;-0.005859;0.027344;0.863281;
756439;-0.005859;0.024414;0.843750;
756649;-0.004883;0.025391;0.835938;
756866;-0.010742;0.030273;0.826172;
757094;-0.007812;0.028320;0.854492;
757325;-0.006836;0.031250;0.864258;
757559;-0.009766;0.029297;0.849609;
757769;-0.010742;0.031250;0.844727;
757989;-0.010742;0.032227;0.836914;
758209;-0.009766;0.026367;0.856445;
758429;-0.007812;0.027344;0.878906;
758639;-0.005859;0.022461;0.904297;
758849;-0.003906;0.022461;0.931641;
759059;-0.003906;0.026367;0.928711;
759269;-0.007812;0.021484;0.925781;
759489;-0.004883;0.022461;0.952148;
759709;-0.004883;0.032227;0.956055;
759919;-0.005859;0.030273;0.959961;
760139;-0.003906;0.029297;0.981445;
760349;-0.006836;0.028320;0.979492;
760564;-0.004883;0.033203;0.942383;
760784;-0.006836;0.026367;0.920898;
761014;-0.009766;0.027344;0.894531;
761229;-0.004883;0.029297;0.910156;
761449;-0.008789;0.027344;0.919922;
761659;-0.009766;0.027344;0.943359;
761879;-0.003906;0.029297;0.991211;
762099;-0.004883;0.031250;1.040039;
762319;-0.003906;0.028320;1.062500;
762539;0.000977;0.031250;1.102539;
762749;0.001953;0.028320;1.095703;
762959;0.000977;0.033203;1.112305;
763169;-0.000977;0.032227;1.105469;
763379;0.000000;0.025391;1.083984;
763594;-0.000977;0.035156;1.077148;
763809;-0.005859;0.032227;1.053711;
764029;-0.003906;0.027344;1.042969;
764244;-0.007812;0.032227;1.035156;
764464;-0.004883;0.032227;1.031250;
764694;-0.006836;0.033203;1.030273;
764926;-0.009766;0.032227;1.019531;
765146;-0.007812;0.032227;0.999023;
765354;-0.007812;0.031250;1.011719;
765574;-0.009766;0.027344;0.999023;
765799;-0.007812;0.035156;1.008789;
766019;-0.009766;0.042969;1.040039;
766229;-0.005859;0.023438;1.055664;
766449;-0.006836;0.027344;1.069336;
766659;-0.011719;0.039062;1.100586;
766879;-0.005859;0.033203;1.098633;
767089;-0.004883;0.029297;1.118164;
767299;-0.004883;0.032227;1.107422;
767509;-0.006836;0.023438;1.100586;
767715;-0.007812;0.031250;1.075195;
767939;-0.006836;0.031250;1.042969;
768149;-0.013672;0.029297;1.023438;
768364;-0.014648;0.027344;1.003906;
768584;-0.017578;0.040039;1.014648;
768805;-0.017578;0.031250;0.995117;
769024;-0.018555;0.033203;0.999023;
769254;-0.016602;0.032227;1.020508;
769489;-0.013672;0.029297;1.030273;
769699;-0.014648;0.028320;1.066406;
769915;-0.015625;0.031250;1.055664;
770139;-0.017578;0.026367;1.065430;
770349;-0.009766;0.028320;1.094727;
770554;-0.015625;0.027344;1.097656;
770769;-0.017578;0.037109;1.102539;
770989;-0.011719;0.028320;1.118164;
771194;-0.014648;0.031250;1.127930;
771409;-0.010742;0.032227;1.134766;
771619;-0.014648;0.029297;1.125000;
771834;-0.013672;0.029297;1.138672;
772059;-0.010742;0.029297;1.145508;
772279;-0.012695;0.022461;1.134766;
772485;-0.016602;0.030273;1.142578;
772694;-0.013672;0.024414;1.106445;
772915;-0.019531;0.025391;1.082031;
773146;-0.020508;0.029297;1.066406;
773369;-0.017578;0.029297;1.059570;
773579;-0.023438;0.030273;1.036133;
773789;-0.022461;0.035156;1.026367;
774009;-0.025391;0.030273;0.990234;
774229;-0.023438;0.035156;0.987305;
774439;-0.025391;0.029297;0.991211;
774649;-0.024414;0.028320;0.969727;
774859;-0.023438;0.025391;0.960938;
775069;-0.026367;0.029297;0.956055;
775289;-0.026367;0.027344;0.966797;
775499;-0.025391;0.033203;0.995117;
775719;-0.026367;0.034180;1.000000;
775939;-0.024414;0.030273;1.017578;
776149;-0.025391;0.028320;1.039062;
776354;-0.024414;0.028320;1.053711;
776575;-0.026367;0.032227;1.063477;
776804;-0.023438;0.033203;1.112305;
777024;-0.019531;0.029297;1.166016;
777239;-0.015625;0.025391;1.218750;
777459;-0.015625;0.031250;1.262695;
777669;-0.011719;0.031250;1.309570;
777879;-0.007812;0.023438;1.341797;
778099;-0.009766;0.026367;1.352539;
778309;-0.006836;0.026367;1.358398;
778529;-0.008789;0.021484;1.359375;
778739;-0.011719;0.022461;1.338867;
778949;-0.015625;0.023438;1.322266;
779169;-0.017578;0.021484;1.292969;
779379;-0.023438;0.022461;1.269531;
779599;-0.025391;0.021484;1.265625;
779819;-0.029297;0.029297;1.273438;
780034;-0.025391;0.025391;1.305664;
780254;-0.029297;0.022461;1.334961;
780464;-0.024414;0.029297;1.373047;
780694;-0.032227;0.028320;1.386719;
780919;-0.030273;0.025391;1.387695;
781139;-0.038086;0.029297;1.348633;
781349;-0.032227;0.028320;1.328125;
781559;-0.045898;0.028320;1.273438;
781769;-0.044922;0.025391;1.224609;
781989;-0.047852;0.023438;1.185547;
782199;-0.051758;0.026367;1.165039;
782409;-0.050781;0.018555;1.166992;
782629;-0.051758;0.020508;1.163086;
782849;-0.054688;0.023438;1.167969;
783054;-0.052734;0.024414;1.186523;
783269;-0.053711;0.027344;1.191406;
783489;-0.051758;0.023438;1.203125;
783699;-0.053711;0.024414;1.208984;
783916;-0.054688;0.028320;1.210938;
784134;-0.051758;0.025391;1.213867;
784354;-0.054688;0.027344;1.211914;
784589;-0.052734;0.023438;1.215820;
784809;-0.056641;0.024414;1.207031;
785029;-0.058594;0.025391;1.189453;
785239;-0.060547;0.025391;1.175781;
785459;-0.058594;0.023438;1.149414;
785669;-0.061523;0.024414;1.122070;
785889;-0.066406;0.032227;1.100586;
786109;-0.064453;0.027344;1.069336;
786329;-0.069336;0.028320;1.038086;
786549;-0.069336;0.026367;1.043945;
786769;-0.069336;0.018555;1.033203;
786979;-0.068359;0.033203;1.035156;
787189;-0.068359;0.030273;1.034180;
787399;-0.071289;0.028320;1.041992;
787614;-0.068359;0.025391;1.051758;
787834;-0.068359;0.023438;1.070312;
788054;-0.068359;0.029297;1.064453;
788289;-0.069336;0.023438;1.046875;
788509;-0.072266;0.023438;1.041992;
788729;-0.073242;0.030273;1.012695;
788949;-0.071289;0.030273;1.026367;
789159;-0.072266;0.028320;1.037109;
789379;-0.072266;0.024414;1.030273;
789589;-0.071289;0.025391;1.041016;
789799;-0.071289;0.032227;1.039062;
790019;-0.070312;0.030273;1.033203;
790229;-0.071289;0.024414;1.043945;
790449;-0.070312;0.026367;1.032227;
790659;-0.071289;0.026367;1.034180;
790879;-0.070312;0.028320;1.044922;
791099;-0.070312;0.024414;1.031250;
791314;-0.072266;0.024414;1.025391;
791534;-0.073242;0.026367;1.007812;
791754;-0.071289;0.030273;1.010742;
791979;-0.075195;0.028320;0.997070;
792189;-0.071289;0.024414;0.994141;
792399;-0.076172;0.027344;1.000000;
792609;-0.072266;0.028320;0.998047;
792829;-0.074219;0.025391;1.003906;
793039;-0.074219;0.022461;1.010742;
793249;-0.071289;0.029297;1.011719;
793459;-0.070312;0.024414;1.019531;
793669;-0.068359;0.020508;1.041016;
793879;-0.062500;0.019531;1.053711;
794099;-0.058594;0.023438;1.095703;
794309;-0.053711;0.022461;1.123047;
794529;-0.050781;0.019531;1.150391;
794744;-0.047852;0.023438;1.152344;
794967;-0.048828;0.028320;1.136719;
795184;-0.047852;0.023438;1.121094;
795404;-0.046875;0.025391;1.098633;
795639;-0.046875;0.027344;1.074219;
795869;-0.046875;0.031250;1.054688;
796089;-0.046875;0.029297;1.037109;
796309;-0.044922;0.029297;1.026367;
796519;-0.052734;0.028320;1.016602;
796729;-0.051758;0.026367;1.024414;
796939;-0.051758;0.028320;1.025391;
797159;-0.043945;0.024414;1.041016;
797379;-0.040039;0.024414;1.055664;
797599;-0.038086;0.029297;1.075195;
797819;-0.028320;0.024414;1.110352;
798039;-0.016602;0.023438;1.121094;
798249;-0.011719;0.022461;1.130859;
798454;-0.007812;0.024414;1.124023;
798674;-0.010742;0.022461;1.104492;
798904;-0.011719;0.025391;1.076172;
799134;-0.012695;0.023438;1.059570;
799349;-0.020508;0.023438;1.042969;
799559;-0.021484;0.025391;1.038086;
799779;-0.020508;0.023438;1.019531;
799999;-0.018555;0.023438;1.030273;
800219;-0.018555;0.028320;1.031250;
800429;-0.017578;0.023438;1.031250;
800649;-0.018555;0.027344;1.036133;
800859;-0.019531;0.024414;1.033203;
801069;-0.017578;0.026367;1.040039;
801289;-0.017578;0.024414;1.061523;
801509;-0.016602;0.026367;1.045898;
801725;-0.019531;0.024414;1.048828;
801949;-0.016602;0.026367;1.061523;
802164;-0.016602;0.025391;1.048828;
802384;-0.015625;0.024414;1.039062;
802594;-0.015625;0.027344;1.044922;
802804;-0.016602;0.028320;1.048828;
803039;-0.019531;0.026367;1.041992;
803249;-0.015625;0.025391;1.040039;
803459;-0.017578;0.028320;1.035156;
803669;-0.020508;0.028320;1.038086;
803890;-0.016602;0.024414;1.041992;
804109;-0.016602;0.025391;1.041016;
804329;-0.017578;0.024414;1.039062;
804549;-0.018555;0.025391;1.039062;
804769;-0.017578;0.026367;1.035156;
804979;-0.015625;0.021484;1.037109;
805189;-0.016602;0.024414;1.039062;
805399;-0.014648;0.024414;1.046875;
805609;-0.018555;0.023438;1.039062;
805829;-0.016602;0.027344;1.050781;
806045;-0.016602;0.023438;1.041992;
806264;-0.016602;0.026367;1.046875;
806484;-0.015625;0.027344;1.043945;
806709;-0.015625;0.022461;1.063477;
806919;-0.015625;0.026367;1.061523;
807139;-0.015625;0.027344;1.058594;
807349;-0.013672;0.026367;1.052734;
807559;-0.018555;0.021484;1.030273;
807779;-0.017578;0.025391;0.983398;
807989;-0.020508;0.026367;0.958008;
808199;-0.021484;0.025391;0.922852;
808409;-0.023438;0.027344;0.892578;
808629;-0.024414;0.031250;0.875977;
808849;-0.022461;0.023438;0.870117;
809069;-0.022461;0.027344;0.897461;
809279;-0.024414;0.024414;0.921875;
809489;-0.020508;0.027344;0.925781;
809714;-0.019531;0.028320;0.960938;
809945;-0.022461;0.028320;0.966797;
810154;-0.019531;0.025391;0.966797;
810389;-0.020508;0.030273;0.964844;
810599;-0.022461;0.026367;0.940430;
810809;-0.024414;0.027344;0.937500;
811029;-0.023438;0.026367;0.927734;
811249;-0.022461;0.025391;0.929688;
811469;-0.017578;0.029297;0.959961;
811679;-0.019531;0.025391;0.968750;
811899;-0.015625;0.027344;1.008789;
812119;-0.014648;0.026367;1.046875;
812339;-0.012695;0.023438;1.084961;
812559;-0.012695;0.028320;1.114258;
812769;-0.012695;0.025391;1.131836;
812989;-0.011719;0.019531;1.139648;
813209;-0.010742;0.029297;1.158203;
813414;-0.010742;0.023438;1.145508;
813635;-0.009766;0.021484;1.145508;
813864;-0.009766;0.023438;1.132812;
814099;-0.009766;0.023438;1.133789;
814319;-0.009766;0.027344;1.128906;
814529;-0.010742;0.026367;1.112305;
814739;-0.009766;0.018555;1.109375;
814949;-0.009766;0.022461;1.113281;
815169;-0.010742;0.021484;1.103516;
815379;-0.010742;0.021484;1.098633;
815589;-0.011719;0.019531;1.100586;
815809;-0.011719;0.033203;1.104492;
816019;-0.010742;0.026367;1.101562;
816229;-0.011719;0.027344;1.101562;
816449;-0.014648;0.025391;1.094727;
816669;-0.012695;0.021484;1.084961;
816879;-0.012695;0.025391;1.083008;
817094;-0.014648;0.030273;1.078125;
817324;-0.013672;0.026367;1.078125;
817764;-0.010742;0.026367;1.080078;
818004;-0.011719;0.021484;1.090820;
818239;-0.014648;0.022461;1.083984;
818449;-0.011719;0.024414;1.084961;
818659;-0.009766;0.022461;1.069336;
818879;-0.010742;0.024414;1.058594;
819089;-0.009766;0.021484;1.054688;
819304;-0.013672;0.020508;1.059570;
819529;-0.009766;0.025391;1.060547;
819749;-0.008789;0.023438;1.074219;
819969;-0.009766;0.025391;1.077148;
820189;-0.010742;0.029297;1.070312;
820409;-0.011719;0.031250;1.070312;
820619;-0.009766;0.029297;1.073242;
820829;-0.008789;0.023438;1.072266;
821049;-0.009766;0.023438;1.058594;
821255;-0.009766;0.021484;1.050781;
821484;-0.014648;0.022461;1.031250;
821716;-0.011719;0.023438;1.028320;
821949;-0.012695;0.027344;1.015625;
822169;-0.015625;0.026367;1.008789;
822389;-0.012695;0.021484;1.000000;
822609;-0.015625;0.022461;0.997070;
822819;-0.011719;0.024414;1.016602;
823029;-0.012695;0.018555;1.022461;
823239;-0.009766;0.024414;1.045898;
823459;-0.009766;0.026367;1.058594;
823669;-0.010742;0.026367;1.066406;
823879;-0.006836;0.027344;1.093750;
824089;-0.007812;0.025391;1.102539;
824299;-0.006836;0.024414;1.095703;
824509;-0.009766;0.023438;1.105469;
824714;-0.005859;0.030273;1.113281;
824934;-0.008789;0.026367;1.101562;
825165;-0.006836;0.023438;1.079102;
825374;-0.010742;0.023438;1.072266;
825609;-0.009766;0.024414;1.062500;
825819;-0.010742;0.027344;1.053711;
826039;-0.012695;0.023438;1.040039;
826259;-0.011719;0.025391;1.024414;
826469;-0.013672;0.024414;1.006836;
826689;-0.009766;0.021484;1.007812;
826899;-0.012695;0.026367;1.012695;
827119;-0.014648;0.024414;1.008789;
827339;-0.011719;0.025391;1.016602;
827559;-0.013672;0.023438;1.013672;
827769;-0.011719;0.023438;1.018555;
827989;-0.011719;0.020508;1.027344;
828209;-0.010742;0.023438;1.036133;
828424;-0.013672;0.020508;1.039062;
828644;-0.010742;0.020508;1.034180;
828874;-0.010742;0.022461;1.042969;
829104;-0.008789;0.032227;1.034180;
829319;-0.011719;0.028320;1.027344;
829529;-0.008789;0.022461;1.012695;
829739;-0.010742;0.019531;1.011719;
829959;-0.008789;0.025391;1.015625;
830179;-0.010742;0.023438;1.006836;
830389;-0.010742;0.023438;0.990234;
830599;-0.015625;0.021484;0.960938;
830819;-0.014648;0.020508;0.943359;
831039;-0.016602;0.026367;0.948242;
831249;-0.012695;0.024414;0.933594;
831469;-0.016602;0.025391;0.911133;
831684;-0.013672;0.025391;0.924805;
831909;-0.014648;0.024414;0.911133;
832121;-0.015625;0.025391;0.906250;
832335;-0.015625;0.020508;0.926758;
832564;-0.014648;0.029297;0.940430;
832784;-0.014648;0.029297;0.953125;
833009;-0.012695;0.023438;0.969727;
833219;-0.010742;0.024414;1.012695;
833429;-0.009766;0.027344;1.027344;
833639;-0.009766;0.023438;1.026367;
833859;-0.005859;0.029297;1.031250;
834069;-0.008789;0.023438;1.016602;
834279;-0.009766;0.024414;0.983398;
834489;-0.011719;0.022461;0.975586;
834709;-0.013672;0.026367;0.949219;
834929;-0.014648;0.024414;0.918945;
835149;-0.017578;0.027344;0.905273;
835369;-0.018555;0.021484;0.890625;
835579;-0.016602;0.021484;0.887695;
835785;-0.014648;0.030273;0.905273;
836004;-0.014648;0.021484;0.915039;
836234;-0.012695;0.026367;0.925781;
836454;-0.011719;0.022461;0.951172;
836669;-0.012695;0.027344;0.985352;
836889;-0.008789;0.024414;1.010742;
837099;-0.008789;0.027344;1.030273;
837309;-0.005859;0.022461;1.045898;
837519;-0.006836;0.024414;1.044922;
837739;-0.004883;0.023438;1.040039;
837949;-0.008789;0.021484;1.033203;
838169;-0.009766;0.021484;1.018555;
838389;-0.006836;0.024414;1.007812;
838599;-0.012695;0.028320;1.003906;
838809;-0.008789;0.025391;0.995117;
839019;-0.010742;0.023438;0.969727;
839239;-0.012695;0.022461;0.970703;
839449;-0.010742;0.030273;0.972656;
839664;-0.012695;0.027344;0.979492;
839884;-0.012695;0.028320;1.004883;
840114;-0.012695;0.025391;1.010742;
840324;-0.007812;0.026367;1.033203;
840549;-0.002930;0.026367;1.073242;
840759;-0.005859;0.024414;1.086914;
840969;-0.001953;0.023438;1.091797;
841179;-0.002930;0.028320;1.108398;
841389;-0.004883;0.024414;1.093750;
841609;0.001953;0.026367;1.088867;
841819;-0.005859;0.026367;1.069336;
842039;-0.006836;0.027344;1.049805;
842259;-0.009766;0.024414;1.032227;
842479;-0.009766;0.021484;1.010742;
842689;-0.010742;0.022461;0.993164;
842909;-0.008789;0.025391;0.971680;
843129;-0.011719;0.022461;0.964844;
843340;-0.011719;0.018555;0.966797;
843564;-0.008789;0.022461;0.981445;
843785;-0.007812;0.018555;0.984375;
844015;-0.007812;0.020508;1.002930;
844239;-0.008789;0.027344;1.020508;
844459;-0.008789;0.022461;1.030273;
844679;-0.006836;0.024414;1.028320;
844889;-0.008789;0.022461;1.032227;
845109;-0.003906;0.029297;1.029297;
845324;-0.009766;0.025391;1.020508;
845539;-0.005859;0.027344;1.005859;
845759;-0.007812;0.020508;0.995117;
845969;-0.008789;0.024414;0.974609;
846189;-0.006836;0.024414;0.977539;
846409;-0.006836;0.024414;0.971680;
846629;-0.006836;0.020508;0.967773;
846839;-0.008789;0.020508;0.968750;
847054;-0.012695;0.020508;0.971680;
847264;-0.005859;0.024414;0.977539;
847484;-0.008789;0.022461;0.977539;
847714;-0.008789;0.022461;0.982422;
847949;-0.006836;0.027344;0.985352;
848159;-0.010742;0.028320;1.000000;
848369;-0.009766;0.025391;0.991211;
848589;-0.007812;0.026367;0.989258;
848809;-0.010742;0.025391;0.974609;
849029;-0.010742;0.026367;0.970703;
849249;-0.011719;0.025391;0.970703;
849469;-0.009766;0.027344;0.960938;
849689;-0.010742;0.024414;0.947266;
849899;-0.012695;0.021484;0.937500;
850119;-0.010742;0.026367;0.916992;
850339;-0.009766;0.023438;0.907227;
850559;-0.009766;0.025391;0.883789;
850771;-0.008789;0.023438;0.894531;
850994;0.000000;0.022461;0.919922;
851225;-0.003906;0.023438;0.942383;
851444;0.000000;0.022461;0.996094;
851679;0.000000;0.020508;1.029297;
851899;0.000000;0.025391;1.084961;
852119;0.003906;0.021484;1.115234;
852329;0.003906;0.020508;1.140625;
852549;0.008789;0.021484;1.159180;
852759;0.005859;0.019531;1.161133;
852969;0.004883;0.022461;1.150391;
853179;0.004883;0.024414;1.134766;
853389;0.001953;0.022461;1.107422;
853599;-0.001953;0.024414;1.060547;
853809;-0.001953;0.023438;1.051758;
854019;0.000000;0.025391;1.043945;
854239;0.000977;0.024414;1.057617;
854459;0.002930;0.024414;1.063477;
854664;0.003906;0.023438;1.090820;
854884;0.007812;0.025391;1.113281;
855108;0.005859;0.023438;1.126953;
855329;0.004883;0.022461;1.127930;
855550;0.005859;0.024414;1.123047;
855779;0.004883;0.020508;1.124023;
855989;0.005859;0.023438;1.106445;
856199;0.004883;0.021484;1.089844;
856409;0.002930;0.019531;1.064453;
856629;0.000977;0.023438;1.051758;
856839;0.000977;0.024414;1.028320;
857059;-0.000977;0.023438;1.025391;
857279;-0.000977;0.025391;1.040039;
857489;-0.001953;0.020508;1.046875;
857699;0.002930;0.027344;1.063477;
857919;-0.000977;0.022461;1.064453;
858129;-0.000977;0.024414;1.076172;
858344;0.000977;0.023438;1.080078;
858555;0.001953;0.020508;1.071289;
858774;0.000977;0.024414;1.074219;
859009;0.000000;0.024414;1.047852;
859219;0.000000;0.022461;1.035156;
859429;-0.002930;0.020508;1.004883;
859639;-0.002930;0.025391;1.020508;
859849;-0.005859;0.022461;1.004883;
860059;-0.001953;0.024414;1.006836;
860269;-0.001953;0.023438;0.989258;
860489;-0.003906;0.023438;1.001953;
860699;-0.004883;0.016602;0.990234;
860919;-0.002930;0.026367;1.005859;
861139;-0.006836;0.025391;1.015625;
861359;-0.001953;0.025391;1.016602;
861579;-0.002930;0.020508;1.032227;
861789;0.000000;0.026367;1.041992;
862004;0.001953;0.028320;1.065430;
862234;0.003906;0.024414;1.089844;
862454;0.002930;0.026367;1.115234;
862674;0.004883;0.025391;1.125977;
862909;0.006836;0.026367;1.129883;
863129;0.001953;0.021484;1.111328;
863349;0.000977;0.022461;1.087891;
863559;0.003906;0.022461;1.067383;
863779;-0.002930;0.023438;1.039062;
863989;-0.001953;0.026367;1.041992;
864200;-0.001953;0.026367;1.021484;
864429;-0.001953;0.022461;1.011719;
864639;-0.001953;0.023438;1.008789;
864859;-0.003906;0.026367;1.015625;
865069;-0.000977;0.018555;1.024414;
865279;-0.001953;0.020508;1.019531;
865499;-0.001953;0.027344;1.038086;
865709;0.001953;0.025391;1.042969;
865934;-0.001953;0.024414;1.043945;
866154;-0.000977;0.028320;1.067383;
866384;0.000000;0.022461;1.054688;
866619;-0.000977;0.025391;1.054688;
866834;0.000977;0.025391;1.062500;
867059;-0.000977;0.022461;1.056641;
867279;0.000000;0.025391;1.059570;
867499;0.001953;0.024414;1.067383;
867709;0.000977;0.023438;1.071289;
867919;0.001953;0.024414;1.077148;
868139;0.001953;0.028320;1.069336;
868359;0.000000;0.027344;1.068359;
868569;0.000977;0.030273;1.072266;
868789;-0.002930;0.031250;1.073242;
869009;0.000977;0.035156;1.077148;
869229;-0.000977;0.031250;1.082031;
869439;0.000977;0.031250;1.075195;
869654;0.000000;0.027344;1.074219;
869874;0.000000;0.029297;1.069336;
870094;0.003906;0.026367;1.073242;
870304;0.003906;0.022461;1.075195;
870529;0.000977;0.023438;1.065430;
870749;0.002930;0.022461;1.071289;
870959;0.000000;0.019531;1.072266;
871164;0.001953;0.021484;1.079102;
871389;-0.000977;0.018555;1.069336;
871599;0.002930;0.021484;1.071289;
871809;0.001953;0.019531;1.070312;
872029;0.001953;0.020508;1.081055;
872239;0.000977;0.024414;1.073242;
872459;0.000977;0.020508;1.071289;
872679;0.003906;0.024414;1.080078;
872899;0.000000;0.026367;1.082031;
873119;0.000977;0.020508;1.074219;
873339;0.002930;0.021484;1.079102;
873544;0.002930;0.021484;1.088867;
873754;0.000977;0.022461;1.087891;
873974;0.003906;0.020508;1.082031;
874199;0.000977;0.016602;1.081055;
874429;0.000977;0.020508;1.078125;
874649;-0.001953;0.013672;1.044922;
874859;-0.000977;0.014648;1.035156;
875069;-0.001953;0.024414;1.016602;
875279;-0.000977;0.021484;1.001953;
875489;-0.002930;0.012695;0.971680;
875709;-0.003906;0.016602;0.947266;
875929;-0.008789;0.020508;0.930664;
876139;-0.007812;0.014648;0.908203;
876349;-0.005859;0.021484;0.909180;
876569;-0.010742;0.017578;0.890625;
876789;-0.002930;0.020508;0.912109;
877009;-0.005859;0.024414;0.924805;
877225;-0.008789;0.021484;0.930664;
877444;-0.005859;0.023438;0.962891;
877664;-0.001953;0.019531;0.973633;
877899;-0.004883;0.022461;1.000977;
878119;-0.001953;0.019531;1.027344;
878339;-0.000977;0.015625;1.034180;
878559;-0.000977;0.018555;1.056641;
878769;0.002930;0.012695;1.067383;
878979;0.004883;0.014648;1.078125;
879189;0.004883;0.011719;1.083008;
879409;0.000000;0.017578;1.070312;
879629;-0.001953;0.017578;1.058594;
879839;-0.002930;0.020508;1.044922;
880059;-0.001953;0.017578;1.026367;
880269;-0.003906;0.021484;1.012695;
880499;-0.002930;0.021484;1.004883;
880709;-0.004883;0.021484;1.013672;
880914;-0.002930;0.022461;1.016602;
881125;0.000000;0.026367;1.021484;
881334;-0.002930;0.016602;1.026367;
881555;0.000000;0.017578;1.039062;
881789;0.002930;0.017578;1.050781;
882009;-0.000977;0.015625;1.048828;
882219;-0.000977;0.015625;1.048828;
882439;0.000977;0.017578;1.054688;
882649;0.000977;0.015625;1.052734;
882859;0.003906;0.022461;1.057617;
883079;-0.000977;0.015625;1.037109;
883289;-0.000977;0.020508;1.049805;
883499;-0.000977;0.016602;1.045898;
883709;0.000000;0.021484;1.056641;
883919;0.000000;0.020508;1.055664;
884129;-0.001953;0.021484;1.059570;
884349;-0.000977;0.018555;1.075195;
884569;0.001953;0.023438;1.077148;
884785;0.000977;0.018555;1.083008;
884994;0.000977;0.020508;1.087891;
885214;0.005859;0.015625;1.096680;
885439;0.000977;0.016602;1.097656;
885659;0.001953;0.019531;1.092773;
885869;0.002930;0.017578;1.093750;
886089;-0.000977;0.017578;1.069336;
886299;0.000977;0.019531;1.056641;
886509;0.001953;0.020508;1.047852;
886729;-0.000977;0.012695;1.038086;
886939;-0.001953;0.019531;1.043945;
887149;-0.002930;0.015625;1.035156;
887359;0.000977;0.022461;1.030273;
887579;-0.001953;0.014648;1.021484;
887789;-0.004883;0.022461;1.007812;
887999;-0.003906;0.018555;1.005859;
888209;-0.003906;0.020508;0.991211;
888424;-0.002930;0.020508;0.992188;
888644;-0.003906;0.017578;0.981445;
888864;-0.004883;0.015625;0.964844;
889099;-0.003906;0.026367;0.961914;
889309;-0.005859;0.018555;0.934570;
889529;-0.005859;0.019531;0.923828;
889749;-0.004883;0.020508;0.918945;
889959;-0.007812;0.021484;0.910156;
890169;-0.007812;0.022461;0.911133;
890379;-0.011719;0.015625;0.890625;
890599;-0.005859;0.020508;0.916016;
890809;-0.009766;0.020508;0.922852;
891019;-0.009766;0.021484;0.937500;
891229;-0.005859;0.019531;0.945312;
891449;-0.007812;0.018555;0.954102;
891659;-0.005859;0.021484;0.973633;
891879;-0.005859;0.016602;0.969727;
892094;-0.004883;0.021484;0.975586;
892314;-0.007812;0.023438;0.993164;
892534;-0.003906;0.026367;0.983398;
892744;-0.001953;0.018555;0.995117;
892969;-0.005859;0.020508;0.989258;
893179;-0.004883;0.017578;1.004883;
893399;-0.001953;0.021484;0.999023;
893609;-0.004883;0.023438;0.993164;
893829;-0.002930;0.023438;0.994141;
894049;-0.002930;0.023438;0.997070;
894259;-0.005859;0.023438;0.992188;
894469;-0.005859;0.021484;1.002930;
894689;-0.006836;0.022461;0.990234;
894909;-0.003906;0.020508;1.000977;
895129;-0.001953;0.020508;1.005859;
895349;-0.005859;0.021484;1.002930;
895559;-0.003906;0.024414;1.010742;
895769;-0.004883;0.017578;1.011719;
895984;-0.002930;0.025391;1.021484;
896214;-0.001953;0.021484;1.022461;
896444;-0.003906;0.017578;1.020508;
896669;-0.006836;0.023438;1.030273;
896879;-0.002930;0.021484;1.034180;
897089;-0.004883;0.019531;1.012695;
897309;-0.005859;0.016602;1.025391;
897529;-0.004883;0.014648;1.024414;
897749;-0.002930;0.016602;1.029297;
897964;0.000000;0.016602;1.041016;
898189;-0.003906;0.017578;1.040039;
898409;-0.001953;0.013672;1.041016;
898619;-0.003906;0.020508;1.035156;
898839;-0.003906;0.014648;1.005859;
899059;-0.003906;0.018555;0.998047;
899279;-0.008789;0.018555;0.968750;
899499;-0.009766;0.021484;0.969727;
899704;-0.007812;0.020508;0.965820;
899934;-0.008789;0.021484;0.962891;
900154;-0.004883;0.019531;0.981445;
900379;-0.004883;0.025391;1.003906;
900589;-0.004883;0.023438;1.008789;
900799;-0.008789;0.020508;1.026367;
901009;-0.006836;0.023438;1.020508;
901219;-0.005859;0.017578;1.018555;
901439;-0.004883;0.018555;1.037109;
901649;-0.003906;0.022461;1.018555;
901869;-0.005859;0.019531;1.015625;
902080;-0.003906;0.020508;1.011719;
902299;-0.004883;0.017578;0.988281;
902509;-0.004883;0.022461;1.002930;
902719;-0.008789;0.018555;0.991211;
902939;-0.007812;0.021484;0.991211;
903159;-0.006836;0.018555;0.983398;
903374;-0.010742;0.024414;0.984375;
903604;-0.008789;0.022461;0.996094;
903834;-0.008789;0.018555;1.002930;
904059;-0.007812;0.023438;1.015625;
904279;-0.004883;0.019531;1.033203;
904489;-0.005859;0.019531;1.041992;
904709;-0.005859;0.024414;1.037109;
904929;-0.007812;0.019531;1.041016;
905140;-0.003906;0.020508;1.049805;
905359;-0.001953;0.021484;1.048828;
905579;-0.001953;0.021484;1.048828;
905789;-0.002930;0.027344;1.041016;
905999;-0.002930;0.022461;1.046875;
906209;-0.001953;0.024414;1.055664;
906419;-0.005859;0.029297;1.041992;
906629;-0.003906;0.021484;1.041016;
906839;-0.004883;0.025391;1.035156;
907054;-0.003906;0.016602;1.032227;
907284;-0.000977;0.024414;1.022461;
907514;-0.001953;0.022461;1.017578;
907749;0.000000;0.022461;1.017578;
907969;0.000977;0.026367;1.017578;
908190;-0.001953;0.026367;1.018555;
908419;0.000000;0.024414;1.003906;
908639;0.000000;0.025391;1.007812;
908849;0.002930;0.020508;1.013672;
909069;0.002930;0.024414;1.021484;
909279;-0.000977;0.020508;1.008789;
909489;-0.001953;0.022461;1.010742;
909699;-0.002930;0.023438;1.002930;
909919;-0.005859;0.026367;0.997070;
910139;-0.003906;0.025391;0.996094;
910359;-0.006836;0.029297;0.985352;
910569;-0.009766;0.031250;0.967773;
910784;-0.009766;0.029297;0.956055;
910994;-0.006836;0.030273;0.953125;
911225;-0.009766;0.029297;0.954102;
911434;-0.008789;0.029297;0.951172;
911659;-0.003906;0.029297;0.967773;
911869;-0.006836;0.026367;0.975586;
912079;-0.006836;0.026367;0.977539;
912289;-0.004883;0.026367;1.006836;
912509;-0.004883;0.019531;1.023438;
912719;-0.004883;0.019531;1.024414;
912939;-0.006836;0.024414;1.031250;
913149;-0.005859;0.023438;1.039062;
913369;-0.002930;0.023438;1.035156;
913579;-0.004883;0.027344;1.038086;
913789;-0.007812;0.026367;1.028320;
914009;-0.006836;0.023438;1.009766;
914219;-0.005859;0.025391;1.018555;
914429;-0.007812;0.030273;1.018555;
914654;-0.006836;0.035156;1.004883;
914884;-0.008789;0.031250;0.991211;
915104;-0.011719;0.030273;1.005859;
915329;-0.014648;0.026367;1.019531;
915549;-0.016602;0.024414;1.018555;
915769;-0.022461;0.022461;1.016602;
915989;-0.025391;0.021484;1.017578;
916199;-0.026367;0.027344;1.019531;
916419;-0.030273;0.020508;1.000977;
916639;-0.035156;0.019531;0.986328;
916849;-0.033203;0.023438;0.987305;
917069;-0.032227;0.028320;0.990234;
917279;-0.037109;0.021484;0.992188;
917489;-0.038086;0.028320;0.987305;
917709;-0.036133;0.024414;0.998047;
917929;-0.038086;0.028320;1.015625;
918149;-0.034180;0.023438;0.990234;
918364;-0.037109;0.026367;0.992188;
918574;-0.031250;0.026367;1.012695;
918784;-0.037109;0.025391;0.998047;
919009;-0.037109;0.024414;1.016602;
919229;-0.036133;0.027344;1.013672;
919439;-0.035156;0.021484;1.004883;
919659;-0.035156;0.025391;1.007812;
919869;-0.034180;0.018555;1.000000;
920079;-0.031250;0.021484;1.019531;
920299;-0.035156;0.024414;1.000977;
920509;-0.036133;0.025391;1.015625;
920719;-0.037109;0.016602;1.008789;
920934;-0.033203;0.021484;1.002930;
921159;-0.035156;0.025391;1.026367;
921369;-0.036133;0.026367;1.021484;
921589;-0.037109;0.024414;1.028320;
921809;-0.039062;0.024414;1.015625;
922024;-0.036133;0.021484;1.019531;
922234;-0.037109;0.023438;1.016602;
922444;-0.033203;0.020508;1.023438;
922679;-0.035156;0.023438;1.042969;
922899;-0.032227;0.022461;1.043945;
923119;-0.035156;0.027344;1.078125;
923339;-0.035156;0.025391;1.083008;
923559;-0.038086;0.021484;1.109375;
923769;-0.035156;0.022461;1.112305;
923989;-0.033203;0.026367;1.111328;
924209;-0.039062;0.022461;1.104492;
924419;-0.044922;0.024414;1.102539;
924639;-0.040039;0.026367;1.092773;
924859;-0.041992;0.027344;1.093750;
925069;-0.049805;0.024414;1.072266;
925279;-0.045898;0.023438;1.071289;
925489;-0.044922;0.027344;1.075195;
925704;-0.049805;0.026367;1.072266;
925935;-0.050781;0.028320;1.067383;
926154;-0.051758;0.025391;1.064453;
926386;-0.049805;0.029297;1.086914;
926609;-0.049805;0.024414;1.083008;
926819;-0.054688;0.021484;1.082031;
927029;-0.052734;0.021484;1.087891;
927239;-0.054688;0.025391;1.083008;
927459;-0.055664;0.021484;1.085938;
927669;-0.052734;0.017578;1.068359;
927879;-0.050781;0.023438;1.077148;
928089;-0.054688;0.026367;1.074219;
928309;-0.057617;0.025391;1.074219;
928529;-0.056641;0.030273;1.071289;
928739;-0.060547;0.026367;1.082031;
928959;-0.057617;0.030273;1.079102;
929169;-0.058594;0.018555;1.072266;
929389;-0.062500;0.030273;1.067383;
929599;-0.059570;0.023438;1.050781;
929804;-0.064453;0.021484;1.037109;
930034;-0.060547;0.025391;1.039062;
930254;-0.062500;0.019531;1.029297;
930489;-0.058594;0.027344;1.065430;
930709;-0.048828;0.029297;1.073242;
930919;-0.048828;0.022461;1.092773;
931129;-0.047852;0.025391;1.113281;
931349;-0.045898;0.027344;1.127930;
931559;-0.043945;0.024414;1.142578;
931779;-0.041016;0.023438;1.153320;
931989;-0.040039;0.025391;1.160156;
932209;-0.039062;0.023438;1.168945;
932419;-0.035156;0.022461;1.174805;
932639;-0.031250;0.018555;1.158203;
932859;-0.030273;0.020508;1.168945;
933079;-0.028320;0.026367;1.185547;
933299;-0.022461;0.021484;1.208008;
933514;-0.016602;0.017578;1.212891;
933744;-0.010742;0.020508;1.231445;
933967;-0.007812;0.022461;1.251953;
934184;-0.002930;0.023438;1.269531;
934389;0.002930;0.021484;1.270508;
934609;-0.004883;0.025391;1.244141;
934819;-0.003906;0.021484;1.223633;
935039;-0.005859;0.023438;1.179688;
935249;-0.009766;0.022461;1.162109;
935469;-0.010742;0.023438;1.134766;
935679;-0.003906;0.025391;1.146484;
935899;-0.001953;0.019531;1.129883;
936109;0.006836;0.023438;1.139648;
936329;0.007812;0.021484;1.133789;
936549;0.004883;0.021484;1.130859;
936759;0.002930;0.021484;1.121094;
936969;0.005859;0.025391;1.109375;
937179;0.000977;0.022461;1.091797;
937384;0.004883;0.026367;1.059570;
937604;0.000977;0.028320;1.040039;
937824;-0.000977;0.027344;1.018555;
938059;0.000000;0.023438;1.004883;
938269;0.000977;0.023438;0.993164;
938489;-0.002930;0.025391;0.973633;
938699;-0.002930;0.022461;0.959961;
938919;-0.002930;0.025391;0.955078;
939129;-0.002930;0.022461;0.943359;
939349;-0.001953;0.022461;0.917969;
939559;-0.004883;0.022461;0.894531;
939779;-0.005859;0.025391;0.901367;
939989;-0.003906;0.020508;0.918945;
940209;-0.004883;0.025391;0.964844;
940419;-0.003906;0.024414;0.989258;
940629;-0.004883;0.022461;1.023438;
940849;-0.006836;0.028320;1.052734;
941064;-0.007812;0.027344;1.074219;
941274;-0.008789;0.022461;1.080078;
941496;-0.005859;0.022461;1.078125;
941719;-0.006836;0.024414;1.042969;
941939;-0.006836;0.020508;1.015625;
942149;-0.003906;0.024414;1.016602;
942369;-0.003906;0.021484;0.988281;
942574;-0.000977;0.028320;0.992188;
942789;0.000977;0.028320;1.014648;
943009;0.003906;0.027344;1.022461;
943229;0.002930;0.027344;1.037109;
