Time;acc_x;acc_y;acc_z;

1839;0.072266;0.024414;1.115234;
1983;0.074219;0.021484;1.107422;
2123;0.073242;0.025391;1.099609;
2263;0.073242;0.026367;1.091797;
2403;0.074219;0.024414;1.084961;
2543;0.071289;0.021484;1.060547;
2683;0.070312;0.026367;1.072266;
2824;0.074219;0.024414;1.046875;
2963;0.070312;0.025391;1.033203;
3103;0.073242;0.019531;1.022461;
3243;0.072266;0.021484;1.031250;
3383;0.073242;0.018555;1.026367;
3523;0.070312;0.024414;1.013672;
3663;0.074219;0.019531;1.026367;
3803;0.073242;0.022461;1.033203;
3943;0.075195;0.022461;1.046875;
4083;0.077148;0.020508;1.066406;
4223;0.077148;0.022461;1.055664;
4363;0.074219;0.020508;1.052734;
4499;0.075195;0.020508;1.055664;
4639;0.074219;0.018555;1.031250;
4779;0.072266;0.024414;1.038086;
4919;0.071289;0.018555;1.026367;
5069;0.070312;0.018555;1.019531;
5223;0.071289;0.020508;1.015625;
5363;0.069336;0.022461;1.010742;
5503;0.069336;0.020508;1.015625;
5640;0.071289;0.016602;1.001953;
5783;0.072266;0.021484;1.007812;
5933;0.071289;0.018555;0.998047;
6073;0.071289;0.022461;0.990234;
6213;0.068359;0.024414;0.982422;
6363;0.071289;0.020508;0.997070;
6503;0.071289;0.024414;1.000000;
6643;0.071289;0.027344;1.024414;
6783;0.068359;0.029297;1.025391;
6923;0.070312;0.022461;1.046875;
7063;0.073242;0.022461;1.056641;
7199;0.071289;0.025391;1.052734;
7339;0.072266;0.021484;1.069336;
7489;0.076172;0.024414;1.071289;
7639;0.076172;0.019531;1.070312;
7779;0.075195;0.017578;1.075195;
7920;0.075195;0.027344;1.049805;
8058;0.075195;0.019531;1.033203;
8213;0.076172;0.020508;1.017578;
8363;0.075195;0.024414;1.014648;
8503;0.077148;0.027344;1.002930;
8643;0.075195;0.020508;0.998047;
8793;0.075195;0.025391;0.995117;
8933;0.071289;0.025391;0.988281;
9073;0.074219;0.024414;1.010742;
9213;0.075195;0.024414;1.006836;
9353;0.075195;0.025391;1.023438;
9503;0.075195;0.019531;1.029297;
9643;0.079102;0.019531;1.048828;
9783;0.079102;0.024414;1.043945;
9923;0.077148;0.018555;1.031250;
10063;0.077148;0.022461;1.062500;
10199;0.078125;0.020508;1.043945;
10350;0.078125;0.021484;1.039062;
10499;0.074219;0.021484;1.045898;
10640;0.080078;0.020508;1.038086;
10780;0.077148;0.019531;1.024414;
10923;0.077148;0.022461;1.026367;
11059;0.075195;0.019531;1.039062;
11189;0.078125;0.027344;1.053711;
11343;0.079102;0.028320;1.044922;
11483;0.081055;0.020508;1.041992;
11623;0.076172;0.021484;1.053711;
11763;0.079102;0.028320;1.054688;
11903;0.076172;0.025391;1.061523;
12043;0.079102;0.020508;1.061523;
12183;0.082031;0.020508;1.074219;
12323;0.083984;0.016602;1.067383;
12463;0.081055;0.017578;1.059570;
12603;0.082031;0.014648;1.047852;
12743;0.082031;0.015625;1.061523;
12893;0.083008;0.014648;1.053711;
13033;0.083008;0.019531;1.046875;
13173;0.083984;0.025391;1.039062;
13309;0.079102;0.016602;1.026367;
13439;0.080078;0.019531;1.033203;
13583;0.078125;0.019531;1.023438;
13730;0.079102;0.023438;1.010742;
13879;0.079102;0.023438;0.984375;
14019;0.077148;0.025391;0.995117;
14173;0.080078;0.024414;1.000977;
14313;0.077148;0.025391;1.015625;
14453;0.077148;0.027344;1.017578;
14603;0.081055;0.029297;1.025391;
14743;0.075195;0.019531;1.008789;
14883;0.075195;0.018555;1.035156;
15033;0.078125;0.019531;1.094727;
15173;0.083008;0.020508;1.164062;
15313;0.082031;0.021484;1.204102;
15453;0.085938;0.017578;1.278320;
15593;0.091797;0.017578;1.347656;
15733;0.091797;0.024414;1.440430;
15873;0.097656;0.017578;1.525391;
16013;0.103516;0.016602;1.585938;
16148;0.106445;0.010742;1.638672;
16289;0.111328;0.020508;1.692383;
16433;0.114258;0.015625;1.751953;
16559;0.118164;0.018555;1.799805;
16693;0.120117;0.015625;1.820312;
16839;0.122070;0.015625;1.868164;
16989;0.125000;0.021484;1.916992;
17140;0.127930;0.018555;1.942383;
17273;0.127930;0.015625;1.964844;
17413;0.128906;0.016602;1.968750;
17553;0.131836;0.010742;1.964844;
17703;0.131836;0.017578;1.955078;
17843;0.132812;0.018555;1.964844;
17983;0.128906;0.010742;1.949219;
18123;0.128906;0.013672;1.917969;
18263;0.130859;0.010742;1.909180;
18413;0.125977;0.012695;1.911133;
18553;0.123047;0.014648;1.914062;
18693;0.128906;0.010742;1.911133;
18833;0.128906;0.009766;1.920898;
18973;0.125977;0.012695;1.886719;
19113;0.126953;0.010742;1.887695;
19259;0.129883;0.016602;1.903320;
19403;0.128906;0.014648;1.901367;
19543;0.130859;0.015625;1.911133;
19673;0.129883;0.017578;1.890625;
19811;0.129883;0.018555;1.905273;
19959;0.128906;0.019531;1.902344;
20099;0.126953;0.016602;1.891602;
20249;0.126953;0.013672;1.897461;
20399;0.131836;0.013672;1.890625;
20550;0.127930;0.013672;1.867188;
20703;0.126953;0.015625;1.868164;
20843;0.125977;0.014648;1.864258;
20993;0.124023;0.015625;1.851562;
21133;0.127930;0.012695;1.842773;
21273;0.127930;0.013672;1.842773;
21413;0.128906;0.015625;1.833008;
21553;0.125000;0.010742;1.812500;
21693;0.126953;0.015625;1.835938;
21833;0.128906;0.019531;1.833984;
21973;0.125000;0.018555;1.837891;
22123;0.126953;0.010742;1.837891;
22263;0.129883;0.018555;1.819336;
22403;0.131836;0.018555;1.825195;
22553;0.130859;0.010742;1.823242;
22699;0.129883;0.012695;1.838867;
22839;0.127930;0.014648;1.834961;
22989;0.135742;0.011719;1.848633;
23129;0.136719;0.010742;1.842773;
23280;0.137695;0.011719;1.844727;
23433;0.134766;0.013672;1.841797;
23573;0.135742;0.010742;1.837891;
23713;0.137695;0.011719;1.840820;
23853;0.136719;0.004883;1.841797;
23993;0.134766;0.005859;1.830078;
24133;0.136719;0.018555;1.842773;
24273;0.140625;0.015625;1.848633;
24413;0.138672;0.010742;1.837891;
24553;0.139648;0.004883;1.829102;
24693;0.140625;0.018555;1.847656;
24833;0.140625;0.006836;1.846680;
24973;0.142578;0.007812;1.841797;
25113;0.142578;0.010742;1.842773;
25253;0.146484;0.013672;1.862305;
25389;0.145508;0.014648;1.843750;
25539;0.141602;0.012695;1.833008;
25689;0.141602;0.009766;1.854492;
25830;0.148438;0.012695;1.846680;
25980;0.146484;0.008789;1.835938;
26123;0.148438;0.008789;1.845703;
26263;0.147461;0.007812;1.834961;
26403;0.148438;0.006836;1.822266;
26543;0.149414;0.007812;1.815430;
26693;0.149414;0.001953;1.824219;
26833;0.148438;0.006836;1.816406;
26973;0.153320;0.001953;1.804688;
27123;0.153320;0.005859;1.818359;
27263;0.154297;0.008789;1.820312;
27413;0.157227;0.011719;1.821289;
27553;0.153320;0.018555;1.825195;
27693;0.157227;0.014648;1.831055;
27843;0.162109;0.004883;1.805664;
27983;0.158203;0.006836;1.817383;
28119;0.156250;0.009766;1.809570;
28273;0.161133;0.003906;1.819336;
28409;0.161133;0.000977;1.818359;
28559;0.165039;0.000977;1.833008;
28709;0.164062;-0.001953;1.844727;
28849;0.170898;0.004883;1.869141;
28990;0.168945;0.005859;1.872070;
29129;0.173828;0.003906;1.885742;
29283;0.173828;0.013672;1.905273;
29433;0.175781;0.015625;1.916016;
29573;0.176758;0.014648;1.925781;
29713;0.177734;0.012695;1.923828;
29863;0.178711;0.016602;1.944336;
30003;0.182617;0.020508;1.947266;
30143;0.182617;0.016602;1.939453;
30283;0.181641;0.017578;1.922852;
30423;0.183594;0.011719;1.880859;
30563;0.180664;0.011719;1.836914;
30703;0.176758;0.009766;1.837891;
30843;0.181641;0.010742;1.806641;
30983;0.179688;0.014648;1.805664;
31123;0.178711;0.019531;1.785156;
31259;0.180664;0.013672;1.781250;
31409;0.180664;0.014648;1.791016;
31549;0.182617;0.020508;1.806641;
31699;0.189453;0.016602;1.824219;
31829;0.191406;0.008789;1.818359;
31969;0.188477;0.008789;1.798828;
32103;0.193359;0.006836;1.796875;
32253;0.193359;0.008789;1.811523;
32393;0.195312;0.013672;1.794922;
32533;0.199219;0.010742;1.821289;
32673;0.198242;0.007812;1.818359;
32813;0.200195;0.008789;1.843750;
32953;0.204102;0.012695;1.844727;
33093;0.203125;0.014648;1.860352;
33243;0.207031;0.015625;1.838867;
33383;0.207031;0.011719;1.831055;
33523;0.207031;0.013672;1.797852;
33663;0.206055;0.015625;1.792969;
33813;0.207031;0.012695;1.769531;
33953;0.208008;0.009766;1.772461;
34089;0.208984;0.005859;1.741211;
34239;0.207031;0.011719;1.741211;
34379;0.200195;0.002930;1.710938;
34530;0.197266;0.011719;1.710938;
34673;0.196289;0.009766;1.703125;
34819;0.186523;0.020508;1.687500;
34963;0.177734;0.023438;1.693359;
35103;0.174805;0.024414;1.688477;
35250;0.166992;0.032227;1.694336;
35403;0.163086;0.041992;1.695312;
35543;0.157227;0.039062;1.676758;
35683;0.148438;0.038086;1.641602;
35823;0.142578;0.039062;1.570312;
35963;0.125977;0.029297;1.492188;
36103;0.114258;0.028320;1.416992;
36243;0.097656;0.024414;1.280273;
36393;0.073242;0.026367;1.139648;
36533;0.063477;0.021484;1.032227;
36673;0.046875;0.019531;0.858398;
36823;0.027344;0.021484;0.682617;
36963;0.017578;0.025391;0.576172;
37103;0.009766;0.026367;0.435547;
37253;0.012695;0.028320;0.363281;
37389;0.004883;0.025391;0.247070;
37539;0.006836;0.028320;0.201172;
37679;0.004883;0.025391;0.107422;
37830;0.005859;0.029297;0.053711;
37979;0.008789;0.027344;0.012695;
38129;0.004883;0.028320;-0.016602;
38273;0.001953;0.023438;-0.065430;
38413;0.003906;0.026367;-0.072266;
38553;0.003906;0.023438;-0.054688;
38693;0.000000;0.021484;-0.072266;
38833;0.003906;0.023438;-0.057617;
38973;-0.000977;0.023438;-0.070312;
39113;-0.002930;0.028320;-0.052734;
39253;-0.003906;0.026367;-0.047852;
39393;-0.006836;0.025391;-0.038086;
39533;-0.004883;0.025391;-0.030273;
39683;-0.004883;0.024414;-0.008789;
39823;-0.005859;0.027344;0.008789;
39963;-0.001953;0.028320;0.013672;
40103;-0.005859;0.029297;0.019531;
40240;-0.006836;0.028320;0.021484;
40379;-0.005859;0.030273;0.034180;
40519;-0.007812;0.030273;0.039062;
40669;-0.009766;0.034180;0.048828;
40819;-0.008789;0.031250;0.050781;
40969;-0.007812;0.030273;0.058594;
41129;-0.005859;0.032227;0.057617;
41269;-0.011719;0.031250;0.049805;
41413;-0.009766;0.029297;0.068359;
41553;-0.010742;0.031250;0.061523;
41693;-0.010742;0.034180;0.062500;
41839;-0.010742;0.038086;0.045898;
41993;-0.011719;0.038086;0.045898;
42133;-0.008789;0.037109;0.044922;
42273;-0.014648;0.039062;0.031250;
42479;-0.010742;0.035156;0.018555;
42713;-0.009766;0.037109;0.008789;
42933;-0.010742;0.036133;0.007812;
43153;-0.006836;0.036133;0.004883;
43363;-0.012695;0.035156;0.006836;
43569;-0.013672;0.033203;0.008789;
43789;-0.012695;0.032227;0.013672;
44020;-0.013672;0.029297;0.008789;
44240;-0.012695;0.033203;0.010742;
44449;-0.013672;0.029297;0.020508;
44663;-0.012695;0.028320;0.023438;
44873;-0.014648;0.035156;0.022461;
45083;-0.012695;0.028320;0.024414;
45293;-0.016602;0.036133;0.022461;
45503;-0.012695;0.030273;0.035156;
45723;-0.015625;0.032227;0.031250;
45933;-0.015625;0.031250;0.034180;
46143;-0.013672;0.030273;0.032227;
46373;-0.016602;0.033203;0.032227;
46583;-0.017578;0.033203;0.025391;
46803;-0.015625;0.029297;0.029297;
47013;-0.015625;0.031250;0.029297;
47233;-0.014648;0.030273;0.032227;
47443;-0.016602;0.029297;0.023438;
47659;-0.014648;0.028320;0.027344;
47879;-0.017578;0.029297;0.022461;
48101;-0.016602;0.028320;0.020508;
48311;-0.016602;0.032227;0.017578;
48529;-0.016602;0.031250;0.014648;
48763;-0.018555;0.031250;0.024414;
48973;-0.016602;0.028320;0.018555;
49183;-0.015625;0.028320;0.017578;
49389;-0.018555;0.025391;0.016602;
49613;-0.014648;0.027344;0.019531;
49823;-0.016602;0.025391;0.016602;
50030;-0.015625;0.027344;0.024414;
50253;-0.017578;0.026367;0.015625;
50463;-0.016602;0.025391;0.017578;
50683;-0.019531;0.028320;0.012695;
50903;-0.019531;0.027344;0.011719;
51119;-0.019531;0.024414;0.013672;
51333;-0.017578;0.024414;0.017578;
51543;-0.018555;0.026367;0.012695;
51769;-0.017578;0.027344;0.009766;
51979;-0.015625;0.025391;0.025391;
52188;-0.019531;0.028320;0.010742;
52408;-0.019531;0.028320;0.008789;
52643;-0.019531;0.029297;-0.001953;
52853;-0.019531;0.028320;0.003906;
53073;-0.022461;0.028320;0.006836;
53293;-0.020508;0.029297;0.004883;
53503;-0.021484;0.027344;0.004883;
53723;-0.023438;0.029297;0.008789;
54023;-0.024414;0.033203;0.003906;
54243;-0.020508;0.028320;0.007812;
54463;-0.024414;0.031250;0.005859;
54673;-0.024414;0.028320;0.012695;
54883;-0.022461;0.026367;0.009766;
55103;-0.021484;0.023438;0.010742;
55323;-0.026367;0.027344;0.013672;
55543;-0.023438;0.025391;0.016602;
55759;-0.023438;0.025391;0.018555;
55989;-0.026367;0.025391;0.010742;
56219;-0.023438;0.024414;0.004883;
56429;-0.025391;0.025391;0.012695;
56653;-0.026367;0.022461;0.031250;
56863;-0.026367;0.032227;0.007812;
57083;-0.031250;0.025391;0.058594;
57303;-0.029297;0.026367;0.004883;
57513;-0.028320;0.029297;-0.004883;
57733;-0.027344;0.026367;-0.003906;
57953;-0.028320;0.026367;-0.004883;
58168;-0.028320;0.027344;-0.009766;
58393;-0.031250;0.027344;0.006836;
58603;-0.030273;0.025391;0.016602;
58813;-0.034180;0.023438;0.025391;
59033;-0.032227;0.019531;0.032227;
59253;-0.034180;0.018555;0.042969;
59463;-0.035156;0.017578;0.065430;
59679;-0.037109;0.019531;0.073242;
59899;-0.039062;0.022461;0.077148;
60128;-0.037109;0.021484;0.071289;
60353;-0.037109;0.024414;0.078125;
60573;-0.039062;0.025391;0.062500;
60793;-0.043945;0.024414;0.050781;
61013;-0.041016;0.030273;0.046875;
61223;-0.045898;0.029297;0.029297;
61433;-0.046875;0.032227;0.025391;
61653;-0.045898;0.029297;0.042969;
61873;-0.051758;0.030273;0.139648;
62093;-0.047852;0.028320;0.257812;
62303;-0.045898;0.032227;0.409180;
62513;-0.031250;0.028320;0.628906;
62733;-0.020508;0.027344;0.791992;
62953;0.002930;0.029297;1.029297;
63173;0.013672;0.026367;1.186523;
63389;0.025391;0.027344;1.329102;
63619;0.037109;0.025391;1.443359;
63839;0.046875;0.024414;1.518555;
64059;0.056641;0.025391;1.577148;
64283;0.057617;0.027344;1.625977;
64503;0.058594;0.025391;1.699219;
64723;0.064453;0.020508;1.730469;
64933;0.056641;0.027344;1.777344;
65153;0.056641;0.024414;1.791992;
65373;0.057617;0.023438;1.823242;
65593;0.055664;0.038086;1.845703;
65813;0.050781;0.025391;1.841797;
66023;0.057617;0.024414;1.834961;
66233;0.052734;0.031250;1.802734;
66443;0.043945;0.030273;1.792969;
66663;0.041016;0.033203;1.772461;
66883;0.033203;0.029297;1.755859;
67099;0.036133;0.028320;1.760742;
67309;0.036133;0.029297;1.753906;
67519;0.036133;0.023438;1.766602;
67739;0.033203;0.020508;1.783203;
67953;0.035156;0.019531;1.802734;
68174;0.034180;0.027344;1.833008;
68383;0.032227;0.027344;1.838867;
68593;0.032227;0.027344;1.863281;
68803;0.034180;0.026367;1.867188;
69013;0.030273;0.018555;1.862305;
69234;0.027344;0.019531;1.863281;
69453;0.025391;0.018555;1.848633;
69673;0.017578;0.019531;1.822266;
69883;0.014648;0.024414;1.813477;
70093;0.010742;0.022461;1.801758;
70303;0.007812;0.030273;1.817383;
70523;0.012695;0.030273;1.832031;
70743;0.014648;0.028320;1.848633;
70960;0.011719;0.023438;1.860352;
71169;0.011719;0.021484;1.871094;
71379;0.008789;0.028320;1.878906;
71603;0.007812;0.026367;1.876953;
71823;0.005859;0.036133;1.850586;
72043;0.000000;0.035156;1.811523;
72253;-0.002930;0.037109;1.791016;
72463;-0.010742;0.033203;1.752930;
72683;-0.016602;0.024414;1.725586;
72903;-0.018555;0.017578;1.689453;
73123;-0.020508;0.014648;1.681641;
73333;-0.019531;0.013672;1.676758;
73543;-0.024414;0.018555;1.673828;
73753;-0.023438;0.026367;1.684570;
73963;-0.025391;0.024414;1.688477;
74184;-0.028320;0.029297;1.696289;
74403;-0.028320;0.032227;1.698242;
74619;-0.027344;0.028320;1.718750;
74839;-0.026367;0.027344;1.734375;
75059;-0.027344;0.027344;1.739258;
75283;-0.029297;0.025391;1.753906;
75503;-0.026367;0.022461;1.749023;
75723;-0.029297;0.023438;1.762695;
75943;-0.029297;0.020508;1.767578;
76153;-0.032227;0.028320;1.770508;
76373;-0.031250;0.028320;1.780273;
76583;-0.033203;0.023438;1.773438;
76803;-0.033203;0.027344;1.778320;
77023;-0.036133;0.030273;1.790039;
77233;-0.035156;0.025391;1.785156;
77453;-0.033203;0.022461;1.801758;
77673;-0.032227;0.018555;1.809570;
77883;-0.035156;0.017578;1.810547;
78103;-0.034180;0.014648;1.811523;
78319;-0.033203;0.022461;1.816406;
78539;-0.034180;0.019531;1.812500;
78759;-0.038086;0.016602;1.812500;
78989;-0.038086;0.019531;1.813477;
79209;-0.038086;0.026367;1.827148;
79423;-0.039062;0.020508;1.820312;
79643;-0.038086;0.022461;1.827148;
79863;-0.035156;0.016602;1.826172;
80073;-0.034180;0.013672;1.830078;
80293;-0.034180;0.011719;1.809570;
80514;-0.034180;0.011719;1.808594;
80723;-0.036133;0.018555;1.791992;
80943;-0.038086;0.020508;1.780273;
81163;-0.037109;0.022461;1.767578;
81383;-0.042969;0.019531;1.732422;
81593;-0.043945;0.016602;1.719727;
81813;-0.045898;0.013672;1.701172;
82033;-0.047852;0.027344;1.680664;
82249;-0.052734;0.029297;1.657227;
82463;-0.050781;0.023438;1.663086;
82679;-0.047852;0.017578;1.641602;
82909;-0.048828;0.023438;1.631836;
83139;-0.048828;0.028320;1.625000;
83373;-0.046875;0.024414;1.633789;
83593;-0.052734;0.016602;1.630859;
83813;-0.049805;0.016602;1.624023;
84033;-0.051758;0.015625;1.632812;
84253;-0.053711;0.026367;1.631836;
84463;-0.045898;0.019531;1.650391;
84673;-0.044922;0.014648;1.651367;
84893;-0.044922;0.022461;1.646484;
85113;-0.045898;0.024414;1.644531;
85333;-0.044922;0.013672;1.627930;
85553;-0.041992;0.027344;1.653320;
85773;-0.044922;0.026367;1.637695;
85983;-0.040039;0.015625;1.637695;
86203;-0.039062;0.013672;1.645508;
86409;-0.039062;0.023438;1.640625;
86639;-0.040039;0.021484;1.636719;
86869;-0.040039;0.026367;1.624023;
87079;-0.039062;0.022461;1.640625;
87303;-0.035156;0.025391;1.635742;
87523;-0.041016;0.022461;1.641602;
87733;-0.039062;0.023438;1.620117;
87953;-0.038086;0.023438;1.646484;
88163;-0.041016;0.026367;1.621094;
88383;-0.042969;0.011719;1.604492;
88593;-0.039062;0.025391;1.616211;
88803;-0.038086;0.023438;1.610352;
89023;-0.039062;0.024414;1.589844;
89233;-0.041016;0.016602;1.575195;
89453;-0.039062;0.018555;1.584961;
89673;-0.035156;0.017578;1.576172;
89883;-0.035156;0.026367;1.580078;
90093;-0.032227;0.019531;1.573242;
90299;-0.036133;0.022461;1.550781;
90519;-0.032227;0.018555;1.558594;
90729;-0.033203;0.020508;1.530273;
90951;-0.035156;0.021484;1.486328;
91173;-0.035156;0.021484;1.447266;
91383;-0.039062;0.018555;1.399414;
91593;-0.040039;0.015625;1.354492;
91803;-0.043945;0.021484;1.306641;
92013;-0.044922;0.026367;1.253906;
92223;-0.048828;0.021484;1.195312;
92443;-0.046875;0.020508;1.165039;
92663;-0.049805;0.015625;1.122070;
92873;-0.047852;0.019531;1.067383;
93093;-0.048828;0.019531;1.027344;
93303;-0.044922;0.025391;0.994141;
93514;-0.045898;0.023438;0.977539;
93733;-0.040039;0.023438;0.951172;
93943;-0.035156;0.024414;0.940430;
94149;-0.030273;0.021484;0.944336;
94379;-0.024414;0.024414;0.924805;
94599;-0.022461;0.033203;0.958008;
94819;-0.015625;0.026367;0.956055;
95033;-0.015625;0.025391;0.958008;
95253;-0.006836;0.022461;0.971680;
95473;-0.006836;0.032227;0.990234;
95693;-0.006836;0.025391;0.976562;
95903;-0.005859;0.027344;1.002930;
96113;-0.006836;0.021484;0.995117;
96333;-0.002930;0.030273;0.991211;
96543;-0.006836;0.027344;0.989258;
96763;-0.007812;0.028320;0.979492;
96983;-0.001953;0.022461;0.980469;
97193;-0.002930;0.026367;0.979492;
97403;-0.005859;0.026367;0.968750;
97613;-0.004883;0.022461;0.971680;
97823;-0.000977;0.020508;0.980469;
98033;0.001953;0.020508;0.998047;
98253;0.000977;0.025391;1.018555;
98469;0.000977;0.025391;1.015625;
98690;0.006836;0.026367;1.052734;
98919;0.006836;0.028320;1.071289;
99153;0.009766;0.029297;1.088867;
99373;0.014648;0.024414;1.141602;
99593;0.017578;0.024414;1.166992;
99813;0.018555;0.021484;1.166016;
100023;0.018555;0.024414;1.173828;
100233;0.024414;0.026367;1.186523;
100453;0.018555;0.025391;1.146484;
100663;0.017578;0.020508;1.106445;
100883;0.018555;0.018555;1.064453;
101103;0.013672;0.020508;1.016602;
101313;0.003906;0.015625;0.951172;
101529;0.000977;0.018555;0.890625;
101753;-0.000977;0.022461;0.837891;
101973;0.001953;0.028320;0.820312;
102179;-0.002930;0.023438;0.786133;
102389;-0.006836;0.033203;0.750000;
102609;-0.006836;0.031250;0.734375;
102819;-0.008789;0.029297;0.707031;
103039;-0.005859;0.031250;0.708008;
103263;-0.010742;0.029297;0.710938;
103479;-0.007812;0.033203;0.699219;
103713;-0.004883;0.032227;0.714844;
103933;-0.004883;0.031250;0.714844;
104149;-0.003906;0.030273;0.708984;
104363;-0.006836;0.029297;0.707031;
104573;-0.008789;0.029297;0.702148;
104789;-0.007812;0.034180;0.709961;
105003;-0.006836;0.031250;0.716797;
105213;-0.004883;0.029297;0.694336;
105419;-0.003906;0.024414;0.672852;
105653;-0.009766;0.026367;0.658203;
105863;-0.006836;0.024414;0.629883;
106083;-0.006836;0.023438;0.625000;
106299;-0.009766;0.024414;0.601562;
106510;-0.008789;0.027344;0.599609;
106720;-0.010742;0.028320;0.583984;
106950;-0.009766;0.030273;0.569336;
107163;-0.008789;0.030273;0.565430;
107383;-0.010742;0.032227;0.567383;
107589;-0.010742;0.034180;0.581055;
107819;-0.009766;0.033203;0.604492;
108039;-0.008789;0.034180;0.613281;
108263;-0.007812;0.032227;0.619141;
108469;-0.007812;0.031250;0.651367;
108693;-0.003906;0.031250;0.654297;
108903;-0.005859;0.033203;0.670898;
109123;-0.004883;0.031250;0.693359;
109333;-0.003906;0.028320;0.681641;
109553;-0.001953;0.025391;0.689453;
109773;-0.004883;0.028320;0.698242;
109985;-0.003906;0.026367;0.701172;
110199;-0.002930;0.033203;0.698242;
110423;-0.003906;0.030273;0.691406;
110643;-0.004883;0.028320;0.695312;
110849;-0.001953;0.027344;0.699219;
111063;-0.000977;0.033203;0.701172;
111279;-0.002930;0.028320;0.684570;
111489;-0.004883;0.028320;0.690430;
111719;-0.001953;0.032227;0.711914;
111939;-0.002930;0.031250;0.728516;
112169;0.001953;0.031250;0.762695;
112393;0.003906;0.029297;0.813477;
112613;0.006836;0.032227;0.859375;
112829;0.010742;0.029297;0.886719;
113043;0.016602;0.025391;0.924805;
113263;0.017578;0.031250;0.962891;
113483;0.022461;0.025391;0.973633;
113693;0.019531;0.023438;0.998047;
113913;0.018555;0.030273;1.000977;
114130;0.017578;0.026367;0.979492;
114339;0.017578;0.027344;0.989258;
114563;0.020508;0.029297;0.986328;
114783;0.018555;0.028320;0.977539;
115005;0.014648;0.028320;0.966797;
115233;0.016602;0.030273;0.959961;
115449;0.014648;0.027344;0.937500;
115659;0.011719;0.027344;0.952148;
115879;0.015625;0.027344;0.964844;
116109;0.015625;0.028320;0.989258;
116330;0.016602;0.029297;0.996094;
116539;0.024414;0.025391;1.046875;
116763;0.027344;0.026367;1.083984;
116969;0.033203;0.028320;1.141602;
117193;0.036133;0.029297;1.185547;
117403;0.042969;0.025391;1.197266;
117619;0.045898;0.028320;1.217773;
117830;0.043945;0.023438;1.221680;
118043;0.043945;0.024414;1.226562;
118263;0.041992;0.025391;1.209961;
118469;0.038086;0.019531;1.165039;
118693;0.034180;0.021484;1.130859;
118913;0.031250;0.023438;1.104492;
119123;0.027344;0.022461;1.080078;
119329;0.027344;0.023438;1.043945;
119543;0.023438;0.026367;1.042969;
119759;0.021484;0.024414;1.043945;
119989;0.023438;0.026367;1.033203;
120209;0.021484;0.023438;1.023438;
120439;0.023438;0.027344;1.026367;
120669;0.022461;0.025391;1.008789;
120873;0.016602;0.028320;0.987305;
121089;0.018555;0.023438;0.976562;
121313;0.018555;0.026367;0.962891;
121533;0.012695;0.022461;0.932617;
121739;0.014648;0.027344;0.946289;
121963;0.014648;0.024414;0.935547;
122183;0.009766;0.029297;0.928711;
122399;0.012695;0.028320;0.921875;
122613;0.011719;0.025391;0.916992;
122823;0.010742;0.025391;0.916016;
123035;0.014648;0.028320;0.940430;
123249;0.014648;0.025391;0.930664;
123473;0.013672;0.026367;0.930664;
123693;0.014648;0.023438;0.945312;
123909;0.012695;0.026367;0.941406;
124119;0.014648;0.028320;0.962891;
124339;0.015625;0.026367;0.966797;
124560;0.015625;0.020508;0.946289;
124779;0.013672;0.023438;0.945312;
124999;0.014648;0.026367;0.943359;
125219;0.016602;0.023438;0.942383;
125443;0.012695;0.023438;0.918945;
125649;0.010742;0.029297;0.916016;
125873;0.008789;0.027344;0.911133;
126093;0.010742;0.029297;0.932617;
126299;0.011719;0.024414;0.937500;
126524;0.016602;0.025391;0.976562;
126743;0.018555;0.023438;1.028320;
126959;0.021484;0.019531;1.062500;
127193;0.030273;0.021484;1.125000;
127413;0.036133;0.021484;1.176758;
127619;0.041016;0.019531;1.217773;
127833;0.043945;0.025391;1.248047;
128053;0.044922;0.022461;1.237305;
128269;0.048828;0.021484;1.277344;
128489;0.049805;0.022461;1.265625;
128709;0.047852;0.021484;1.253906;
128939;0.043945;0.028320;1.254883;
129149;0.041016;0.022461;1.227539;
129373;0.040039;0.025391;1.205078;
129583;0.039062;0.023438;1.206055;
129799;0.041016;0.024414;1.171875;
130013;0.035156;0.027344;1.166016;
130223;0.033203;0.029297;1.145508;
130440;0.030273;0.027344;1.130859;
130663;0.031250;0.029297;1.123047;
130873;0.029297;0.022461;1.105469;
131089;0.025391;0.025391;1.091797;
131313;0.025391;0.027344;1.092773;
131533;0.024414;0.026367;1.075195;
131753;0.022461;0.023438;1.045898;
131963;0.019531;0.028320;1.022461;
132183;0.021484;0.031250;1.011719;
132399;0.017578;0.028320;0.998047;
132628;0.016602;0.031250;0.977539;
132859;0.017578;0.024414;0.973633;
133079;0.012695;0.030273;0.956055;
133309;0.009766;0.025391;0.928711;
133533;0.009766;0.029297;0.931641;
133753;0.012695;0.028320;0.943359;
133969;0.010742;0.025391;0.924805;
134193;0.011719;0.025391;0.925781;
134413;0.012695;0.026367;0.935547;
134629;0.013672;0.027344;0.940430;
134853;0.012695;0.024414;0.962891;
135073;0.012695;0.026367;0.957031;
135295;0.014648;0.025391;0.959961;
135513;0.014648;0.027344;0.972656;
135723;0.019531;0.029297;0.978516;
135943;0.014648;0.025391;0.986328;
136149;0.018555;0.026367;1.008789;
136369;0.018555;0.023438;1.022461;
136599;0.021484;0.025391;1.045898;
136829;0.024414;0.023438;1.060547;
137059;0.022461;0.027344;1.060547;
137278;0.024414;0.028320;1.069336;
137500;0.026367;0.024414;1.098633;
137709;0.029297;0.022461;1.103516;
137933;0.031250;0.026367;1.121094;
138143;0.030273;0.030273;1.132812;
138359;0.033203;0.030273;1.154297;
138583;0.035156;0.027344;1.160156;
138793;0.036133;0.023438;1.151367;
139013;0.035156;0.023438;1.149414;
139230;0.033203;0.019531;1.137695;
139449;0.030273;0.025391;1.107422;
139683;0.032227;0.020508;1.091797;
139893;0.028320;0.020508;1.096680;
140099;0.027344;0.021484;1.074219;
140323;0.023438;0.024414;1.049805;
140549;0.021484;0.022461;1.038086;
140769;0.027344;0.023438;1.024414;
140979;0.023438;0.028320;1.035156;
141199;0.021484;0.029297;1.037109;
141429;0.021484;0.026367;1.026367;
141643;0.019531;0.027344;1.010742;
141859;0.016602;0.029297;1.005859;
142083;0.017578;0.023438;0.986328;
142303;0.018555;0.026367;0.970703;
142523;0.013672;0.028320;0.966797;
142729;0.016602;0.030273;0.949219;
142953;0.013672;0.027344;0.940430;
143173;0.012695;0.024414;0.916016;
143393;0.012695;0.024414;0.906250;
143613;0.014648;0.025391;0.908203;
143823;0.011719;0.027344;0.925781;
144043;0.012695;0.028320;0.939453;
144253;0.015625;0.025391;0.952148;
144473;0.016602;0.022461;0.948242;
144679;0.016602;0.027344;0.986328;
144900;0.017578;0.025391;1.009766;
145129;0.022461;0.023438;1.029297;
145349;0.024414;0.025391;1.054688;
145569;0.022461;0.029297;1.072266;
145790;0.026367;0.027344;1.077148;
146063;0.025391;0.024414;1.083008;
146293;0.027344;0.026367;1.086914;
146510;0.028320;0.023438;1.095703;
146733;0.029297;0.021484;1.087891;
146953;0.025391;0.026367;1.076172;
147173;0.025391;0.027344;1.080078;
147393;0.029297;0.026367;1.058594;
147613;0.026367;0.026367;1.051758;
147833;0.022461;0.028320;1.035156;
148043;0.019531;0.024414;1.006836;
148263;0.020508;0.031250;0.999023;
148473;0.019531;0.030273;1.009766;
148693;0.021484;0.030273;1.014648;
148913;0.023438;0.029297;1.028320;
149133;0.023438;0.025391;1.009766;
149338;0.019531;0.025391;1.015625;
149568;0.020508;0.027344;1.027344;
149779;0.023438;0.023438;1.036133;
150009;0.026367;0.029297;1.051758;
150219;0.023438;0.023438;1.060547;
150439;0.024414;0.027344;1.054688;
150653;0.027344;0.025391;1.070312;
150863;0.027344;0.027344;1.068359;
151079;0.028320;0.023438;1.085938;
151293;0.031250;0.029297;1.098633;
151513;0.029297;0.021484;1.088867;
151733;0.028320;0.024414;1.085938;
151949;0.029297;0.026367;1.073242;
152163;0.031250;0.023438;1.075195;
152383;0.030273;0.024414;1.073242;
152595;0.028320;0.026367;1.056641;
152823;0.023438;0.029297;1.049805;
153033;0.021484;0.027344;1.024414;
153250;0.021484;0.025391;1.011719;
153459;0.023438;0.024414;1.014648;
153669;0.021484;0.030273;1.012695;
153889;0.023438;0.023438;1.028320;
154098;0.022461;0.026367;1.023438;
154309;0.024414;0.023438;1.029297;
154529;0.023438;0.026367;1.046875;
154739;0.021484;0.025391;1.035156;
154953;0.028320;0.025391;1.057617;
155173;0.027344;0.027344;1.064453;
155393;0.028320;0.022461;1.065430;
155609;0.029297;0.028320;1.098633;
155843;0.029297;0.024414;1.102539;
156053;0.033203;0.022461;1.100586;
156269;0.034180;0.028320;1.113281;
156493;0.031250;0.029297;1.113281;
156703;0.028320;0.024414;1.094727;
156919;0.030273;0.027344;1.096680;
157129;0.028320;0.022461;1.080078;
157343;0.028320;0.029297;1.079102;
157565;0.027344;0.024414;1.037109;
157779;0.026367;0.026367;1.032227;
158009;0.022461;0.024414;1.024414;
158239;0.021484;0.024414;1.008789;
158449;0.020508;0.022461;0.997070;
158681;0.020508;0.025391;0.982422;
158910;0.021484;0.026367;0.997070;
159133;0.022461;0.022461;0.985352;
159353;0.023438;0.026367;1.000000;
159559;0.019531;0.026367;0.998047;
159783;0.019531;0.025391;0.994141;
159993;0.023438;0.026367;1.013672;
160213;0.023438;0.029297;1.043945;
160433;0.025391;0.025391;1.050781;
160653;0.025391;0.021484;1.061523;
160873;0.027344;0.024414;1.073242;
161093;0.029297;0.026367;1.060547;
161303;0.029297;0.028320;1.069336;
161523;0.030273;0.022461;1.076172;
161743;0.029297;0.025391;1.067383;
161963;0.027344;0.026367;1.073242;
162179;0.027344;0.023438;1.074219;
162399;0.028320;0.023438;1.065430;
162609;0.026367;0.028320;1.069336;
162829;0.028320;0.026367;1.065430;
163043;0.030273;0.027344;1.070312;
163249;0.030273;0.028320;1.054688;
163459;0.029297;0.027344;1.048828;
163703;0.031250;0.025391;1.057617;
163909;0.029297;0.024414;1.062500;
164123;0.028320;0.025391;1.058594;
164333;0.027344;0.027344;1.058594;
164543;0.026367;0.026367;1.038086;
164759;0.028320;0.028320;1.046875;
164973;0.026367;0.025391;1.029297;
165193;0.024414;0.026367;1.000000;
165409;0.020508;0.022461;0.990234;
165643;0.021484;0.026367;0.972656;
165853;0.019531;0.025391;0.957031;
166073;0.017578;0.030273;0.961914;
166293;0.015625;0.029297;0.960938;
166513;0.017578;0.029297;0.955078;
166730;0.016602;0.026367;0.941406;
166960;0.016602;0.026367;0.942383;
167191;0.020508;0.026367;0.961914;
167419;0.021484;0.024414;0.964844;
167639;0.019531;0.028320;0.958008;
167863;0.021484;0.029297;0.992188;
168083;0.023438;0.031250;1.000000;
168305;0.025391;0.029297;1.005859;
168523;0.023438;0.026367;0.994141;
168743;0.025391;0.026367;1.003906;
168963;0.020508;0.025391;1.008789;
169168;0.025391;0.029297;1.029297;
169393;0.026367;0.024414;1.023438;
169613;0.024414;0.027344;1.029297;
169833;0.024414;0.023438;1.009766;
170043;0.026367;0.027344;1.024414;
170263;0.027344;0.024414;1.014648;
170483;0.026367;0.026367;1.027344;
170709;0.025391;0.027344;1.024414;
170939;0.026367;0.029297;1.037109;
171179;0.027344;0.027344;1.045898;
171409;0.026367;0.028320;1.054688;
171629;0.028320;0.026367;1.041992;
171839;0.034180;0.024414;1.045898;
172073;0.029297;0.025391;1.056641;
172293;0.031250;0.025391;1.052734;
172513;0.034180;0.026367;1.076172;
172723;0.027344;0.025391;1.067383;
172943;0.030273;0.024414;1.052734;
173163;0.031250;0.020508;1.056641;
173383;0.031250;0.024414;1.073242;
173599;0.030273;0.027344;1.066406;
173813;0.030273;0.028320;1.058594;
174033;0.032227;0.029297;1.057617;
174253;0.030273;0.032227;1.055664;
174473;0.030273;0.023438;1.046875;
174683;0.031250;0.027344;1.061523;
174892;0.032227;0.025391;1.045898;
175109;0.028320;0.028320;1.041992;
175339;0.028320;0.025391;1.035156;
175559;0.029297;0.027344;1.055664;
175779;0.029297;0.027344;1.055664;
175999;0.032227;0.024414;1.052734;
176229;0.029297;0.027344;1.055664;
176449;0.027344;0.023438;1.043945;
176673;0.031250;0.024414;1.043945;
176883;0.028320;0.024414;1.047852;
177099;0.027344;0.025391;1.043945;
177314;0.029297;0.029297;1.044922;
177533;0.027344;0.025391;1.038086;
177743;0.026367;0.025391;1.015625;
177960;0.028320;0.026367;1.025391;
178193;0.025391;0.027344;1.016602;
178413;0.027344;0.027344;1.010742;
178629;0.028320;0.030273;1.019531;
178853;0.027344;0.029297;1.018555;
179073;0.026367;0.025391;1.001953;
179293;0.025391;0.023438;1.000000;
179509;0.025391;0.029297;1.009766;
179729;0.025391;0.029297;1.009766;
179949;0.024414;0.023438;1.002930;
180161;0.024414;0.025391;1.007812;
180369;0.025391;0.028320;0.998047;
180593;0.026367;0.025391;0.980469;
180803;0.024414;0.025391;1.002930;
181013;0.023438;0.024414;0.978516;
181230;0.024414;0.027344;0.975586;
181443;0.023438;0.030273;0.989258;
181653;0.022461;0.029297;0.975586;
181869;0.022461;0.028320;0.980469;
182093;0.025391;0.027344;0.970703;
182303;0.022461;0.027344;0.962891;
182519;0.023438;0.029297;0.988281;
182743;0.025391;0.026367;0.990234;
182963;0.024414;0.028320;0.974609;
183260;0.025391;0.025391;0.981445;
183499;0.022461;0.028320;0.985352;
183720;0.023438;0.029297;0.989258;
183929;0.025391;0.028320;0.992188;
184149;0.026367;0.027344;1.005859;
184359;0.025391;0.027344;0.996094;
184569;0.027344;0.027344;1.012695;
184803;0.025391;0.028320;1.011719;
185023;0.023438;0.028320;1.005859;
185239;0.026367;0.029297;1.002930;
185453;0.028320;0.029297;1.019531;
185663;0.025391;0.025391;0.997070;
185883;0.026367;0.025391;1.001953;
186109;0.028320;0.028320;0.992188;
186323;0.026367;0.027344;0.980469;
186543;0.024414;0.029297;1.002930;
186759;0.026367;0.026367;0.999023;
186983;0.027344;0.029297;0.990234;
187203;0.023438;0.031250;0.984375;
187419;0.024414;0.026367;0.984375;
187633;0.021484;0.026367;0.987305;
187849;0.025391;0.031250;1.009766;
188059;0.027344;0.027344;0.999023;
188268;0.031250;0.026367;1.027344;
188489;0.031250;0.026367;1.055664;
188719;0.031250;0.031250;1.068359;
188940;0.033203;0.028320;1.082031;
189159;0.036133;0.030273;1.110352;
189383;0.035156;0.029297;1.125977;
189603;0.039062;0.026367;1.121094;
189813;0.034180;0.027344;1.130859;
190029;0.040039;0.027344;1.123047;
190253;0.039062;0.023438;1.121094;
190463;0.038086;0.026367;1.130859;
190678;0.038086;0.025391;1.111328;
190893;0.036133;0.024414;1.098633;
191103;0.032227;0.025391;1.084961;
191319;0.034180;0.029297;1.087891;
191539;0.036133;0.027344;1.082031;
191763;0.031250;0.030273;1.073242;
191979;0.031250;0.027344;1.050781;
192190;0.034180;0.030273;1.057617;
192409;0.030273;0.032227;1.041992;
192639;0.029297;0.029297;1.030273;
192870;0.028320;0.028320;1.036133;
193089;0.025391;0.027344;1.019531;
193323;0.027344;0.026367;1.006836;
193553;0.026367;0.028320;1.005859;
193773;0.026367;0.023438;1.007812;
193989;0.026367;0.027344;0.995117;
194213;0.023438;0.028320;0.991211;
194433;0.025391;0.022461;0.982422;
194653;0.027344;0.029297;0.998047;
194863;0.025391;0.028320;0.993164;
195073;0.023438;0.022461;0.972656;
195293;0.024414;0.025391;0.984375;
195509;0.024414;0.026367;0.973633;
195733;0.021484;0.027344;0.961914;
195953;0.024414;0.024414;0.965820;
196173;0.019531;0.024414;0.957031;
196380;0.021484;0.025391;0.947266;
196589;0.019531;0.025391;0.958008;
196809;0.020508;0.028320;0.957031;
197029;0.021484;0.024414;0.940430;
197249;0.020508;0.028320;0.952148;
197483;0.020508;0.024414;0.941406;
197703;0.019531;0.029297;0.942383;
197923;0.022461;0.027344;0.950195;
198133;0.021484;0.026367;0.989258;
198353;0.023438;0.027344;0.996094;
198573;0.027344;0.028320;1.033203;
198783;0.032227;0.025391;1.041992;
199003;0.029297;0.023438;1.055664;
199219;0.029297;0.026367;1.091797;
199443;0.038086;0.024414;1.105469;
199663;0.040039;0.026367;1.118164;
199878;0.037109;0.025391;1.117188;
200103;0.037109;0.025391;1.101562;
200319;0.035156;0.023438;1.089844;
200539;0.029297;0.023438;1.074219;
200769;0.034180;0.021484;1.063477;
201000;0.028320;0.026367;1.041992;
201231;0.027344;0.021484;1.038086;
201449;0.031250;0.024414;1.044922;
201673;0.027344;0.026367;1.027344;
201893;0.026367;0.025391;1.022461;
202113;0.027344;0.028320;1.021484;
202333;0.028320;0.026367;1.011719;
202543;0.029297;0.022461;1.017578;
202749;0.027344;0.023438;1.031250;
202973;0.028320;0.028320;1.028320;
203193;0.027344;0.026367;1.043945;
203409;0.028320;0.026367;1.048828;
203633;0.028320;0.026367;1.036133;
203853;0.030273;0.026367;1.047852;
204059;0.028320;0.024414;1.051758;
204283;0.029297;0.021484;1.040039;
204503;0.029297;0.021484;1.053711;
204709;0.029297;0.021484;1.036133;
204929;0.029297;0.022461;1.044922;
205149;0.031250;0.021484;1.045898;
205359;0.028320;0.024414;1.041992;
205579;0.027344;0.027344;1.050781;
205789;0.028320;0.023438;1.030273;
206013;0.028320;0.024414;1.030273;
206219;0.029297;0.027344;1.045898;
206443;0.027344;0.024414;1.043945;
206653;0.032227;0.023438;1.044922;
206859;0.030273;0.022461;1.033203;
207083;0.031250;0.025391;1.050781;
207303;0.029297;0.027344;1.053711;
207520;0.033203;0.023438;1.066406;
207733;0.033203;0.021484;1.082031;
207949;0.033203;0.030273;1.083984;
208183;0.033203;0.027344;1.079102;
208403;0.031250;0.024414;1.076172;
208619;0.032227;0.023438;1.093750;
208853;0.033203;0.018555;1.076172;
209069;0.034180;0.024414;1.076172;
209279;0.035156;0.029297;1.099609;
209499;0.036133;0.022461;1.096680;
209719;0.039062;0.021484;1.123047;
209929;0.038086;0.028320;1.126953;
210159;0.038086;0.026367;1.111328;
210383;0.038086;0.027344;1.114258;
210593;0.037109;0.027344;1.106445;
210815;0.039062;0.026367;1.107422;
211033;0.037109;0.027344;1.116211;
211253;0.033203;0.028320;1.106445;
211468;0.034180;0.028320;1.092773;
211693;0.033203;0.024414;1.085938;
211903;0.033203;0.026367;1.078125;
212119;0.033203;0.026367;1.070312;
212343;0.030273;0.028320;1.064453;
212563;0.030273;0.027344;1.062500;
212783;0.030273;0.024414;1.047852;
212993;0.033203;0.025391;1.050781;
213209;0.028320;0.025391;1.048828;
213419;0.031250;0.028320;1.061523;
213649;0.029297;0.030273;1.056641;
213879;0.030273;0.026367;1.062500;
214099;0.029297;0.022461;1.031250;
214320;0.030273;0.022461;1.034180;
214553;0.030273;0.024414;1.040039;
214773;0.032227;0.027344;1.045898;
214993;0.031250;0.024414;1.053711;
215199;0.030273;0.023438;1.059570;
215413;0.029297;0.023438;1.041992;
215623;0.030273;0.024414;1.045898;
215843;0.029297;0.029297;1.050781;
216069;0.028320;0.028320;1.042969;
216303;0.031250;0.028320;1.047852;
216523;0.032227;0.026367;1.065430;
216739;0.031250;0.032227;1.064453;
216953;0.034180;0.026367;1.051758;
217173;0.036133;0.030273;1.059570;
217393;0.035156;0.028320;1.077148;
217610;0.033203;0.030273;1.064453;
217823;0.033203;0.028320;1.076172;
218039;0.033203;0.025391;1.063477;
218261;0.032227;0.025391;1.047852;
218481;0.034180;0.026367;1.048828;
218699;0.032227;0.024414;1.057617;
218920;0.030273;0.026367;1.041016;
219153;0.030273;0.024414;1.039062;
219359;0.034180;0.027344;1.040039;
219593;0.033203;0.022461;1.042969;
219823;0.030273;0.020508;1.022461;
220033;0.032227;0.020508;1.020508;
220239;0.029297;0.031250;1.046875;
220450;0.030273;0.027344;1.030273;
220673;0.031250;0.028320;1.034180;
220893;0.034180;0.024414;1.048828;
221109;0.031250;0.027344;1.038086;
221343;0.031250;0.026367;1.038086;
221553;0.031250;0.028320;1.045898;
221769;0.028320;0.027344;1.033203;
221984;0.032227;0.025391;1.037109;
222199;0.032227;0.025391;1.052734;
222420;0.030273;0.028320;1.058594;
222639;0.031250;0.025391;1.033203;
222851;0.032227;0.027344;1.041016;
223069;0.029297;0.027344;1.038086;
223293;0.031250;0.025391;1.044922;
223513;0.034180;0.027344;1.048828;
223733;0.033203;0.030273;1.053711;
223953;0.033203;0.024414;1.039062;
224160;0.031250;0.028320;1.047852;
224370;0.031250;0.028320;1.045898;
224583;0.034180;0.029297;1.046875;
224803;0.032227;0.029297;1.046875;
225013;0.035156;0.026367;1.037109;
225233;0.033203;0.026367;1.050781;
225453;0.031250;0.024414;1.046875;
225673;0.032227;0.028320;1.047852;
225903;0.031250;0.024414;1.030273;
226113;0.032227;0.028320;1.027344;
226330;0.032227;0.031250;1.048828;
226550;0.031250;0.026367;1.027344;
226780;0.031250;0.025391;1.026367;
227000;0.031250;0.026367;1.028320;
227229;0.032227;0.030273;1.028320;
227459;0.030273;0.026367;1.013672;
227683;0.032227;0.027344;1.013672;
227903;0.030273;0.025391;1.011719;
228113;0.033203;0.028320;1.025391;
228333;0.033203;0.026367;1.022461;
228543;0.031250;0.024414;1.016602;
228773;0.036133;0.028320;1.031250;
228983;0.032227;0.027344;1.030273;
229204;0.032227;0.026367;1.027344;
229409;0.033203;0.024414;1.038086;
229643;0.034180;0.025391;1.036133;
229863;0.031250;0.029297;1.030273;
230069;0.034180;0.026367;1.040039;
230283;0.035156;0.028320;1.047852;
230503;0.033203;0.030273;1.027344;
230709;0.034180;0.026367;1.047852;
230929;0.034180;0.025391;1.044922;
231160;0.030273;0.029297;1.033203;
231379;0.033203;0.030273;1.028320;
231579;0.032227;0.028320;1.035156;
231813;0.033203;0.025391;1.030273;
232043;0.030273;0.025391;1.030273;
232263;0.034180;0.028320;1.032227;
232473;0.031250;0.029297;1.021484;
232689;0.028320;0.026367;1.003906;
232903;0.031250;0.031250;1.024414;
233113;0.032227;0.026367;1.027344;
233323;0.031250;0.027344;1.009766;
233533;0.031250;0.029297;1.023438;
233753;0.031250;0.028320;1.025391;
233973;0.033203;0.025391;1.010742;
234183;0.030273;0.025391;0.999023;
234399;0.029297;0.031250;1.009766;
234623;0.032227;0.026367;1.003906;
234839;0.030273;0.030273;1.004883;
235050;0.027344;0.026367;0.969727;
235269;0.028320;0.029297;0.966797;
235499;0.024414;0.026367;0.943359;
235719;0.025391;0.028320;0.955078;
235932;0.023438;0.027344;0.947266;
236153;0.024414;0.026367;0.923828;
236373;0.025391;0.027344;0.931641;
236589;0.021484;0.027344;0.919922;
236793;0.025391;0.028320;0.924805;
237013;0.019531;0.027344;0.919922;
237232;0.021484;0.028320;0.911133;
237443;0.020508;0.025391;0.914062;
237653;0.020508;0.026367;0.924805;
237869;0.022461;0.028320;0.922852;
238083;0.022461;0.028320;0.928711;
238303;0.022461;0.027344;0.938477;
238523;0.023438;0.028320;0.934570;
238739;0.023438;0.029297;0.944336;
238950;0.024414;0.026367;0.944336;
239179;0.026367;0.025391;0.943359;
239409;0.024414;0.025391;0.943359;
239639;0.027344;0.026367;0.951172;
239850;0.027344;0.030273;0.967773;
240073;0.025391;0.029297;0.966797;
240293;0.029297;0.025391;0.959961;
240509;0.028320;0.027344;0.962891;
240733;0.025391;0.027344;0.978516;
240953;0.026367;0.025391;0.970703;
241169;0.026367;0.026367;0.993164;
241383;0.030273;0.028320;1.014648;
241593;0.032227;0.024414;1.016602;
241803;0.033203;0.026367;1.052734;
242033;0.036133;0.028320;1.058594;
242253;0.037109;0.029297;1.063477;
242473;0.037109;0.029297;1.063477;
242689;0.041016;0.029297;1.078125;
242919;0.038086;0.021484;1.056641;
243129;0.040039;0.025391;1.061523;
243339;0.038086;0.026367;1.069336;
243569;0.035156;0.026367;1.056641;
243799;0.035156;0.030273;1.055664;
244023;0.034180;0.025391;1.057617;
244243;0.033203;0.031250;1.053711;
244449;0.033203;0.029297;1.037109;
244660;0.033203;0.027344;1.047852;
244879;0.034180;0.026367;1.041016;
245103;0.034180;0.029297;1.037109;
245313;0.037109;0.028320;1.056641;
245533;0.037109;0.030273;1.074219;
245743;0.041992;0.028320;1.082031;
245953;0.039062;0.026367;1.093750;
246170;0.041016;0.023438;1.096680;
246383;0.041016;0.022461;1.121094;
246593;0.042969;0.029297;1.114258;
246799;0.044922;0.023438;1.112305;
247009;0.042969;0.022461;1.107422;
247239;0.041016;0.026367;1.100586;
247460;0.038086;0.024414;1.083008;
247679;0.038086;0.028320;1.094727;
247889;0.036133;0.028320;1.062500;
248103;0.037109;0.028320;1.044922;
248313;0.034180;0.026367;1.051758;
248533;0.033203;0.028320;1.050781;
248753;0.035156;0.028320;1.032227;
248969;0.034180;0.030273;1.033203;
249203;0.035156;0.029297;1.033203;
249423;0.032227;0.029297;1.017578;
249639;0.034180;0.027344;1.035156;
249853;0.035156;0.028320;1.039062;
250073;0.034180;0.027344;1.020508;
250293;0.033203;0.019531;1.017578;
250513;0.035156;0.031250;1.041016;
250723;0.034180;0.032227;1.045898;
250939;0.038086;0.024414;1.046875;
251148;0.034180;0.024414;1.037109;
251359;0.037109;0.027344;1.043945;
251589;0.036133;0.026367;1.060547;
251799;0.037109;0.031250;1.059570;
252030;0.034180;0.027344;1.054688;
252263;0.036133;0.024414;1.033203;
252483;0.037109;0.026367;1.034180;
252700;0.036133;0.027344;1.042969;
252913;0.035156;0.027344;1.036133;
253123;0.034180;0.027344;1.045898;
253343;0.035156;0.029297;1.037109;
253563;0.035156;0.026367;1.024414;
253783;0.033203;0.020508;1.018555;
253993;0.034180;0.028320;1.043945;
254203;0.037109;0.022461;1.023438;
254423;0.032227;0.027344;1.027344;
254639;0.034180;0.027344;1.028320;
254863;0.032227;0.027344;1.026367;
255083;0.035156;0.024414;1.039062;
255300;0.034180;0.026367;1.041016;
255519;0.035156;0.025391;1.027344;
255749;0.033203;0.025391;1.027344;
255969;0.033203;0.022461;1.028320;
256189;0.035156;0.028320;1.032227;
256409;0.036133;0.023438;1.034180;
256643;0.035156;0.026367;1.021484;
256858;0.033203;0.027344;1.040039;
257083;0.035156;0.029297;1.039062;
257293;0.036133;0.024414;1.026367;
257513;0.034180;0.025391;1.038086;
257723;0.033203;0.027344;1.032227;
257929;0.037109;0.026367;1.043945;
258163;0.034180;0.028320;1.038086;
258373;0.031250;0.026367;1.019531;
258592;0.035156;0.024414;1.023438;
258809;0.035156;0.025391;1.041992;
259019;0.033203;0.029297;1.027344;
259253;0.035156;0.027344;1.031250;
259463;0.034180;0.031250;1.045898;
259669;0.034180;0.029297;1.024414;
259895;0.035156;0.028320;1.046875;
260123;0.034180;0.029297;1.041016;
260343;0.036133;0.025391;1.033203;
260569;0.033203;0.025391;1.037109;
260779;0.033203;0.030273;1.037109;
260989;0.035156;0.028320;1.029297;
261209;0.034180;0.025391;1.040039;
261419;0.034180;0.028320;1.034180;
261649;0.037109;0.027344;1.029297;
261873;0.037109;0.023438;1.036133;
262093;0.034180;0.024414;1.031250;
262303;0.034180;0.027344;1.030273;
262509;0.033203;0.023438;1.029297;
262723;0.036133;0.025391;1.038086;
262933;0.033203;0.026367;1.025391;
263149;0.034180;0.025391;1.041016;
263363;0.033203;0.024414;1.034180;
263583;0.036133;0.027344;1.041992;
263799;0.034180;0.026367;1.040039;
264023;0.034180;0.028320;1.033203;
264233;0.035156;0.032227;1.042969;
264449;0.035156;0.026367;1.042969;
264669;0.033203;0.026367;1.023438;
264889;0.033203;0.027344;1.028320;
265099;0.037109;0.026367;1.045898;
265319;0.034180;0.024414;1.036133;
265539;0.035156;0.029297;1.043945;
265749;0.036133;0.029297;1.043945;
265973;0.035156;0.024414;1.027344;
266193;0.034180;0.023438;1.027344;
266413;0.035156;0.026367;1.039062;
266643;0.033203;0.030273;1.031250;
266853;0.032227;0.027344;1.039062;
267063;0.036133;0.025391;1.042969;
267283;0.035156;0.026367;1.028320;
267503;0.036133;0.027344;1.032227;
267723;0.037109;0.027344;1.047852;
267943;0.031250;0.025391;1.036133;
268153;0.034180;0.028320;1.038086;
268369;0.032227;0.025391;1.032227;
268583;0.034180;0.024414;1.034180;
268793;0.035156;0.029297;1.045898;
269009;0.036133;0.027344;1.049805;
269229;0.036133;0.021484;1.032227;
269450;0.034180;0.021484;1.031250;
269659;0.035156;0.026367;1.042969;
269889;0.037109;0.027344;1.042969;
270109;0.034180;0.026367;1.036133;
270323;0.037109;0.026367;1.041992;
270543;0.035156;0.025391;1.024414;
270759;0.032227;0.023438;1.017578;
270993;0.034180;0.026367;1.019531;
271203;0.032227;0.027344;1.036133;
271419;0.035156;0.022461;1.017578;
271653;0.032227;0.016602;1.016602;
271863;0.037109;0.022461;1.026367;
272083;0.036133;0.020508;1.029297;
272303;0.035156;0.023438;1.032227;
272523;0.036133;0.022461;1.046875;
272733;0.036133;0.025391;1.035156;
272939;0.034180;0.025391;1.049805;
273158;0.037109;0.025391;1.056641;
273389;0.036133;0.028320;1.044922;
273599;0.037109;0.031250;1.050781;
273809;0.036133;0.031250;1.057617;
274030;0.035156;0.030273;1.049805;
274249;0.039062;0.033203;1.060547;
274473;0.034180;0.033203;1.052734;
274693;0.036133;0.038086;1.061523;
274913;0.037109;0.037109;1.045898;
275133;0.038086;0.035156;1.041016;
275343;0.036133;0.036133;1.053711;
275553;0.038086;0.034180;1.055664;
275773;0.039062;0.033203;1.066406;
275993;0.041016;0.037109;1.070312;
276213;0.043945;0.036133;1.092773;
276433;0.045898;0.039062;1.130859;
276643;0.045898;0.037109;1.143555;
276853;0.051758;0.037109;1.155273;
277063;0.051758;0.039062;1.180664;
277279;0.053711;0.040039;1.186523;
277499;0.057617;0.038086;1.214844;
277713;0.054688;0.037109;1.218750;
277939;0.058594;0.038086;1.211914;
278159;0.059570;0.035156;1.225586;
278383;0.060547;0.039062;1.252930;
278603;0.064453;0.038086;1.276367;
278823;0.070312;0.036133;1.281250;
279033;0.071289;0.037109;1.306641;
279253;0.074219;0.038086;1.324219;
279463;0.076172;0.038086;1.322266;
279683;0.078125;0.034180;1.349609;
279903;0.081055;0.033203;1.369141;
280123;0.083008;0.031250;1.344727;
280333;0.081055;0.032227;1.361328;
280553;0.079102;0.035156;1.349609;
280773;0.075195;0.034180;1.317383;
280993;0.071289;0.033203;1.275391;
281213;0.067383;0.030273;1.240234;
281429;0.063477;0.032227;1.218750;
281639;0.057617;0.033203;1.176758;
281853;0.051758;0.034180;1.131836;
282069;0.049805;0.033203;1.107422;
282279;0.044922;0.032227;1.077148;
282503;0.039062;0.037109;1.044922;
282713;0.040039;0.039062;1.038086;
282933;0.036133;0.033203;1.020508;
283143;0.036133;0.035156;1.019531;
283363;0.038086;0.035156;1.032227;
283573;0.040039;0.030273;1.020508;
283783;0.040039;0.032227;1.044922;
284003;0.044922;0.033203;1.063477;
284223;0.044922;0.029297;1.069336;
284443;0.044922;0.031250;1.090820;
284663;0.048828;0.032227;1.114258;
284873;0.053711;0.029297;1.135742;
285089;0.054688;0.028320;1.159180;
285303;0.056641;0.028320;1.163086;
285519;0.060547;0.023438;1.184570;
285740;0.063477;0.030273;1.210938;
285959;0.062500;0.029297;1.214844;
286189;0.066406;0.030273;1.216797;
286409;0.064453;0.031250;1.243164;
286619;0.068359;0.030273;1.258789;
286849;0.067383;0.030273;1.242188;
287073;0.065430;0.030273;1.249023;
287293;0.069336;0.031250;1.255859;
287509;0.067383;0.036133;1.259766;
287730;0.071289;0.032227;1.262695;
287943;0.071289;0.033203;1.279297;
288163;0.071289;0.031250;1.268555;
288379;0.071289;0.030273;1.260742;
288603;0.070312;0.035156;1.275391;
288813;0.070312;0.033203;1.271484;
289029;0.068359;0.034180;1.249023;
289243;0.067383;0.033203;1.241211;
289463;0.067383;0.031250;1.248047;
289679;0.067383;0.033203;1.234375;
289909;0.067383;0.033203;1.229492;
290129;0.064453;0.037109;1.228516;
290349;0.063477;0.037109;1.222656;
290569;0.066406;0.033203;1.212891;
290789;0.063477;0.041016;1.215820;
290999;0.064453;0.035156;1.207031;
291223;0.060547;0.034180;1.179688;
291443;0.057617;0.035156;1.172852;
291649;0.060547;0.040039;1.174805;
291873;0.059570;0.035156;1.166992;
292093;0.058594;0.033203;1.149414;
292300;0.055664;0.032227;1.148438;
292519;0.058594;0.035156;1.148438;
292743;0.052734;0.036133;1.128906;
292953;0.052734;0.034180;1.107422;
293170;0.048828;0.033203;1.093750;
293383;0.044922;0.035156;1.072266;
293593;0.042969;0.036133;1.046875;
293814;0.043945;0.033203;1.031250;
294019;0.041992;0.036133;1.015625;
294249;0.038086;0.035156;1.002930;
294478;0.037109;0.034180;0.997070;
294701;0.035156;0.037109;0.974609;
294919;0.034180;0.036133;0.961914;
295149;0.032227;0.033203;0.961914;
295369;0.034180;0.033203;0.960938;
295593;0.035156;0.040039;0.974609;
295803;0.033203;0.038086;0.958984;
296023;0.034180;0.037109;0.973633;
296229;0.036133;0.033203;0.969727;
296453;0.035156;0.033203;0.971680;
296673;0.036133;0.036133;0.991211;
296889;0.037109;0.036133;0.994141;
297113;0.038086;0.040039;1.003906;
297333;0.038086;0.036133;1.016602;
297554;0.038086;0.039062;1.027344;
297759;0.041016;0.039062;1.030273;
297983;0.041992;0.036133;1.053711;
298203;0.043945;0.035156;1.062500;
298409;0.045898;0.033203;1.074219;
298629;0.048828;0.036133;1.099609;
298840;0.048828;0.036133;1.109375;
299049;0.050781;0.036133;1.132812;
299259;0.051758;0.035156;1.130859;
299469;0.053711;0.031250;1.136719;
299689;0.054688;0.032227;1.162109;
299913;0.055664;0.036133;1.165039;
300129;0.058594;0.034180;1.166992;
300353;0.058594;0.033203;1.173828;
300573;0.057617;0.037109;1.173828;
300793;0.054688;0.031250;1.149414;
301009;0.053711;0.037109;1.156250;
301233;0.051758;0.033203;1.131836;
301453;0.047852;0.033203;1.105469;
301669;0.047852;0.035156;1.101562;
301883;0.042969;0.035156;1.065430;
302103;0.041016;0.037109;1.046875;
302321;0.038086;0.036133;1.034180;
302533;0.035156;0.035156;1.004883;
302750;0.036133;0.037109;1.019531;
302969;0.035156;0.039062;1.008789;
303201;0.035156;0.037109;1.004883;
303430;0.034180;0.036133;0.987305;
303638;0.031250;0.039062;0.982422;
303873;0.037109;0.035156;0.993164;
304093;0.034180;0.037109;0.992188;
304314;0.036133;0.037109;1.006836;
304533;0.036133;0.036133;1.018555;
304753;0.035156;0.039062;1.011719;
304963;0.035156;0.037109;1.020508;
305183;0.037109;0.035156;1.013672;
305393;0.035156;0.032227;1.013672;
305613;0.035156;0.037109;1.018555;
305829;0.034180;0.034180;1.014648;
306063;0.033203;0.039062;1.009766;
306273;0.033203;0.037109;1.028320;
306489;0.034180;0.032227;1.013672;
306699;0.033203;0.034180;1.014648;
306929;0.030273;0.037109;1.016602;
307142;0.036133;0.036133;1.018555;
307369;0.033203;0.038086;1.033203;
307599;0.034180;0.037109;1.025391;
307829;0.034180;0.033203;1.018555;
308049;0.035156;0.034180;1.016602;
308269;0.032227;0.037109;1.037109;
308503;0.033203;0.033203;1.028320;
308713;0.032227;0.041016;1.043945;
308923;0.035156;0.037109;1.048828;
309139;0.039062;0.038086;1.075195;
309349;0.038086;0.036133;1.070312;
309563;0.041016;0.038086;1.085938;
309779;0.040039;0.035156;1.093750;
310003;0.040039;0.037109;1.094727;
310213;0.038086;0.038086;1.112305;
310433;0.041016;0.032227;1.119141;
310643;0.043945;0.035156;1.134766;
310863;0.044922;0.034180;1.132812;
311070;0.041992;0.035156;1.146484;
311289;0.044922;0.035156;1.133789;
311509;0.042969;0.034180;1.139648;
311749;0.042969;0.035156;1.152344;
311973;0.042969;0.038086;1.132812;
312193;0.040039;0.035156;1.134766;
312413;0.041992;0.035156;1.133789;
312633;0.042969;0.035156;1.132812;
312843;0.041016;0.034180;1.130859;
313053;0.040039;0.035156;1.144531;
313273;0.040039;0.036133;1.122070;
313493;0.037109;0.031250;1.103516;
313703;0.038086;0.039062;1.115234;
313913;0.037109;0.036133;1.104492;
314133;0.036133;0.034180;1.117188;
314343;0.037109;0.034180;1.108398;
314563;0.036133;0.036133;1.100586;
314773;0.035156;0.031250;1.098633;
314990;0.035156;0.034180;1.107422;
315199;0.034180;0.035156;1.113281;
315420;0.037109;0.030273;1.113281;
315639;0.036133;0.027344;1.110352;
315853;0.031250;0.034180;1.111328;
316073;0.032227;0.032227;1.094727;
316283;0.031250;0.033203;1.095703;
316493;0.031250;0.034180;1.080078;
316713;0.031250;0.032227;1.088867;
316933;0.032227;0.034180;1.083008;
317153;0.028320;0.038086;1.087891;
317373;0.030273;0.035156;1.084961;
317593;0.029297;0.029297;1.089844;
317813;0.031250;0.036133;1.095703;
318033;0.026367;0.035156;1.093750;
318243;0.028320;0.037109;1.096680;
318463;0.027344;0.028320;1.091797;
318673;0.030273;0.034180;1.104492;
318880;0.030273;0.034180;1.113281;
319098;0.027344;0.031250;1.102539;
319309;0.028320;0.030273;1.110352;
319533;0.028320;0.031250;1.101562;
319753;0.026367;0.030273;1.109375;
319973;0.028320;0.029297;1.114258;
320193;0.031250;0.031250;1.114258;
320403;0.030273;0.030273;1.106445;
320623;0.029297;0.030273;1.113281;
320843;0.027344;0.032227;1.109375;
321053;0.028320;0.032227;1.131836;
321273;0.027344;0.036133;1.121094;
321493;0.023438;0.033203;1.115234;
321713;0.025391;0.033203;1.119141;
321933;0.031250;0.032227;1.133789;
322153;0.026367;0.029297;1.120117;
322363;0.026367;0.031250;1.122070;
322579;0.023438;0.029297;1.117188;
322793;0.025391;0.032227;1.130859;
323009;0.026367;0.025391;1.121094;
323229;0.026367;0.034180;1.142578;
323439;0.024414;0.034180;1.115234;
323669;0.025391;0.032227;1.137695;
323893;0.023438;0.031250;1.128906;
324113;0.022461;0.033203;1.116211;
324333;0.022461;0.035156;1.113281;
324553;0.023438;0.034180;1.121094;
324773;0.024414;0.035156;1.126953;
324983;0.022461;0.037109;1.132812;
325193;0.023438;0.035156;1.125977;
325413;0.024414;0.037109;1.142578;
325623;0.023438;0.036133;1.148438;
325843;0.022461;0.037109;1.155273;
326063;0.024414;0.032227;1.156250;
326273;0.024414;0.031250;1.152344;
326483;0.025391;0.033203;1.166016;
326693;0.024414;0.031250;1.158203;
326918;0.022461;0.032227;1.161133;
327139;0.024414;0.029297;1.156250;
327350;0.023438;0.031250;1.164062;
327569;0.023438;0.035156;1.164062;
327793;0.021484;0.034180;1.152344;
328003;0.022461;0.036133;1.165039;
328223;0.025391;0.030273;1.161133;
328433;0.023438;0.033203;1.170898;
328643;0.020508;0.031250;1.147461;
328863;0.017578;0.035156;1.134766;
329073;0.016602;0.032227;1.125000;
329293;0.016602;0.030273;1.094727;
329513;0.012695;0.035156;1.076172;
329723;0.011719;0.033203;1.039062;
329943;0.007812;0.031250;1.026367;
330153;0.005859;0.033203;0.999023;
330363;0.006836;0.036133;0.990234;
330570;0.004883;0.034180;0.977539;
330789;0.004883;0.031250;0.962891;
331013;0.003906;0.032227;0.974609;
331233;0.000000;0.030273;0.955078;
331449;0.001953;0.030273;0.967773;
331670;0.003906;0.030273;0.982422;
331902;0.002930;0.036133;1.005859;
332121;0.002930;0.034180;1.005859;
332333;0.003906;0.033203;1.007812;
332553;0.009766;0.036133;1.048828;
332763;0.008789;0.034180;1.040039;
332973;0.006836;0.032227;1.045898;
333193;0.007812;0.030273;1.058594;
333413;0.009766;0.035156;1.059570;
333633;0.008789;0.029297;1.076172;
333843;0.008789;0.028320;1.070312;
334053;0.009766;0.032227;1.093750;
334273;0.011719;0.028320;1.091797;
334493;0.007812;0.027344;1.084961;
334713;0.007812;0.035156;1.084961;
334929;0.010742;0.028320;1.091797;
335163;0.007812;0.034180;1.068359;
335379;0.006836;0.033203;1.059570;
335589;0.005859;0.031250;1.068359;
335819;0.003906;0.036133;1.041016;
336049;0.004883;0.034180;1.042969;
336283;0.003906;0.041016;1.046875;
336499;0.000000;0.033203;1.046875;
336713;0.002930;0.029297;1.044922;
336933;0.005859;0.035156;1.060547;
337149;0.001953;0.031250;1.041992;
337373;0.003906;0.029297;1.044922;
337583;0.001953;0.031250;1.050781;
337799;0.001953;0.035156;1.039062;
338023;0.003906;0.031250;1.053711;
338233;0.004883;0.031250;1.052734;
338453;0.003906;0.030273;1.071289;
338660;0.002930;0.032227;1.073242;
338883;0.004883;0.031250;1.087891;
339103;0.002930;0.032227;1.086914;
339319;0.004883;0.031250;1.081055;
339539;0.005859;0.030273;1.096680;
339771;0.007812;0.029297;1.092773;
339988;0.005859;0.036133;1.096680;
340209;0.005859;0.029297;1.088867;
340419;0.004883;0.030273;1.090820;
340633;0.004883;0.035156;1.081055;
340853;0.002930;0.030273;1.096680;
341063;0.002930;0.030273;1.085938;
341269;0.003906;0.025391;1.075195;
341493;0.003906;0.032227;1.084961;
341703;0.002930;0.029297;1.064453;
341923;-0.002930;0.037109;1.059570;
342143;-0.003906;0.033203;1.034180;
342353;-0.006836;0.032227;0.998047;
342573;-0.005859;0.030273;0.997070;
342789;-0.008789;0.031250;0.973633;
343013;-0.008789;0.032227;0.976562;
343233;-0.009766;0.031250;0.962891;
343449;-0.011719;0.036133;0.965820;
343659;-0.012695;0.029297;0.979492;
343868;-0.004883;0.030273;0.993164;
344089;-0.005859;0.030273;1.003906;
344308;-0.004883;0.026367;1.033203;
344538;-0.001953;0.031250;1.055664;
344750;-0.006836;0.033203;1.057617;
344963;-0.004883;0.036133;1.080078;
345183;0.000000;0.035156;1.089844;
345399;-0.001953;0.035156;1.098633;
345613;-0.003906;0.038086;1.104492;
345833;-0.002930;0.033203;1.088867;
346049;-0.001953;0.035156;1.096680;
346253;-0.002930;0.035156;1.085938;
346479;0.000000;0.033203;1.088867;
346690;-0.003906;0.030273;1.078125;
346903;-0.003906;0.035156;1.082031;
347123;-0.002930;0.029297;1.097656;
347343;-0.003906;0.031250;1.098633;
347573;-0.003906;0.034180;1.131836;
347789;0.000000;0.033203;1.139648;
347999;0.000000;0.034180;1.141602;
348209;0.001953;0.035156;1.173828;
348433;0.000977;0.032227;1.181641;
348649;0.001953;0.034180;1.192383;
348879;0.000977;0.033203;1.193359;
349103;0.000977;0.032227;1.193359;
349323;0.000977;0.030273;1.186523;
349543;0.002930;0.030273;1.186523;
349763;-0.001953;0.030273;1.152344;
349983;-0.000977;0.034180;1.163086;
350193;-0.003906;0.031250;1.144531;
350403;-0.004883;0.034180;1.145508;
350613;-0.005859;0.033203;1.154297;
350833;-0.001953;0.035156;1.158203;
351053;-0.003906;0.031250;1.167969;
351263;0.001953;0.036133;1.190430;
351483;0.000000;0.034180;1.191406;
351693;0.000977;0.042969;1.210938;
351903;0.000000;0.034180;1.212891;
352123;0.000977;0.035156;1.212891;
352343;-0.000977;0.037109;1.206055;
352550;0.000977;0.044922;1.220703;
352759;0.000977;0.040039;1.222656;
352979;-0.001953;0.041992;1.178711;
353203;-0.002930;0.039062;1.200195;
353413;-0.003906;0.041992;1.182617;
353623;-0.001953;0.035156;1.181641;
353843;-0.003906;0.040039;1.193359;
354063;-0.006836;0.039062;1.170898;
354273;-0.006836;0.037109;1.171875;
354493;-0.003906;0.029297;1.158203;
354713;-0.009766;0.035156;1.144531;
354933;-0.007812;0.032227;1.133789;
355153;-0.010742;0.041992;1.119141;
355373;-0.007812;0.041992;1.123047;
355583;-0.006836;0.037109;1.103516;
355803;-0.012695;0.037109;1.107422;
356023;-0.009766;0.037109;1.101562;
356239;-0.014648;0.035156;1.093750;
356469;-0.013672;0.036133;1.107422;
356680;-0.013672;0.037109;1.093750;
356889;-0.015625;0.033203;1.102539;
357113;-0.011719;0.028320;1.104492;
357323;-0.011719;0.038086;1.103516;
357543;-0.012695;0.042969;1.125977;
357753;-0.013672;0.039062;1.102539;
357973;-0.014648;0.037109;1.108398;
358193;-0.011719;0.033203;1.112305;
358413;-0.011719;0.041992;1.109375;
358623;-0.014648;0.033203;1.101562;
358833;-0.012695;0.032227;1.096680;
359053;-0.016602;0.038086;1.093750;
359263;-0.016602;0.032227;1.081055;
359483;-0.012695;0.035156;1.089844;
359703;-0.015625;0.039062;1.098633;
359913;-0.013672;0.036133;1.091797;
360120;-0.013672;0.031250;1.081055;
360339;-0.012695;0.035156;1.116211;
360559;-0.007812;0.033203;1.120117;
360770;-0.014648;0.043945;1.133789;
360979;-0.011719;0.033203;1.138672;
361193;-0.009766;0.030273;1.141602;
361413;-0.011719;0.032227;1.146484;
361623;-0.012695;0.032227;1.129883;
361833;-0.013672;0.036133;1.118164;
362053;-0.018555;0.032227;1.113281;
362273;-0.018555;0.033203;1.095703;
362483;-0.019531;0.041992;1.093750;
362689;-0.020508;0.041992;1.087891;
362903;-0.021484;0.038086;1.073242;
363123;-0.019531;0.037109;1.078125;
363343;-0.020508;0.033203;1.075195;
363563;-0.022461;0.034180;1.085938;
363773;-0.016602;0.037109;1.118164;
363993;-0.018555;0.040039;1.162109;
364209;-0.013672;0.034180;1.197266;
364419;-0.009766;0.041992;1.226562;
364643;-0.010742;0.039062;1.258789;
364849;-0.007812;0.033203;1.277344;
365058;-0.010742;0.036133;1.265625;
365289;-0.013672;0.035156;1.246094;
365499;-0.018555;0.034180;1.184570;
365719;-0.014648;0.031250;1.207031;
365943;-0.022461;0.031250;1.183594;
366163;-0.014648;0.035156;1.237305;
366373;-0.013672;0.033203;1.295898;
366589;-0.003906;0.035156;1.389648;
366793;0.009766;0.035156;1.497070;
367013;0.006836;0.036133;1.541016;
367223;0.012695;0.039062;1.605469;
367433;0.013672;0.031250;1.594727;
367653;0.015625;0.033203;1.600586;
367863;0.013672;0.028320;1.571289;
368083;0.005859;0.037109;1.534180;
368299;0.006836;0.025391;1.494141;
368523;0.003906;0.035156;1.504883;
368739;0.007812;0.030273;1.506836;
368969;0.002930;0.032227;1.517578;
369199;0.007812;0.033203;1.544922;
369419;0.006836;0.031250;1.541992;
369629;0.008789;0.035156;1.550781;
369870;0.012695;0.031250;1.529297;
370079;0.007812;0.034180;1.532227;
370299;0.006836;0.033203;1.513672;
370513;0.011719;0.031250;1.536133;
370733;0.006836;0.028320;1.512695;
370949;0.011719;0.026367;1.527344;
371173;0.008789;0.027344;1.501953;
371393;0.008789;0.029297;1.496094;
371610;0.002930;0.035156;1.463867;
371833;0.004883;0.033203;1.442383;
372043;0.000000;0.036133;1.412109;
372259;-0.002930;0.032227;1.376953;
372493;-0.010742;0.034180;1.302734;
372703;-0.010742;0.033203;1.265625;
372919;-0.013672;0.030273;1.204102;
373139;-0.020508;0.030273;1.136719;
373369;-0.022461;0.032227;1.076172;
373589;-0.026367;0.032227;1.031250;
373809;-0.024414;0.024414;1.003906;
374039;-0.027344;0.033203;1.009766;
374249;-0.027344;0.033203;1.005859;
374473;-0.026367;0.035156;1.019531;
374693;-0.023438;0.038086;1.030273;
374903;-0.029297;0.032227;1.004883;
375119;-0.027344;0.035156;1.020508;
375353;-0.027344;0.033203;0.993164;
375573;-0.027344;0.034180;0.997070;
375779;-0.024414;0.036133;0.990234;
376003;-0.026367;0.033203;1.006836;
376213;-0.025391;0.031250;1.014648;
376419;-0.027344;0.039062;1.002930;
376629;-0.026367;0.032227;1.000000;
376843;-0.028320;0.036133;0.975586;
377063;-0.027344;0.035156;0.975586;
377269;-0.028320;0.034180;0.973633;
377489;-0.025391;0.038086;0.997070;
377699;-0.023438;0.035156;1.041016;
377913;-0.022461;0.036133;1.097656;
378130;-0.020508;0.034180;1.124023;
378339;-0.014648;0.035156;1.172852;
378559;-0.016602;0.038086;1.184570;
378769;-0.014648;0.037109;1.192383;
378983;-0.015625;0.038086;1.181641;
379193;-0.016602;0.035156;1.161133;
379403;-0.015625;0.032227;1.126953;
379619;-0.022461;0.034180;1.092773;
379843;-0.021484;0.030273;1.094727;
380063;-0.023438;0.038086;1.095703;
380269;-0.023438;0.036133;1.108398;
380469;-0.020508;0.033203;1.128906;
380680;-0.017578;0.036133;1.169922;
380903;-0.014648;0.035156;1.189453;
381123;-0.019531;0.033203;1.194336;
381339;-0.014648;0.028320;1.202148;
381543;-0.012695;0.029297;1.204102;
381763;-0.014648;0.032227;1.189453;
381978;-0.015625;0.031250;1.209961;
382200;-0.013672;0.032227;1.201172;
382429;-0.012695;0.032227;1.204102;
382649;-0.015625;0.030273;1.209961;
382879;-0.008789;0.036133;1.231445;
383110;-0.009766;0.037109;1.248047;
383343;-0.005859;0.031250;1.242188;
383563;-0.007812;0.036133;1.241211;
383779;-0.007812;0.037109;1.260742;
383999;-0.010742;0.031250;1.253906;
384223;-0.008789;0.036133;1.262695;
384443;-0.009766;0.033203;1.249023;
384658;-0.004883;0.030273;1.255859;
384893;-0.005859;0.030273;1.247070;
385113;0.003906;0.031250;1.256836;
385329;0.008789;0.026367;1.258789;
385543;0.013672;0.029297;1.246094;
385763;0.021484;0.029297;1.228516;
385983;0.023438;0.029297;1.197266;
386189;0.020508;0.035156;1.184570;
386409;0.020508;0.028320;1.129883;
386640;0.019531;0.031250;1.114258;
386870;0.019531;0.029297;1.083984;
387098;0.020508;0.033203;1.063477;
387319;0.018555;0.031250;1.051758;
387540;0.020508;0.034180;1.050781;
387773;0.019531;0.031250;1.045898;
387983;0.024414;0.030273;1.038086;
388189;0.022461;0.033203;1.046875;
388409;0.018555;0.030273;1.049805;
388623;0.021484;0.028320;1.045898;
388843;0.023438;0.029297;1.042969;
389059;0.023438;0.029297;1.038086;
389273;0.023438;0.032227;1.013672;
389483;0.023438;0.034180;0.995117;
389689;0.020508;0.033203;0.972656;
389903;0.020508;0.035156;0.946289;
390123;0.021484;0.033203;0.941406;
390330;0.021484;0.033203;0.918945;
390539;0.028320;0.032227;0.930664;
390759;0.026367;0.029297;0.927734;
390989;0.025391;0.031250;0.949219;
391209;0.023438;0.036133;0.970703;
391419;0.025391;0.033203;0.999023;
391639;0.025391;0.029297;1.029297;
391863;0.027344;0.030273;1.061523;
392073;0.028320;0.027344;1.075195;
392289;0.027344;0.030273;1.101562;
392513;0.028320;0.027344;1.125000;
392733;0.033203;0.026367;1.138672;
392949;0.031250;0.032227;1.152344;
393163;0.032227;0.027344;1.170898;
393383;0.037109;0.031250;1.206055;
393593;0.038086;0.034180;1.236328;
393813;0.036133;0.030273;1.251953;
394023;0.040039;0.033203;1.261719;
394233;0.036133;0.029297;1.273438;
394450;0.038086;0.025391;1.266602;
394659;0.038086;0.031250;1.261719;
394869;0.041016;0.026367;1.255859;
395099;0.034180;0.029297;1.248047;
395310;0.037109;0.031250;1.226562;
395519;0.033203;0.028320;1.223633;
395749;0.032227;0.035156;1.208008;
395983;0.032227;0.031250;1.190430;
396203;0.030273;0.029297;1.180664;
396419;0.033203;0.031250;1.177734;
396643;0.031250;0.032227;1.138672;
396853;0.030273;0.033203;1.129883;
397063;0.027344;0.032227;1.097656;
397269;0.028320;0.027344;1.078125;
397483;0.025391;0.031250;1.067383;
397643;0.024414;0.032227;1.046875;
397849;0.023438;0.031250;1.024414;
398073;0.023438;0.023438;1.024414;
398293;0.020508;0.029297;1.015625;
398499;0.020508;0.029297;1.015625;
398719;0.021484;0.031250;1.010742;
398929;0.020508;0.035156;1.006836;
399150;0.019531;0.030273;1.012695;
399370;0.020508;0.030273;1.017578;
399603;0.024414;0.033203;1.009766;
399823;0.019531;0.033203;1.005859;
400033;0.020508;0.031250;1.011719;
400253;0.021484;0.028320;1.017578;
400473;0.021484;0.034180;1.027344;
400683;0.019531;0.031250;1.018555;
400893;0.021484;0.032227;1.030273;
401113;0.024414;0.029297;1.035156;
401333;0.024414;0.027344;1.048828;
401553;0.029297;0.032227;1.071289;
401773;0.033203;0.031250;1.066406;
401983;0.034180;0.032227;1.093750;
402193;0.041992;0.032227;1.125977;
402409;0.048828;0.030273;1.163086;
402623;0.053711;0.029297;1.191406;
402839;0.055664;0.034180;1.223633;
403059;0.055664;0.030273;1.214844;
403269;0.054688;0.034180;1.225586;
403493;0.053711;0.030273;1.223633;
403713;0.048828;0.032227;1.204102;
403923;0.046875;0.033203;1.182617;
404143;0.044922;0.033203;1.173828;
404363;0.045898;0.032227;1.159180;
404583;0.043945;0.030273;1.142578;
404793;0.046875;0.032227;1.132812;
405003;0.043945;0.034180;1.126953;
405223;0.041992;0.037109;1.130859;
405443;0.040039;0.036133;1.118164;
405663;0.040039;0.041992;1.118164;
405883;0.044922;0.034180;1.125000;
406103;0.045898;0.037109;1.124023;
406313;0.041016;0.033203;1.124023;
406519;0.045898;0.036133;1.119141;
406739;0.043945;0.035156;1.111328;
406970;0.041992;0.033203;1.101562;
407193;0.041016;0.032227;1.101562;
407411;0.040039;0.033203;1.080078;
407629;0.038086;0.032227;1.062500;
407853;0.038086;0.028320;1.043945;
408063;0.034180;0.029297;1.035156;
408273;0.035156;0.031250;1.018555;
408493;0.035156;0.027344;1.015625;
408713;0.034180;0.032227;0.997070;
408933;0.036133;0.033203;1.000977;
409143;0.034180;0.034180;0.990234;
409353;0.033203;0.035156;0.986328;
409563;0.032227;0.032227;1.000000;
409783;0.031250;0.028320;0.977539;
409993;0.033203;0.029297;0.976562;
410213;0.032227;0.031250;0.955078;
410433;0.029297;0.028320;0.949219;
410643;0.032227;0.029297;0.944336;
410859;0.032227;0.027344;0.924805;
411089;0.035156;0.027344;0.907227;
411299;0.044922;0.032227;0.912109;
411511;0.043945;0.032227;0.889648;
411733;0.042969;0.032227;0.885742;
411953;0.047852;0.034180;0.906250;
412163;0.051758;0.032227;0.958984;
412383;0.056641;0.024414;1.024414;
412593;0.059570;0.025391;1.078125;
412813;0.071289;0.020508;1.165039;
413023;0.072266;0.019531;1.190430;
413233;0.073242;0.020508;1.197266;
413443;0.075195;0.022461;1.176758;
413653;0.075195;0.019531;1.137695;
413873;0.069336;0.025391;1.083984;
414093;0.072266;0.024414;1.069336;
414303;0.074219;0.029297;1.061523;
414513;0.070312;0.028320;1.069336;
414729;0.073242;0.030273;1.089844;
414940;0.080078;0.033203;1.097656;
415159;0.081055;0.029297;1.103516;
415379;0.083984;0.024414;1.099609;
415589;0.087891;0.026367;1.094727;
415813;0.087891;0.025391;1.090820;
416023;0.096680;0.025391;1.072266;
416233;0.099609;0.023438;1.063477;
416453;0.100586;0.021484;1.044922;
416673;0.100586;0.029297;1.031250;
416893;0.100586;0.028320;1.040039;
417103;0.101562;0.025391;1.006836;
417323;0.096680;0.026367;1.005859;
417533;0.097656;0.026367;0.999023;
417743;0.099609;0.029297;0.979492;
417963;0.100586;0.024414;0.987305;
418183;0.101562;0.028320;0.977539;
418393;0.103516;0.028320;1.000000;
418603;0.097656;0.029297;0.993164;
418809;0.103516;0.028320;0.998047;
419039;0.102539;0.020508;0.996094;
419249;0.099609;0.033203;0.997070;
419459;0.098633;0.019531;0.996094;
419679;0.101562;0.024414;0.984375;
419903;0.101562;0.024414;1.001953;
420123;0.099609;0.025391;1.018555;
420343;0.102539;0.019531;1.048828;
420563;0.103516;0.024414;1.062500;
420783;0.100586;0.019531;1.088867;
421003;0.103516;0.022461;1.090820;
421213;0.103516;0.022461;1.124023;
421423;0.102539;0.022461;1.128906;
421633;0.105469;0.019531;1.160156;
421843;0.104492;0.023438;1.165039;
422063;0.107422;0.024414;1.166016;
422283;0.104492;0.021484;1.189453;
422503;0.105469;0.023438;1.183594;
422713;0.102539;0.022461;1.193359;
422929;0.103516;0.021484;1.187500;
423149;0.105469;0.025391;1.208984;
423373;0.100586;0.022461;1.197266;
423589;0.106445;0.024414;1.213867;
423803;0.102539;0.022461;1.202148;
424009;0.102539;0.019531;1.194336;
424233;0.101562;0.017578;1.181641;
424443;0.102539;0.026367;1.183594;
424653;0.102539;0.028320;1.151367;
424873;0.100586;0.024414;1.145508;
425083;0.095703;0.023438;1.107422;
425303;0.098633;0.031250;1.083984;
425523;0.096680;0.027344;1.045898;
425743;0.091797;0.036133;0.992188;
425963;0.086914;0.024414;0.915039;
426183;0.086914;0.025391;0.832031;
426393;0.090820;0.024414;0.790039;
426603;0.082031;0.015625;0.736328;
426813;0.082031;0.018555;0.710938;
427033;0.081055;0.023438;0.739258;
427240;0.080078;0.017578;0.762695;
427459;0.083008;0.026367;0.796875;
427669;0.084961;0.024414;0.837891;
427893;0.081055;0.026367;0.870117;
428113;0.085938;0.030273;0.910156;
428333;0.085938;0.023438;0.927734;
428543;0.086914;0.027344;0.921875;
428753;0.086914;0.020508;0.954102;
428973;0.086914;0.023438;0.987305;
429193;0.086914;0.022461;1.015625;
429413;0.091797;0.022461;1.071289;
429633;0.085938;0.019531;1.070312;
429853;0.086914;0.018555;1.092773;
430063;0.094727;0.016602;1.138672;
430283;0.092773;0.018555;1.162109;
430503;0.092773;0.019531;1.167969;
430723;0.088867;0.022461;1.192383;
430943;0.086914;0.019531;1.192383;
431161;0.094727;0.023438;1.180664;
431378;0.089844;0.016602;1.201172;
431599;0.094727;0.015625;1.196289;
431809;0.090820;0.021484;1.178711;
432043;0.089844;0.023438;1.175781;
432254;0.085938;0.015625;1.152344;
432473;0.089844;0.024414;1.137695;
432693;0.086914;0.025391;1.125977;
432903;0.083984;0.018555;1.114258;
433113;0.084961;0.019531;1.103516;
433333;0.083984;0.023438;1.090820;
433553;0.086914;0.022461;1.086914;
433773;0.081055;0.022461;1.085938;
433983;0.083008;0.023438;1.104492;
434203;0.084961;0.023438;1.162109;
434423;0.088867;0.027344;1.243164;
434643;0.091797;0.019531;1.374023;
434859;0.100586;0.023438;1.479492;
435059;0.105469;0.022461;1.573242;
435269;0.114258;0.021484;1.652344;
435489;0.117188;0.019531;1.719727;
435713;0.122070;0.018555;1.772461;
435923;0.123047;0.021484;1.804688;
436133;0.123047;0.013672;1.826172;
436353;0.127930;0.022461;1.857422;
436573;0.127930;0.020508;1.872070;
436793;0.126953;0.016602;1.852539;
437003;0.127930;0.014648;1.859375;
437223;0.125000;0.017578;1.850586;
437443;0.127930;0.014648;1.856445;
437663;0.128906;0.017578;1.898438;
437883;0.129883;0.016602;1.915039;
438103;0.132812;0.010742;1.906250;
438323;0.133789;0.008789;1.889648;
438543;0.132812;0.010742;1.866211;
438760;0.130859;0.014648;1.838867;
438969;0.132812;0.012695;1.819336;
439189;0.126953;0.010742;1.805664;
439399;0.125000;0.006836;1.780273;
439609;0.130859;0.013672;1.801758;
439843;0.134766;0.010742;1.821289;
440063;0.134766;0.005859;1.847656;
440273;0.137695;0.016602;1.869141;
440483;0.137695;0.008789;1.886719;
440693;0.142578;0.007812;1.883789;
440913;0.139648;0.018555;1.868164;
441133;0.136719;0.016602;1.830078;
441353;0.132812;0.015625;1.773438;
441573;0.128906;0.017578;1.763672;
441783;0.134766;0.024414;1.736328;
441993;0.133789;0.020508;1.733398;
442213;0.136719;0.013672;1.756836;
442433;0.137695;0.013672;1.757812;
442643;0.142578;0.016602;1.798828;
442870;0.145508;0.025391;1.798828;
443099;0.148438;0.016602;1.833008;
443319;0.150391;0.012695;1.837891;
443533;0.151367;0.008789;1.849609;
443743;0.153320;0.009766;1.841797;
443963;0.153320;0.008789;1.840820;
444173;0.156250;0.016602;1.853516;
444383;0.152344;0.024414;1.836914;
444593;0.154297;0.022461;1.837891;
444803;0.154297;0.025391;1.800781;
445024;0.152344;0.021484;1.807617;
445243;0.154297;0.018555;1.807617;
445453;0.160156;0.019531;1.839844;
445673;0.162109;0.017578;1.853516;
445893;0.166992;0.017578;1.888672;
446103;0.165039;0.025391;1.893555;
446323;0.172852;0.022461;1.919922;
446543;0.171875;0.027344;1.895508;
446749;0.172852;0.034180;1.901367;
446969;0.172852;0.027344;1.891602;
447189;0.170898;0.028320;1.896484;
447399;0.172852;0.024414;1.882812;
447633;0.174805;0.013672;1.861328;
447853;0.172852;0.016602;1.848633;
448073;0.175781;0.010742;1.832031;
448293;0.170898;0.004883;1.802734;
448503;0.177734;0.005859;1.787109;
448713;0.170898;0.007812;1.764648;
448933;0.172852;0.004883;1.736328;
449153;0.175781;0.008789;1.722656;
449363;0.174805;0.008789;1.712891;
449573;0.174805;0.012695;1.689453;
449793;0.174805;0.017578;1.699219;
450003;0.178711;0.015625;1.693359;
450223;0.181641;0.015625;1.723633;
450443;0.189453;0.009766;1.738281;
450649;0.190430;0.010742;1.732422;
450869;0.199219;0.010742;1.791016;
451089;0.206055;0.022461;1.861328;
451323;0.210938;0.015625;1.893555;
451543;0.217773;0.022461;1.917969;
451753;0.220703;0.031250;1.946289;
451963;0.221680;0.024414;1.953125;
452183;0.223633;0.010742;1.915039;
452393;0.225586;0.021484;1.943359;
452613;0.224609;0.026367;1.914062;
452823;0.208984;0.018555;1.829102;
453033;0.207031;0.019531;1.818359;
453253;0.195312;0.021484;1.758789;
453473;0.177734;0.014648;1.688477;
453693;0.165039;0.007812;1.632812;
453913;0.156250;0.009766;1.649414;
454133;0.149414;0.007812;1.606445;
454339;0.127930;0.013672;1.491211;
454549;0.099609;0.013672;1.326172;
454779;0.083008;0.017578;1.167969;
454988;0.051758;0.021484;0.963867;
455223;0.032227;0.021484;0.745117;
455443;0.014648;0.031250;0.603516;
455653;0.015625;0.032227;0.489258;
455863;0.003906;0.027344;0.342773;
456073;0.000000;0.028320;0.221680;
456283;0.007812;0.032227;0.173828;
456503;0.000977;0.027344;0.104492;
456713;0.000977;0.028320;0.073242;
456923;-0.000977;0.031250;0.047852;
457143;-0.001953;0.030273;0.033203;
457353;-0.006836;0.029297;0.018555;
457563;-0.005859;0.029297;0.029297;
457783;-0.001953;0.031250;0.036133;
458003;-0.006836;0.031250;0.010742;
458219;-0.001953;0.027344;0.011719;
458449;-0.003906;0.024414;0.003906;
458669;-0.004883;0.025391;-0.002930;
458889;-0.005859;0.026367;-0.004883;
459103;-0.005859;0.024414;0.009766;
459323;-0.003906;0.026367;0.010742;
459543;-0.008789;0.029297;0.007812;
459759;-0.005859;0.029297;0.003906;
459983;-0.003906;0.022461;0.001953;
460203;-0.011719;0.025391;-0.000977;
460499;-0.011719;0.024414;0.013672;
460723;-0.007812;0.027344;0.037109;
460933;-0.012695;0.023438;0.022461;
461153;-0.012695;0.023438;0.032227;
461383;-0.014648;0.025391;0.031250;
461603;-0.014648;0.032227;0.035156;
461813;-0.014648;0.026367;0.025391;
462033;-0.013672;0.020508;0.031250;
462259;-0.012695;0.027344;0.019531;
462489;-0.012695;0.027344;-0.003906;
462709;-0.016602;0.024414;0.011719;
462939;-0.016602;0.030273;0.014648;
463163;-0.016602;0.029297;0.036133;
463383;-0.018555;0.027344;0.044922;
463593;-0.014648;0.034180;0.027344;
463813;-0.017578;0.023438;0.038086;
464033;-0.017578;0.025391;0.040039;
464243;-0.017578;0.027344;0.030273;
464463;-0.016602;0.027344;0.043945;
464683;-0.014648;0.027344;0.043945;
464893;-0.018555;0.027344;0.040039;
465113;-0.018555;0.029297;0.039062;
465333;-0.019531;0.033203;0.042969;
465553;-0.020508;0.035156;0.029297;
465773;-0.018555;0.032227;0.027344;
465989;-0.017578;0.032227;0.038086;
466200;-0.019531;0.032227;0.034180;
466429;-0.019531;0.031250;0.026367;
466649;-0.020508;0.030273;0.028320;
466883;-0.017578;0.031250;0.029297;
467103;-0.017578;0.029297;0.019531;
467313;-0.015625;0.033203;0.021484;
467533;-0.018555;0.031250;0.011719;
467753;-0.021484;0.029297;0.011719;
467973;-0.020508;0.033203;0.008789;
468193;-0.021484;0.035156;0.003906;
468413;-0.021484;0.034180;-0.000977;
468633;-0.021484;0.028320;-0.003906;
468843;-0.020508;0.025391;-0.014648;
469063;-0.018555;0.028320;-0.012695;
469293;-0.023438;0.029297;-0.017578;
469513;-0.021484;0.029297;-0.008789;
469719;-0.022461;0.027344;-0.003906;
469929;-0.021484;0.029297;0.004883;
470150;-0.023438;0.028320;0.007812;
470380;-0.021484;0.027344;0.005859;
470609;-0.023438;0.028320;0.005859;
470843;-0.023438;0.032227;0.010742;
471063;-0.024414;0.025391;0.023438;
471273;-0.027344;0.031250;0.009766;
471483;-0.026367;0.026367;0.037109;
471693;-0.027344;0.028320;0.029297;
471913;-0.026367;0.029297;0.038086;
472133;-0.026367;0.024414;0.036133;
472353;-0.025391;0.021484;0.041992;
472573;-0.025391;0.026367;0.036133;
472793;-0.025391;0.023438;0.039062;
473013;-0.026367;0.022461;0.039062;
473233;-0.027344;0.026367;0.023438;
473443;-0.030273;0.027344;0.024414;
473659;-0.029297;0.027344;0.034180;
473870;-0.032227;0.030273;0.035156;
474089;-0.031250;0.031250;0.038086;
474299;-0.028320;0.029297;0.038086;
474502;-0.031250;0.027344;0.025391;
474713;-0.033203;0.024414;-0.001953;
474923;-0.029297;0.029297;0.015625;
475143;-0.031250;0.022461;-0.001953;
475363;-0.034180;0.026367;0.009766;
475573;-0.032227;0.025391;-0.030273;
475789;-0.033203;0.024414;-0.030273;
476023;-0.033203;0.023438;-0.006836;
476243;-0.034180;0.024414;-0.008789;
476463;-0.033203;0.021484;-0.014648;
476683;-0.035156;0.023438;-0.003906;
476899;-0.036133;0.027344;-0.020508;
477123;-0.040039;0.025391;-0.031250;
477343;-0.037109;0.031250;-0.008789;
477549;-0.037109;0.027344;-0.008789;
477769;-0.041016;0.025391;-0.010742;
477989;-0.038086;0.031250;-0.007812;
478203;-0.039062;0.033203;0.003906;
478419;-0.041016;0.033203;-0.008789;
478630;-0.041992;0.031250;-0.007812;
478839;-0.042969;0.028320;-0.002930;
479053;-0.046875;0.023438;0.012695;
479263;-0.049805;0.023438;0.042969;
479483;-0.047852;0.023438;0.135742;
479703;-0.052734;0.026367;0.250977;
479923;-0.037109;0.019531;0.436523;
480133;-0.029297;0.021484;0.594727;
480343;-0.017578;0.024414;0.771484;
480553;0.002930;0.026367;0.962891;
480763;0.005859;0.022461;1.108398;
480973;0.011719;0.017578;1.236328;
481193;0.023438;0.021484;1.349609;
481413;0.032227;0.018555;1.432617;
481633;0.046875;0.019531;1.488281;
481855;0.053711;0.016602;1.518555;
482070;0.058594;0.022461;1.564453;
482293;0.060547;0.023438;1.588867;
482508;0.059570;0.026367;1.639648;
482719;0.051758;0.024414;1.683594;
482939;0.053711;0.031250;1.719727;
483173;0.050781;0.023438;1.738281;
483393;0.051758;0.031250;1.748047;
483603;0.059570;0.024414;1.823242;
483823;0.063477;0.029297;1.827148;
484043;0.057617;0.016602;1.859375;
484263;0.054688;0.015625;1.844727;
484483;0.055664;0.021484;1.863281;
484703;0.057617;0.009766;1.874023;
484913;0.044922;0.011719;1.883789;
485133;0.043945;0.020508;1.857422;
485343;0.050781;0.025391;1.891602;
485563;0.047852;0.028320;1.896484;
485783;0.042969;0.019531;1.906250;
485993;0.043945;0.013672;1.883789;
486219;0.042969;0.012695;1.882812;
486439;0.043945;0.018555;1.892578;
486659;0.039062;0.020508;1.889648;
486859;0.039062;0.020508;1.888672;
487079;0.037109;0.023438;1.883789;
487303;0.033203;0.027344;1.879883;
487523;0.030273;0.028320;1.856445;
487733;0.028320;0.028320;1.869141;
487943;0.022461;0.018555;1.838867;
488153;0.017578;0.015625;1.820312;
488373;0.018555;0.015625;1.814453;
488593;0.015625;0.016602;1.803711;
488813;0.005859;0.016602;1.786133;
489033;0.002930;0.013672;1.773438;
489253;0.000000;0.011719;1.756836;
489463;0.000000;0.015625;1.748047;
489673;-0.004883;0.012695;1.754883;
489893;-0.003906;0.019531;1.752930;
490099;-0.006836;0.017578;1.743164;
490319;-0.008789;0.016602;1.757812;
490549;-0.006836;0.014648;1.778320;
490779;-0.006836;0.008789;1.803711;
491013;-0.004883;0.002930;1.813477;
491223;-0.003906;0.009766;1.833008;
491443;-0.004883;0.002930;1.853516;
491653;-0.000977;0.005859;1.860352;
491863;-0.001953;0.000977;1.880859;
492083;-0.000977;0.007812;1.903320;
492303;0.000000;0.005859;1.886719;
492513;-0.003906;0.013672;1.888672;
492723;-0.004883;0.006836;1.872070;
492933;-0.006836;0.010742;1.866211;
493143;-0.009766;0.008789;1.838867;
493363;-0.009766;0.009766;1.815430;
493583;-0.012695;0.009766;1.784180;
493793;-0.018555;0.008789;1.759766;
493999;-0.023438;0.012695;1.734375;
494210;-0.022461;0.013672;1.730469;
494439;-0.024414;0.010742;1.707031;
494659;-0.029297;0.013672;1.669922;
494873;-0.034180;0.018555;1.652344;
495093;-0.036133;0.014648;1.624023;
495303;-0.033203;0.014648;1.610352;
495513;-0.039062;0.022461;1.578125;
495733;-0.041016;0.017578;1.554688;
495953;-0.046875;0.016602;1.516602;
496163;-0.044922;0.020508;1.489258;
496373;-0.048828;0.016602;1.449219;
496593;-0.054688;0.017578;1.410156;
496803;-0.059570;0.022461;1.370117;
497023;-0.059570;0.024414;1.341797;
497243;-0.060547;0.023438;1.296875;
497463;-0.065430;0.026367;1.277344;
497683;-0.065430;0.023438;1.272461;
497899;-0.066406;0.022461;1.263672;
