Time;acc_x;acc_y;acc_z;

1787;-0.021484;0.026367;1.024414;
1933;-0.028320;0.029297;1.026367;
2073;-0.030273;0.022461;1.018555;
2213;-0.026367;0.024414;1.023438;
2353;-0.027344;0.026367;1.011719;
2493;-0.030273;0.028320;1.017578;
2633;-0.028320;0.026367;1.013672;
2773;-0.028320;0.026367;1.020508;
2913;-0.028320;0.024414;1.025391;
3053;-0.028320;0.025391;1.034180;
3193;-0.023438;0.031250;1.045898;
3333;-0.025391;0.028320;1.050781;
3473;-0.023438;0.024414;1.058594;
3613;-0.024414;0.024414;1.067383;
3753;-0.027344;0.028320;1.076172;
3893;-0.022461;0.021484;1.085938;
4033;-0.023438;0.027344;1.091797;
4173;-0.022461;0.025391;1.100586;
4313;-0.024414;0.022461;1.093750;
4459;-0.023438;0.022461;1.085938;
4610;-0.024414;0.021484;1.087891;
4749;-0.020508;0.022461;1.076172;
4899;-0.025391;0.018555;1.058594;
5031;-0.022461;0.027344;1.065430;
5169;-0.027344;0.024414;1.039062;
5313;-0.024414;0.020508;1.021484;
5453;-0.025391;0.025391;1.008789;
5603;-0.027344;0.028320;0.990234;
5743;-0.028320;0.025391;0.990234;
5893;-0.026367;0.024414;0.963867;
6033;-0.030273;0.024414;0.952148;
6173;-0.028320;0.022461;0.958984;
6323;-0.030273;0.026367;0.940430;
6463;-0.027344;0.027344;0.956055;
6603;-0.029297;0.022461;0.975586;
6753;-0.027344;0.021484;0.980469;
6893;-0.026367;0.021484;0.994141;
7033;-0.025391;0.026367;1.021484;
7173;-0.025391;0.021484;1.051758;
7319;-0.022461;0.024414;1.077148;
7459;-0.023438;0.024414;1.094727;
7589;-0.021484;0.021484;1.111328;
7729;-0.021484;0.023438;1.135742;
7879;-0.021484;0.021484;1.130859;
8033;-0.018555;0.024414;1.140625;
8173;-0.020508;0.025391;1.134766;
8313;-0.020508;0.021484;1.133789;
8453;-0.022461;0.022461;1.116211;
8593;-0.018555;0.021484;1.098633;
8733;-0.021484;0.023438;1.093750;
8873;-0.024414;0.024414;1.070312;
9023;-0.023438;0.023438;1.074219;
9163;-0.021484;0.020508;1.067383;
9303;-0.020508;0.026367;1.076172;
9443;-0.021484;0.023438;1.077148;
9583;-0.018555;0.027344;1.092773;
9733;-0.018555;0.028320;1.085938;
9873;-0.018555;0.025391;1.089844;
10011;-0.020508;0.021484;1.088867;
10150;-0.024414;0.024414;1.081055;
10299;-0.024414;0.023438;1.072266;
10433;-0.023438;0.023438;1.085938;
10569;-0.025391;0.026367;1.077148;
10719;-0.027344;0.022461;1.056641;
10870;-0.019531;0.026367;1.045898;
11023;-0.023438;0.025391;1.025391;
11163;-0.023438;0.029297;1.020508;
11303;-0.015625;0.019531;1.003906;
11443;-0.012695;0.027344;1.004883;
11583;-0.009766;0.027344;1.000977;
11723;-0.009766;0.020508;0.997070;
11863;-0.005859;0.025391;1.011719;
12013;-0.007812;0.026367;1.012695;
12153;-0.005859;0.024414;1.026367;
12293;-0.003906;0.026367;1.028320;
12443;-0.005859;0.026367;1.038086;
12583;-0.005859;0.024414;1.025391;
12723;-0.007812;0.030273;1.040039;
12864;-0.003906;0.029297;1.051758;
13000;-0.003906;0.029297;1.031250;
13159;-0.006836;0.026367;1.040039;
13309;-0.006836;0.028320;1.042969;
13459;-0.005859;0.031250;1.024414;
13610;-0.006836;0.027344;1.024414;
13763;-0.007812;0.025391;1.011719;
13903;-0.004883;0.027344;1.000000;
14043;-0.008789;0.025391;0.993164;
14183;-0.007812;0.026367;1.000000;
14323;-0.004883;0.024414;0.996094;
14464;-0.004883;0.022461;0.985352;
14603;-0.000977;0.030273;1.007812;
14753;0.000977;0.026367;1.022461;
14893;0.002930;0.026367;1.034180;
15033;0.001953;0.027344;1.031250;
15173;0.005859;0.029297;1.056641;
15313;0.005859;0.029297;1.067383;
15453;0.003906;0.031250;1.082031;
15593;0.006836;0.030273;1.084961;
15730;0.004883;0.028320;1.097656;
15879;0.008789;0.023438;1.109375;
16030;0.007812;0.030273;1.110352;
16179;0.004883;0.028320;1.103516;
16329;0.004883;0.031250;1.103516;
16483;0.007812;0.031250;1.088867;
16623;0.008789;0.024414;1.080078;
16773;0.004883;0.031250;1.076172;
16913;0.005859;0.028320;1.068359;
17053;0.001953;0.027344;1.023438;
17193;0.001953;0.026367;1.011719;
17333;0.001953;0.029297;0.986328;
17473;-0.001953;0.028320;0.957031;
17613;0.002930;0.025391;0.921875;
17753;-0.000977;0.024414;0.895508;
17893;-0.001953;0.025391;0.877930;
18033;-0.002930;0.028320;0.859375;
18173;-0.000977;0.025391;0.843750;
18313;-0.007812;0.028320;0.820312;
18449;-0.004883;0.030273;0.809570;
18599;-0.004883;0.031250;0.797852;
18739;-0.003906;0.027344;0.810547;
18879;-0.007812;0.031250;0.832031;
19010;-0.005859;0.031250;0.852539;
19153;-0.005859;0.028320;0.858398;
19293;-0.005859;0.029297;0.888672;
19433;-0.001953;0.028320;0.897461;
19573;-0.002930;0.029297;0.924805;
19713;-0.001953;0.026367;0.948242;
19853;0.000977;0.027344;0.966797;
20003;0.003906;0.028320;0.976562;
20143;0.002930;0.030273;0.992188;
20283;0.000977;0.028320;0.993164;
20433;0.001953;0.024414;0.997070;
20573;0.001953;0.024414;0.997070;
20713;0.000977;0.027344;0.998047;
20853;0.001953;0.027344;0.983398;
20993;0.002930;0.020508;0.975586;
21129;-0.000977;0.026367;0.961914;
21259;0.001953;0.025391;0.963867;
21409;0.000000;0.026367;0.954102;
21559;-0.002930;0.026367;0.957031;
21699;-0.000977;0.029297;0.964844;
21839;-0.000977;0.030273;0.971680;
21973;0.000000;0.030273;0.993164;
22113;-0.002930;0.030273;1.004883;
22253;-0.005859;0.032227;1.013672;
22393;-0.001953;0.030273;1.028320;
22533;0.000977;0.029297;1.046875;
22673;0.002930;0.025391;1.060547;
22823;0.000977;0.028320;1.063477;
22963;0.000000;0.027344;1.081055;
23103;0.002930;0.028320;1.097656;
23253;0.002930;0.029297;1.093750;
23393;0.001953;0.027344;1.103516;
23533;0.002930;0.029297;1.094727;
23673;0.004883;0.030273;1.104492;
23813;0.003906;0.027344;1.088867;
23960;0.001953;0.026367;1.082031;
24109;0.002930;0.031250;1.077148;
24259;0.000000;0.027344;1.070312;
24389;0.001953;0.027344;1.050781;
24529;0.002930;0.027344;1.051758;
24680;0.000000;0.029297;1.041016;
24823;-0.002930;0.027344;1.039062;
24973;0.002930;0.031250;1.041992;
25113;-0.002930;0.025391;1.022461;
25253;0.000000;0.022461;1.027344;
25403;0.000000;0.028320;1.038086;
25543;-0.002930;0.026367;1.041016;
25683;0.000977;0.022461;1.043945;
25823;-0.000977;0.028320;1.045898;
25963;-0.000977;0.026367;1.039062;
26113;-0.000977;0.029297;1.024414;
26253;-0.002930;0.028320;1.027344;
26393;-0.002930;0.027344;1.033203;
26533;0.001953;0.031250;1.034180;
26673;-0.000977;0.029297;1.035156;
26810;0.000000;0.030273;1.035156;
26953;-0.003906;0.026367;1.033203;
27089;0.000977;0.028320;1.039062;
27239;-0.001953;0.024414;1.031250;
27379;0.001953;0.026367;1.045898;
27520;-0.001953;0.022461;1.026367;
27669;0.000977;0.029297;1.039062;
27819;0.001953;0.028320;1.039062;
27959;0.000000;0.030273;1.025391;
28103;0.000000;0.025391;1.045898;
28243;0.001953;0.030273;1.043945;
28383;-0.000977;0.029297;1.048828;
28523;-0.000977;0.024414;1.038086;
28663;-0.001953;0.027344;1.035156;
28803;0.000977;0.027344;1.043945;
28943;-0.000977;0.027344;1.031250;
29083;-0.002930;0.030273;1.026367;
29223;0.001953;0.024414;1.025391;
29363;-0.005859;0.021484;1.022461;
29503;-0.002930;0.026367;1.009766;
29643;-0.005859;0.026367;1.001953;
29783;-0.001953;0.027344;0.994141;
29933;-0.001953;0.022461;0.979492;
30073;-0.001953;0.023438;0.980469;
30199;-0.003906;0.026367;0.976562;
30333;-0.004883;0.034180;0.983398;
30479;-0.004883;0.029297;0.966797;
30620;-0.002930;0.025391;0.978516;
30769;-0.001953;0.029297;0.971680;
30919;-0.002930;0.029297;0.991211;
31073;-0.003906;0.032227;0.983398;
31213;-0.004883;0.033203;0.988281;
31363;-0.000977;0.028320;0.987305;
31503;-0.001953;0.031250;0.998047;
31643;-0.004883;0.028320;0.996094;
31783;-0.001953;0.026367;1.000000;
31923;-0.007812;0.031250;0.999023;
32063;-0.002930;0.025391;1.007812;
32203;0.000000;0.026367;1.000977;
32343;-0.005859;0.027344;0.999023;
32483;-0.003906;0.028320;0.995117;
32623;-0.003906;0.029297;1.006836;
32763;-0.004883;0.025391;1.005859;
32913;-0.001953;0.023438;1.011719;
33049;-0.000977;0.025391;1.033203;
33189;-0.001953;0.031250;1.029297;
33340;-0.000977;0.028320;1.050781;
33489;-0.000977;0.027344;1.068359;
33639;0.000000;0.027344;1.084961;
33783;-0.000977;0.026367;1.080078;
33923;0.001953;0.027344;1.100586;
34063;-0.000977;0.030273;1.096680;
34203;0.000000;0.027344;1.106445;
34343;0.002930;0.024414;1.113281;
34483;0.000000;0.025391;1.103516;
34623;0.004883;0.022461;1.108398;
34763;0.002930;0.026367;1.107422;
34903;-0.000977;0.023438;1.105469;
35043;0.002930;0.031250;1.108398;
35183;0.000000;0.026367;1.102539;
35323;0.003906;0.027344;1.097656;
35463;0.003906;0.027344;1.087891;
35603;0.000000;0.024414;1.094727;
35739;-0.000977;0.024414;1.085938;
35890;-0.000977;0.027344;1.074219;
36039;0.000977;0.024414;1.073242;
36190;0.000000;0.024414;1.065430;
36339;-0.001953;0.027344;1.069336;
36493;-0.002930;0.021484;1.064453;
36643;-0.000977;0.026367;1.056641;
36783;-0.002930;0.024414;1.065430;
36923;0.000000;0.026367;1.070312;
37063;0.000000;0.025391;1.061523;
37203;0.000977;0.020508;1.063477;
37343;-0.000977;0.020508;1.064453;
37483;0.000000;0.023438;1.088867;
37623;0.002930;0.023438;1.089844;
37773;0.000000;0.027344;1.079102;
37913;0.000000;0.020508;1.085938;
38053;0.000000;0.026367;1.076172;
38193;-0.006836;0.026367;1.102539;
38333;-0.004883;0.031250;1.092773;
38469;-0.008789;0.025391;1.082031;
38609;-0.010742;0.031250;1.076172;
38759;-0.010742;0.027344;1.078125;
38910;-0.011719;0.022461;1.083984;
39049;-0.014648;0.023438;1.083008;
39199;-0.015625;0.026367;1.074219;
39343;-0.017578;0.021484;1.067383;
39483;-0.019531;0.019531;1.051758;
39623;-0.017578;0.023438;1.058594;
39763;-0.017578;0.023438;1.041992;
39903;-0.018555;0.021484;1.035156;
40043;-0.022461;0.020508;1.023438;
40183;-0.019531;0.026367;1.018555;
40323;-0.018555;0.022461;1.016602;
40473;-0.019531;0.024414;1.000977;
40623;-0.020508;0.026367;0.995117;
40763;-0.022461;0.021484;0.989258;
40903;-0.024414;0.026367;0.971680;
41053;-0.023438;0.029297;0.970703;
41193;-0.019531;0.030273;0.971680;
41340;-0.022461;0.029297;0.967773;
41479;-0.023438;0.032227;0.963867;
41623;-0.022461;0.030273;0.961914;
41769;-0.023438;0.028320;0.960938;
41919;-0.021484;0.031250;0.965820;
42069;-0.021484;0.022461;0.962891;
42213;-0.018555;0.024414;0.970703;
42353;-0.022461;0.027344;0.971680;
42493;-0.020508;0.023438;0.970703;
42633;-0.021484;0.026367;0.989258;
42773;-0.020508;0.025391;1.000000;
42913;-0.017578;0.026367;1.011719;
43053;-0.015625;0.025391;1.018555;
43193;-0.012695;0.023438;1.015625;
43333;-0.010742;0.024414;1.016602;
43483;-0.009766;0.023438;1.028320;
43623;-0.009766;0.021484;1.018555;
43763;-0.013672;0.023438;1.035156;
43903;-0.012695;0.023438;1.034180;
44043;-0.014648;0.029297;1.031250;
44179;-0.012695;0.025391;1.035156;
44321;-0.015625;0.025391;1.034180;
44469;-0.013672;0.026367;1.025391;
44619;-0.013672;0.021484;1.026367;
44769;-0.012695;0.023438;1.030273;
44923;-0.014648;0.026367;1.036133;
45073;-0.009766;0.025391;1.031250;
45213;-0.014648;0.022461;1.027344;
45363;-0.014648;0.026367;1.033203;
45503;-0.014648;0.025391;1.028320;
45643;-0.014648;0.026367;1.032227;
45783;-0.015625;0.027344;1.027344;
45923;-0.012695;0.024414;1.031250;
46063;-0.010742;0.024414;1.033203;
46203;-0.016602;0.026367;1.035156;
46343;-0.012695;0.026367;1.031250;
46483;-0.013672;0.023438;1.035156;
46623;-0.012695;0.025391;1.039062;
46763;-0.013672;0.025391;1.037109;
46899;-0.011719;0.024414;1.036133;
47039;-0.014648;0.024414;1.023438;
47191;-0.013672;0.026367;1.030273;
47339;-0.015625;0.027344;1.028320;
47479;-0.013672;0.026367;1.029297;
47630;-0.015625;0.027344;1.024414;
47773;-0.017578;0.026367;1.024414;
47913;-0.012695;0.029297;1.032227;
48053;-0.010742;0.027344;1.026367;
48193;-0.014648;0.024414;1.022461;
48333;-0.014648;0.026367;1.019531;
48473;-0.016602;0.027344;1.011719;
48613;-0.015625;0.026367;1.014648;
48753;-0.014648;0.024414;1.005859;
48893;-0.015625;0.023438;1.010742;
49043;-0.013672;0.025391;1.019531;
49183;-0.014648;0.023438;1.001953;
49323;-0.012695;0.023438;1.013672;
49463;-0.013672;0.025391;1.012695;
49603;-0.009766;0.027344;1.023438;
49739;-0.015625;0.020508;1.010742;
49889;-0.015625;0.025391;1.023438;
50039;-0.015625;0.019531;1.023438;
50179;-0.014648;0.024414;1.025391;
50319;-0.015625;0.021484;1.040039;
50460;-0.012695;0.024414;1.051758;
50594;-0.009766;0.017578;1.043945;
50729;-0.012695;0.025391;1.057617;
50883;-0.013672;0.020508;1.060547;
51023;-0.009766;0.024414;1.071289;
51163;-0.011719;0.020508;1.061523;
51303;-0.011719;0.023438;1.073242;
51443;-0.010742;0.022461;1.082031;
51583;-0.007812;0.021484;1.079102;
51723;-0.011719;0.020508;1.071289;
51873;-0.011719;0.022461;1.082031;
52013;-0.011719;0.024414;1.077148;
52153;-0.013672;0.025391;1.071289;
52303;-0.010742;0.022461;1.078125;
52443;-0.008789;0.024414;1.077148;
52583;-0.010742;0.027344;1.074219;
52723;-0.011719;0.024414;1.073242;
52859;-0.009766;0.026367;1.070312;
52999;-0.009766;0.024414;1.061523;
53133;-0.010742;0.027344;1.062500;
53269;-0.011719;0.030273;1.060547;
53419;-0.012695;0.027344;1.057617;
53560;-0.011719;0.023438;1.055664;
53709;-0.010742;0.024414;1.053711;
53863;-0.014648;0.027344;1.046875;
54003;-0.009766;0.030273;1.058594;
54143;-0.012695;0.029297;1.037109;
54283;-0.012695;0.027344;1.040039;
54423;-0.013672;0.027344;1.029297;
54563;-0.011719;0.026367;1.040039;
54703;-0.006836;0.023438;1.032227;
54843;-0.009766;0.020508;1.032227;
54983;-0.006836;0.013672;1.033203;
55133;-0.002930;0.020508;1.042969;
55273;0.002930;0.019531;1.046875;
55413;0.000977;0.018555;1.040039;
55553;0.001953;0.022461;1.032227;
55693;0.000977;0.021484;1.034180;
55828;-0.001953;0.029297;1.045898;
55973;-0.000977;0.024414;1.040039;
56109;-0.002930;0.024414;1.043945;
56249;-0.003906;0.027344;1.039062;
56389;-0.007812;0.033203;1.052734;
56530;-0.007812;0.032227;1.045898;
56679;-0.004883;0.029297;1.056641;
56819;-0.005859;0.032227;1.047852;
56969;-0.007812;0.029297;1.027344;
57113;-0.006836;0.028320;1.036133;
57253;-0.007812;0.029297;1.036133;
57403;-0.004883;0.030273;1.034180;
57543;-0.002930;0.024414;1.029297;
57683;-0.000977;0.030273;1.029297;
57833;-0.003906;0.025391;1.004883;
57974;-0.000977;0.027344;1.014648;
58113;-0.001953;0.022461;1.000000;
58253;-0.001953;0.029297;1.005859;
58393;-0.003906;0.029297;1.002930;
58533;-0.000977;0.023438;1.014648;
58673;-0.004883;0.026367;1.004883;
58813;0.000000;0.025391;1.014648;
58953;-0.000977;0.024414;1.006836;
59089;-0.005859;0.031250;1.009766;
59219;-0.001953;0.029297;1.011719;
59359;-0.004883;0.028320;1.008789;
59510;-0.000977;0.031250;1.002930;
59659;-0.000977;0.025391;1.016602;
59803;-0.002930;0.024414;1.007812;
59943;-0.003906;0.023438;1.011719;
60083;-0.000977;0.029297;1.007812;
60223;-0.002930;0.030273;1.014648;
60373;-0.001953;0.029297;1.021484;
60513;-0.000977;0.027344;1.017578;
60653;-0.002930;0.027344;1.002930;
60793;-0.001953;0.022461;1.001953;
60934;-0.001953;0.024414;1.015625;
61073;-0.004883;0.028320;1.012695;
61213;0.000000;0.027344;1.015625;
61353;-0.002930;0.027344;1.020508;
61493;-0.002930;0.026367;1.020508;
61633;0.001953;0.029297;1.041016;
61780;-0.002930;0.025391;1.031250;
61929;-0.003906;0.025391;1.034180;
62069;-0.001953;0.025391;1.038086;
62219;0.001953;0.029297;1.045898;
62370;-0.005859;0.022461;1.026367;
62499;0.000977;0.027344;1.034180;
62643;-0.003906;0.022461;1.033203;
62783;-0.003906;0.024414;1.023438;
62933;-0.000977;0.025391;1.033203;
63073;0.000000;0.029297;1.024414;
63213;-0.005859;0.029297;1.029297;
63353;0.000977;0.028320;1.024414;
63493;-0.002930;0.024414;1.026367;
63633;-0.002930;0.024414;1.038086;
63773;0.000000;0.026367;1.041016;
63923;-0.001953;0.025391;1.049805;
64063;-0.005859;0.030273;1.046875;
64203;-0.000977;0.028320;1.041016;
64343;-0.002930;0.031250;1.039062;
64483;0.000000;0.031250;1.040039;
64619;0.001953;0.026367;1.038086;
64759;-0.001953;0.027344;1.024414;
64909;0.000977;0.025391;1.042969;
65061;-0.000977;0.027344;1.020508;
65189;-0.001953;0.027344;1.017578;
65319;0.000977;0.022461;0.989258;
65470;-0.001953;0.027344;0.974609;
65613;-0.002930;0.026367;0.968750;
65753;-0.004883;0.028320;0.938477;
65893;-0.001953;0.024414;0.924805;
66033;-0.004883;0.031250;0.904297;
66173;-0.005859;0.027344;0.910156;
66313;-0.003906;0.028320;0.891602;
66453;-0.002930;0.025391;0.878906;
66594;-0.000977;0.027344;0.864258;
66734;-0.001953;0.033203;0.875977;
66873;0.002930;0.035156;0.895508;
67013;0.003906;0.027344;0.916016;
67153;0.003906;0.029297;0.951172;
67293;0.009766;0.033203;0.980469;
67433;0.004883;0.033203;1.017578;
67569;0.011719;0.029297;1.027344;
67709;0.011719;0.025391;1.053711;
67859;0.009766;0.026367;1.072266;
67993;0.014648;0.023438;1.079102;
68132;0.013672;0.024414;1.093750;
68280;0.015625;0.026367;1.125977;
68409;0.017578;0.027344;1.134766;
68549;0.017578;0.028320;1.146484;
68703;0.013672;0.025391;1.147461;
68843;0.013672;0.026367;1.155273;
68983;0.015625;0.025391;1.150391;
69123;0.015625;0.032227;1.160156;
69263;0.012695;0.025391;1.145508;
69403;0.015625;0.026367;1.150391;
69543;0.013672;0.027344;1.141602;
69683;0.012695;0.026367;1.137695;
69833;0.006836;0.027344;1.116211;
69973;0.005859;0.034180;1.107422;
70113;0.000977;0.028320;1.096680;
70253;0.005859;0.025391;1.091797;
70393;-0.002930;0.026367;1.065430;
70533;-0.003906;0.025391;1.061523;
70669;-0.002930;0.024414;1.027344;
70799;-0.001953;0.033203;1.018555;
70949;0.000000;0.026367;1.001953;
71089;0.001953;0.021484;0.989258;
71231;0.006836;0.028320;0.996094;
71369;0.006836;0.032227;1.001953;
71519;0.011719;0.031250;0.999023;
71673;0.013672;0.031250;0.996094;
71813;0.011719;0.033203;1.005859;
71953;0.014648;0.035156;1.015625;
72103;0.008789;0.028320;1.001953;
72243;0.011719;0.035156;1.016602;
72383;0.010742;0.033203;1.009766;
72523;0.010742;0.032227;1.027344;
72663;0.012695;0.025391;1.014648;
72803;0.015625;0.023438;1.041016;
72943;0.013672;0.020508;1.030273;
73083;0.017578;0.031250;1.035156;
73223;0.015625;0.028320;1.042969;
73363;0.018555;0.030273;1.038086;
73503;0.020508;0.024414;1.038086;
73638;0.024414;0.023438;1.041992;
73768;0.022461;0.025391;1.047852;
73909;0.023438;0.025391;1.050781;
74059;0.022461;0.027344;1.057617;
74209;0.024414;0.031250;1.062500;
74349;0.024414;0.024414;1.065430;
74493;0.025391;0.030273;1.068359;
74633;0.030273;0.034180;1.073242;
74773;0.031250;0.029297;1.065430;
74913;0.031250;0.027344;1.069336;
75053;0.034180;0.027344;1.061523;
75193;0.033203;0.025391;1.068359;
75333;0.034180;0.026367;1.044922;
75483;0.040039;0.022461;1.036133;
75623;0.040039;0.026367;1.027344;
75763;0.040039;0.023438;1.034180;
75903;0.044922;0.024414;1.031250;
76043;0.046875;0.022461;1.022461;
76183;0.049805;0.026367;1.025391;
76323;0.048828;0.026367;1.039062;
76459;0.055664;0.023438;1.034180;
76600;0.054688;0.022461;1.047852;
76739;0.054688;0.022461;1.054688;
76889;0.059570;0.020508;1.062500;
77039;0.061523;0.021484;1.055664;
77179;0.060547;0.021484;1.057617;
77323;0.065430;0.020508;1.055664;
77473;0.066406;0.028320;1.072266;
77609;0.070312;0.024414;1.066406;
77749;0.072266;0.024414;1.055664;
77900;0.073242;0.021484;1.057617;
78053;0.078125;0.025391;1.058594;
78193;0.075195;0.022461;1.044922;
78343;0.077148;0.023438;1.054688;
78483;0.080078;0.023438;1.035156;
78623;0.079102;0.028320;1.036133;
78763;0.085938;0.028320;1.042969;
78903;0.083984;0.024414;1.009766;
79043;0.082031;0.025391;1.003906;
79193;0.086914;0.024414;1.004883;
79333;0.089844;0.029297;0.981445;
79473;0.085938;0.033203;0.966797;
79613;0.085938;0.027344;0.956055;
79753;0.089844;0.021484;0.954102;
79893;0.086914;0.032227;0.947266;
80029;0.090820;0.025391;0.952148;
80169;0.087891;0.027344;0.926758;
80313;0.091797;0.023438;0.925781;
80450;0.090820;0.022461;0.929688;
80599;0.086914;0.021484;0.928711;
80739;0.087891;0.020508;0.938477;
80889;0.089844;0.027344;0.973633;
81039;0.091797;0.023438;0.980469;
81189;0.093750;0.016602;0.970703;
81333;0.092773;0.015625;0.985352;
81473;0.093750;0.020508;0.961914;
81613;0.091797;0.023438;0.961914;
81763;0.091797;0.022461;0.971680;
81903;0.086914;0.021484;0.972656;
82043;0.090820;0.019531;0.981445;
82183;0.089844;0.020508;0.968750;
82323;0.086914;0.021484;0.963867;
82463;0.090820;0.019531;0.943359;
82603;0.089844;0.021484;0.929688;
82743;0.086914;0.019531;0.911133;
82883;0.086914;0.025391;0.915039;
83023;0.087891;0.023438;0.937500;
83163;0.085938;0.028320;0.948242;
83299;0.089844;0.026367;0.952148;
83449;0.091797;0.020508;0.946289;
83600;0.088867;0.027344;0.973633;
83749;0.084961;0.017578;0.956055;
83889;0.088867;0.018555;0.965820;
84019;0.085938;0.019531;1.000977;
84159;0.087891;0.015625;1.022461;
84313;0.089844;0.025391;1.039062;
84453;0.091797;0.022461;1.030273;
84594;0.092773;0.026367;1.051758;
84743;0.089844;0.022461;1.030273;
84883;0.087891;0.018555;1.018555;
85023;0.089844;0.026367;1.054688;
85163;0.083984;0.020508;1.036133;
85303;0.088867;0.018555;1.040039;
85443;0.089844;0.019531;1.039062;
85583;0.088867;0.020508;1.022461;
85723;0.088867;0.026367;1.020508;
85863;0.088867;0.022461;1.010742;
86003;0.088867;0.020508;1.000000;
86143;0.086914;0.020508;1.022461;
86289;0.086914;0.019531;1.044922;
86440;0.085938;0.020508;1.028320;
86569;0.089844;0.022461;1.006836;
86713;0.088867;0.030273;1.026367;
86849;0.083984;0.020508;1.018555;
86989;0.089844;0.021484;1.025391;
87141;0.085938;0.018555;1.041016;
87289;0.086914;0.022461;1.058594;
87433;0.087891;0.020508;1.051758;
87573;0.088867;0.021484;1.055664;
87713;0.089844;0.027344;1.042969;
87853;0.088867;0.021484;1.044922;
87993;0.088867;0.023438;1.044922;
88133;0.089844;0.020508;1.012695;
88273;0.088867;0.022461;1.033203;
88413;0.086914;0.024414;1.029297;
88553;0.087891;0.021484;1.028320;
88693;0.087891;0.026367;1.015625;
88833;0.085938;0.025391;0.988281;
88973;0.083008;0.015625;0.961914;
89113;0.083008;0.016602;0.981445;
89253;0.082031;0.015625;0.968750;
89399;0.084961;0.020508;0.972656;
89549;0.084961;0.018555;0.985352;
89689;0.082031;0.021484;0.987305;
89830;0.082031;0.027344;0.970703;
89970;0.083008;0.018555;0.982422;
90119;0.083008;0.029297;0.999023;
90273;0.080078;0.022461;0.997070;
90413;0.081055;0.023438;1.012695;
90553;0.083008;0.025391;1.034180;
90693;0.085938;0.020508;1.035156;
90833;0.083008;0.025391;1.047852;
90973;0.083984;0.020508;1.034180;
91113;0.084961;0.028320;1.039062;
91253;0.083984;0.015625;1.031250;
91393;0.082031;0.016602;1.035156;
91543;0.083008;0.014648;1.044922;
91683;0.078125;0.014648;1.042969;
91823;0.081055;0.017578;1.027344;
91973;0.085938;0.018555;1.024414;
92113;0.082031;0.021484;1.000977;
92249;0.077148;0.013672;0.977539;
92389;0.078125;0.012695;0.981445;
92529;0.083008;0.016602;0.998047;
92669;0.080078;0.021484;1.008789;
92819;0.083008;0.022461;1.064453;
92953;0.082031;0.025391;1.114258;
93090;0.081055;0.022461;1.164062;
93229;0.083984;0.018555;1.270508;
93383;0.088867;0.020508;1.386719;
93523;0.092773;0.021484;1.478516;
93663;0.105469;0.015625;1.594727;
93803;0.111328;0.019531;1.668945;
93943;0.118164;0.018555;1.755859;
94083;0.124023;0.017578;1.809570;
94223;0.124023;0.017578;1.871094;
94373;0.127930;0.015625;1.916992;
94513;0.131836;0.005859;1.928711;
94653;0.134766;0.008789;1.960938;
94793;0.133789;0.007812;1.963867;
94933;0.132812;0.007812;1.970703;
95073;0.136719;0.006836;1.990234;
95213;0.135742;0.012695;1.990234;
95349;0.134766;0.007812;1.986328;
95499;0.134766;0.016602;1.968750;
95639;0.133789;0.008789;1.934570;
95770;0.137695;0.020508;1.923828;
95909;0.128906;0.004883;1.897461;
96049;0.125977;0.007812;1.870117;
96189;0.130859;0.015625;1.865234;
96333;0.125000;0.013672;1.850586;
96483;0.125000;0.018555;1.855469;
96633;0.126953;0.019531;1.876953;
96773;0.131836;0.017578;1.893555;
96913;0.129883;0.016602;1.895508;
97064;0.130859;0.016602;1.922852;
97203;0.131836;0.017578;1.918945;
97343;0.132812;0.018555;1.935547;
97483;0.130859;0.014648;1.929688;
97623;0.133789;0.018555;1.922852;
97763;0.128906;0.019531;1.911133;
97903;0.126953;0.015625;1.910156;
98043;0.125000;0.015625;1.891602;
98183;0.125000;0.017578;1.863281;
98328;0.125977;0.011719;1.846680;
98464;0.126953;0.009766;1.822266;
98609;0.125000;0.016602;1.799805;
98749;0.120117;0.011719;1.777344;
98889;0.121094;0.009766;1.763672;
99029;0.120117;0.009766;1.772461;
99173;0.124023;0.014648;1.803711;
99313;0.122070;0.013672;1.794922;
99453;0.124023;0.018555;1.812500;
99594;0.125977;0.010742;1.818359;
99733;0.127930;0.012695;1.833984;
99883;0.127930;0.006836;1.821289;
100023;0.130859;0.007812;1.835938;
100163;0.132812;0.012695;1.842773;
100303;0.132812;0.010742;1.848633;
100443;0.131836;0.016602;1.849609;
100584;0.130859;0.022461;1.859375;
100723;0.132812;0.021484;1.860352;
100863;0.131836;0.017578;1.852539;
101003;0.131836;0.019531;1.845703;
101139;0.134766;0.019531;1.841797;
101290;0.127930;0.019531;1.830078;
101439;0.131836;0.020508;1.840820;
101580;0.129883;0.018555;1.849609;
101729;0.134766;0.015625;1.832031;
101869;0.134766;0.006836;1.835938;
101999;0.134766;0.010742;1.828125;
102153;0.131836;0.000977;1.820312;
102293;0.133789;0.002930;1.819336;
102443;0.135742;0.004883;1.816406;
102583;0.133789;0.010742;1.823242;
102723;0.137695;0.013672;1.830078;
102873;0.138672;0.016602;1.834961;
103013;0.140625;0.020508;1.851562;
103153;0.143555;0.015625;1.853516;
103303;0.142578;0.006836;1.840820;
103443;0.140625;0.007812;1.836914;
103593;0.144531;0.007812;1.835938;
103733;0.146484;0.016602;1.821289;
103873;0.146484;0.013672;1.830078;
104013;0.145508;0.013672;1.831055;
104150;0.145508;0.010742;1.831055;
104302;0.149414;0.012695;1.837891;
104429;0.148438;0.013672;1.829102;
104570;0.150391;0.017578;1.836914;
104709;0.150391;0.018555;1.836914;
104859;0.152344;0.018555;1.832031;
104999;0.153320;0.018555;1.832031;
105143;0.153320;0.012695;1.805664;
105293;0.155273;0.007812;1.802734;
105433;0.157227;0.011719;1.801758;
105573;0.158203;0.015625;1.799805;
105713;0.157227;0.016602;1.812500;
105853;0.161133;0.014648;1.810547;
106003;0.162109;0.015625;1.825195;
106143;0.165039;0.013672;1.839844;
106283;0.162109;0.012695;1.841797;
106423;0.166992;0.019531;1.852539;
106563;0.169922;0.017578;1.877930;
106703;0.170898;0.009766;1.878906;
106843;0.175781;0.013672;1.885742;
106983;0.175781;0.012695;1.884766;
107120;0.177734;0.013672;1.887695;
107259;0.177734;0.019531;1.893555;
107393;0.178711;0.022461;1.884766;
107533;0.176758;0.023438;1.861328;
107670;0.178711;0.023438;1.847656;
107809;0.177734;0.023438;1.817383;
107959;0.177734;0.015625;1.833984;
108089;0.180664;0.014648;1.818359;
108239;0.181641;0.003906;1.820312;
108389;0.178711;0.005859;1.786133;
108533;0.182617;-0.001953;1.789062;
108683;0.184570;0.004883;1.817383;
108824;0.185547;0.005859;1.811523;
108963;0.184570;0.003906;1.813477;
109103;0.190430;0.010742;1.810547;
109243;0.186523;0.004883;1.829102;
109383;0.189453;0.002930;1.817383;
109523;0.192383;0.006836;1.834961;
109673;0.196289;0.011719;1.832031;
109813;0.195312;0.010742;1.853516;
109953;0.199219;0.013672;1.833008;
110093;0.198242;0.026367;1.850586;
110233;0.198242;0.016602;1.818359;
110383;0.202148;0.022461;1.833008;
110509;0.203125;0.026367;1.836914;
110659;0.202148;0.031250;1.819336;
110789;0.206055;0.038086;1.813477;
110939;0.203125;0.038086;1.795898;
111094;0.200195;0.024414;1.801758;
111229;0.204102;0.020508;1.754883;
111360;0.204102;0.015625;1.759766;
111501;0.207031;0.006836;1.724609;
111653;0.205078;0.004883;1.712891;
111793;0.207031;0.004883;1.697266;
111933;0.204102;-0.002930;1.674805;
112073;0.210938;0.002930;1.678711;
112213;0.197266;0.006836;1.681641;
112363;0.198242;0.005859;1.667969;
112503;0.195312;0.000000;1.635742;
112643;0.186523;0.000000;1.628906;
112783;0.177734;0.003906;1.614258;
112923;0.174805;0.002930;1.615234;
113063;0.168945;0.000977;1.596680;
113213;0.161133;0.015625;1.609375;
113353;0.157227;0.013672;1.620117;
113493;0.148438;0.010742;1.575195;
113639;0.140625;0.014648;1.518555;
113779;0.125000;0.014648;1.427734;
113929;0.107422;0.010742;1.323242;
114069;0.091797;0.018555;1.221680;
114209;0.074219;0.016602;1.099609;
114359;0.061523;0.013672;0.993164;
114499;0.041016;0.023438;0.830078;
114653;0.029297;0.027344;0.694336;
114803;0.019531;0.024414;0.576172;
114943;0.016602;0.027344;0.509766;
115083;0.009766;0.023438;0.386719;
115233;0.009766;0.022461;0.342773;
115373;0.000000;0.021484;0.255859;
115513;0.002930;0.022461;0.203125;
115663;0.000977;0.017578;0.170898;
115803;0.001953;0.016602;0.144531;
115943;0.000977;0.026367;0.111328;
116083;-0.000977;0.026367;0.065430;
116223;-0.001953;0.027344;0.053711;
116363;-0.000977;0.030273;0.045898;
116513;-0.001953;0.030273;0.033203;
116649;0.002930;0.033203;0.036133;
116789;-0.002930;0.032227;0.019531;
116943;-0.005859;0.027344;0.024414;
117081;-0.002930;0.026367;0.027344;
117220;-0.003906;0.023438;0.032227;
117359;-0.006836;0.023438;0.040039;
117499;-0.001953;0.019531;0.048828;
117629;-0.001953;0.021484;0.045898;
117759;-0.003906;0.019531;0.051758;
117913;-0.006836;0.020508;0.054688;
118063;-0.004883;0.023438;0.050781;
118203;-0.012695;0.023438;0.045898;
118343;-0.006836;0.025391;0.052734;
118479;-0.007812;0.026367;0.049805;
118623;-0.006836;0.028320;0.037109;
118763;-0.006836;0.032227;0.035156;
118903;-0.008789;0.034180;0.030273;
119039;-0.010742;0.035156;0.035156;
119183;-0.010742;0.035156;0.034180;
119323;-0.014648;0.037109;0.026367;
119463;-0.009766;0.035156;0.035156;
119603;-0.014648;0.031250;0.028320;
119739;-0.010742;0.030273;0.032227;
119889;-0.010742;0.034180;0.033203;
120029;-0.008789;0.034180;0.020508;
120163;-0.015625;0.028320;0.024414;
120299;-0.011719;0.033203;0.019531;
120439;-0.013672;0.034180;0.017578;
120589;-0.011719;0.031250;0.025391;
120739;-0.009766;0.038086;0.019531;
120889;-0.013672;0.039062;0.020508;
121039;-0.016602;0.041992;0.019531;
121189;-0.016602;0.041016;0.018555;
121333;-0.010742;0.041992;0.021484;
121473;-0.013672;0.041992;0.021484;
121613;-0.012695;0.036133;0.030273;
121763;-0.016602;0.038086;0.028320;
121913;-0.014648;0.041016;0.018555;
122053;-0.017578;0.041016;0.030273;
122193;-0.017578;0.040039;0.031250;
122343;-0.014648;0.041992;0.030273;
122483;-0.016602;0.039062;0.033203;
122623;-0.016602;0.038086;0.030273;
122763;-0.012695;0.039062;0.027344;
122903;-0.013672;0.038086;0.035156;
123043;-0.016602;0.033203;0.032227;
123179;-0.011719;0.028320;0.034180;
123329;-0.016602;0.029297;0.012695;
123470;-0.014648;0.031250;0.034180;
123619;-0.015625;0.034180;0.025391;
123759;-0.017578;0.034180;0.031250;
123919;-0.016602;0.033203;0.027344;
124073;-0.018555;0.035156;0.025391;
124223;-0.016602;0.030273;0.028320;
124363;-0.014648;0.025391;0.024414;
124503;-0.017578;0.029297;0.015625;
124643;-0.017578;0.028320;0.017578;
124783;-0.017578;0.026367;0.017578;
124933;-0.017578;0.026367;0.013672;
125073;-0.019531;0.025391;0.012695;
125213;-0.017578;0.025391;0.017578;
125363;-0.014648;0.022461;0.011719;
125503;-0.017578;0.027344;0.008789;
125643;-0.016602;0.022461;0.009766;
125783;-0.017578;0.023438;0.010742;
125923;-0.020508;0.023438;0.008789;
126059;-0.016602;0.023438;0.002930;
126209;-0.019531;0.025391;0.001953;
126359;-0.017578;0.023438;0.002930;
126499;-0.020508;0.023438;0.007812;
126650;-0.016602;0.023438;0.005859;
126783;-0.021484;0.024414;0.008789;
126923;-0.016602;0.020508;0.007812;
127061;-0.018555;0.022461;0.004883;
127199;-0.019531;0.022461;0.005859;
127363;-0.018555;0.025391;0.007812;
127503;-0.019531;0.024414;0.014648;
127643;-0.018555;0.025391;0.011719;
127783;-0.021484;0.027344;0.013672;
127919;-0.020508;0.027344;0.012695;
128063;-0.021484;0.026367;0.010742;
128203;-0.022461;0.027344;0.018555;
128343;-0.020508;0.024414;0.012695;
128479;-0.020508;0.026367;0.015625;
128633;-0.023438;0.028320;0.016602;
128773;-0.021484;0.027344;0.010742;
128913;-0.021484;0.027344;0.014648;
129050;-0.022461;0.027344;0.014648;
129193;-0.022461;0.028320;0.009766;
129329;-0.022461;0.026367;0.003906;
129470;-0.023438;0.027344;0.016602;
129599;-0.025391;0.027344;0.016602;
129739;-0.024414;0.026367;0.010742;
129870;-0.024414;0.028320;0.007812;
130019;-0.025391;0.023438;0.019531;
130159;-0.021484;0.023438;0.009766;
130313;-0.023438;0.023438;0.015625;
130463;-0.024414;0.023438;0.007812;
130603;-0.020508;0.022461;0.012695;
130743;-0.024414;0.024414;0.009766;
130883;-0.013672;0.017578;0.080078;
131023;-0.026367;0.022461;-0.007812;
131163;-0.025391;0.021484;0.015625;
131303;-0.021484;0.021484;0.013672;
131453;-0.024414;0.022461;0.007812;
131593;-0.025391;0.024414;0.012695;
131733;-0.028320;0.025391;0.012695;
131873;-0.024414;0.022461;0.012695;
132013;-0.025391;0.025391;0.021484;
132163;-0.024414;0.023438;0.039062;
132303;-0.025391;0.024414;0.017578;
132439;-0.027344;0.026367;0.027344;
132569;-0.026367;0.025391;0.020508;
132719;-0.026367;0.027344;0.023438;
132849;-0.025391;0.027344;0.020508;
132993;-0.026367;0.027344;0.004883;
133139;-0.027344;0.025391;0.008789;
133289;-0.029297;0.024414;0.017578;
133439;-0.029297;0.023438;0.010742;
133573;-0.028320;0.026367;0.009766;
133713;-0.027344;0.022461;0.009766;
133853;-0.029297;0.021484;0.000000;
133993;-0.028320;0.020508;0.003906;
134123;-0.029297;0.026367;-0.000977;
134263;-0.030273;0.022461;-0.009766;
134403;-0.029297;0.025391;-0.007812;
134543;-0.029297;0.020508;-0.011719;
134680;-0.030273;0.024414;-0.002930;
134833;-0.028320;0.023438;-0.014648;
134973;-0.030273;0.024414;-0.012695;
135116;-0.032227;0.022461;-0.024414;
135259;-0.030273;0.023438;-0.016602;
135403;-0.031250;0.026367;-0.014648;
135549;-0.031250;0.025391;-0.007812;
135699;-0.033203;0.025391;-0.011719;
135849;-0.032227;0.023438;-0.009766;
135999;-0.032227;0.025391;-0.001953;
136149;-0.033203;0.028320;0.007812;
136300;-0.035156;0.027344;0.003906;
136429;-0.033203;0.029297;0.022461;
136583;-0.035156;0.026367;0.008789;
136723;-0.036133;0.023438;0.018555;
136863;-0.035156;0.023438;0.018555;
137003;-0.035156;0.024414;0.009766;
137143;-0.037109;0.027344;0.031250;
137283;-0.038086;0.020508;0.018555;
137423;-0.035156;0.025391;0.031250;
137563;-0.038086;0.028320;0.029297;
137703;-0.038086;0.026367;0.027344;
137843;-0.039062;0.029297;0.038086;
137983;-0.039062;0.031250;0.038086;
138123;-0.041016;0.033203;0.051758;
138263;-0.041016;0.031250;0.041016;
138403;-0.040039;0.036133;0.043945;
138538;-0.041992;0.040039;0.041992;
138689;-0.041992;0.041992;0.048828;
138839;-0.043945;0.042969;0.033203;
138980;-0.045898;0.039062;0.014648;
139119;-0.044922;0.037109;0.033203;
139263;-0.049805;0.037109;0.032227;
139409;-0.050781;0.033203;0.080078;
139553;-0.051758;0.036133;0.136719;
139693;-0.050781;0.031250;0.230469;
139833;-0.043945;0.029297;0.313477;
139973;-0.042969;0.027344;0.466797;
140113;-0.034180;0.029297;0.580078;
140253;-0.020508;0.034180;0.726562;
140393;-0.010742;0.037109;0.838867;
140533;0.003906;0.037109;1.006836;
140673;0.010742;0.038086;1.106445;
140813;0.017578;0.033203;1.236328;
140953;0.026367;0.033203;1.333984;
141093;0.033203;0.033203;1.388672;
141233;0.041016;0.033203;1.455078;
141373;0.045898;0.034180;1.502930;
141499;0.055664;0.038086;1.534180;
141639;0.056641;0.037109;1.572266;
141789;0.064453;0.034180;1.598633;
141939;0.067383;0.028320;1.626953;
142079;0.062500;0.026367;1.628906;
142229;0.062500;0.021484;1.636719;
142370;0.061523;0.028320;1.649414;
142513;0.053711;0.038086;1.664062;
142653;0.054688;0.027344;1.712891;
142793;0.055664;0.018555;1.713867;
142943;0.056641;0.029297;1.727539;
143083;0.057617;0.017578;1.752930;
143223;0.051758;0.024414;1.755859;
143363;0.058594;0.031250;1.791016;
143504;0.060547;0.036133;1.816406;
143643;0.052734;0.040039;1.789062;
143783;0.055664;0.019531;1.772461;
143923;0.046875;0.034180;1.801758;
144063;0.050781;0.029297;1.820312;
144213;0.053711;0.029297;1.836914;
144353;0.055664;0.036133;1.825195;
144493;0.047852;0.030273;1.836914;
144640;0.047852;0.029297;1.852539;
144779;0.048828;0.034180;1.857422;
144919;0.047852;0.034180;1.883789;
145059;0.044922;0.035156;1.887695;
145211;0.043945;0.026367;1.887695;
145339;0.044922;0.027344;1.900391;
145469;0.046875;0.023438;1.915039;
145613;0.056641;0.020508;1.923828;
145763;0.042969;0.012695;1.900391;
145903;0.046875;0.011719;1.921875;
146043;0.042969;0.009766;1.898438;
146193;0.043945;0.009766;1.923828;
146333;0.045898;-0.005859;1.912109;
146473;0.041016;0.000977;1.911133;
146613;0.037109;0.008789;1.919922;
146753;0.038086;0.003906;1.921875;
146893;0.035156;0.012695;1.914062;
147033;0.032227;0.019531;1.904297;
147173;0.029297;0.023438;1.901367;
147323;0.028320;0.028320;1.890625;
147463;0.022461;0.026367;1.867188;
147599;0.021484;0.031250;1.854492;
147739;0.018555;0.035156;1.844727;
147889;0.013672;0.035156;1.821289;
148029;0.012695;0.032227;1.819336;
148179;0.010742;0.036133;1.817383;
148329;0.011719;0.036133;1.812500;
148483;0.007812;0.032227;1.819336;
148623;0.009766;0.029297;1.823242;
148763;0.009766;0.021484;1.836914;
148913;0.009766;0.024414;1.849609;
149053;0.010742;0.026367;1.859375;
149193;0.009766;0.024414;1.872070;
149333;0.010742;0.021484;1.875977;
149473;0.005859;0.019531;1.876953;
149613;0.006836;0.014648;1.874023;
149753;0.009766;0.010742;1.876953;
149893;0.005859;0.012695;1.886719;
150033;0.004883;0.008789;1.890625;
150173;0.005859;0.013672;1.886719;
150313;0.004883;0.012695;1.893555;
150453;0.001953;0.015625;1.898438;
150593;0.000977;0.012695;1.899414;
150729;0.001953;0.011719;1.903320;
150869;0.003906;0.020508;1.925781;
151019;0.002930;0.018555;1.916992;
151169;0.000977;0.017578;1.925781;
151319;0.002930;0.016602;1.927734;
151459;0.000977;0.011719;1.933594;
151613;0.001953;0.013672;1.921875;
151763;-0.001953;0.010742;1.908203;
151903;-0.002930;0.013672;1.903320;
152043;-0.006836;0.013672;1.887695;
152193;-0.005859;0.017578;1.862305;
152333;-0.009766;0.015625;1.834961;
152483;-0.015625;0.015625;1.812500;
152623;-0.017578;0.019531;1.789062;
152763;-0.019531;0.015625;1.748047;
152913;-0.025391;0.018555;1.736328;
153053;-0.026367;0.018555;1.705078;
153193;-0.032227;0.015625;1.678711;
153333;-0.035156;0.019531;1.643555;
153473;-0.037109;0.023438;1.633789;
153619;-0.040039;0.023438;1.625977;
153759;-0.041992;0.024414;1.603516;
153899;-0.041016;0.026367;1.607422;
154039;-0.043945;0.022461;1.593750;
154179;-0.043945;0.024414;1.593750;
154319;-0.044922;0.020508;1.600586;
154463;-0.048828;0.017578;1.591797;
154603;-0.043945;0.016602;1.587891;
154753;-0.045898;0.018555;1.590820;
154893;-0.045898;0.024414;1.593750;
155033;-0.048828;0.019531;1.585938;
155173;-0.047852;0.025391;1.594727;
155313;-0.048828;0.024414;1.583008;
155463;-0.051758;0.025391;1.576172;
155603;-0.050781;0.026367;1.573242;
155743;-0.054688;0.028320;1.552734;
155893;-0.056641;0.021484;1.541016;
156033;-0.053711;0.022461;1.522461;
156173;-0.056641;0.028320;1.514648;
156313;-0.057617;0.026367;1.496094;
156449;-0.059570;0.023438;1.479492;
156599;-0.060547;0.019531;1.453125;
156749;-0.063477;0.017578;1.422852;
156880;-0.065430;0.016602;1.393555;
157020;-0.065430;0.019531;1.361328;
157169;-0.072266;0.016602;1.325195;
157319;-0.074219;0.020508;1.294922;
157473;-0.074219;0.025391;1.251953;
157613;-0.077148;0.021484;1.214844;
157763;-0.081055;0.021484;1.198242;
157903;-0.083008;0.022461;1.168945;
158043;-0.087891;0.022461;1.138672;
158183;-0.082031;0.029297;1.119141;
158323;-0.085938;0.024414;1.101562;
158473;-0.088867;0.023438;1.097656;
158613;-0.085938;0.022461;1.105469;
158753;-0.087891;0.022461;1.100586;
158893;-0.086914;0.027344;1.097656;
159033;-0.086914;0.020508;1.096680;
159173;-0.087891;0.028320;1.107422;
159313;-0.084961;0.029297;1.108398;
159449;-0.088867;0.026367;1.117188;
159599;-0.083984;0.029297;1.117188;
159749;-0.087891;0.028320;1.119141;
159879;-0.087891;0.026367;1.131836;
160019;-0.085938;0.022461;1.140625;
160163;-0.088867;0.024414;1.135742;
160313;-0.088867;0.027344;1.133789;
160453;-0.083008;0.023438;1.132812;
160593;-0.087891;0.024414;1.145508;
160743;-0.086914;0.023438;1.152344;
160883;-0.086914;0.022461;1.142578;
161033;-0.086914;0.028320;1.156250;
161173;-0.091797;0.030273;1.143555;
161314;-0.085938;0.027344;1.147461;
161463;-0.090820;0.027344;1.135742;
161603;-0.088867;0.028320;1.154297;
161743;-0.090820;0.018555;1.134766;
161883;-0.086914;0.022461;1.126953;
162023;-0.088867;0.016602;1.105469;
162169;-0.090820;0.023438;1.124023;
162309;-0.087891;0.030273;1.135742;
162459;-0.083008;0.032227;1.140625;
162609;-0.089844;0.029297;1.123047;
162749;-0.087891;0.025391;1.137695;
162889;-0.090820;0.022461;1.133789;
163039;-0.083984;0.015625;1.145508;
163189;-0.083008;0.010742;1.170898;
163339;-0.084961;0.026367;1.157227;
163493;-0.085938;0.029297;1.171875;
163629;-0.085938;0.023438;1.199219;
163760;-0.081055;0.023438;1.230469;
163903;-0.081055;0.027344;1.251953;
164053;-0.081055;0.030273;1.297852;
164193;-0.078125;0.028320;1.293945;
164329;-0.079102;0.031250;1.295898;
164469;-0.076172;0.029297;1.324219;
164609;-0.073242;0.028320;1.330078;
164753;-0.083984;0.021484;1.327148;
164893;-0.077148;0.023438;1.332031;
165033;-0.080078;0.023438;1.344727;
165169;-0.072266;0.020508;1.361328;
165309;-0.073242;0.020508;1.375977;
165453;-0.067383;0.013672;1.402344;
165589;-0.070312;0.023438;1.417969;
165729;-0.066406;0.020508;1.450195;
165869;-0.069336;0.015625;1.463867;
166009;-0.062500;0.024414;1.495117;
166159;-0.061523;0.021484;1.516602;
166309;-0.061523;0.016602;1.540039;
166449;-0.061523;0.012695;1.551758;
166599;-0.054688;0.018555;1.551758;
166743;-0.058594;0.018555;1.551758;
166869;-0.061523;0.023438;1.548828;
167019;-0.056641;0.028320;1.543945;
167160;-0.065430;0.029297;1.542969;
167313;-0.060547;0.025391;1.537109;
167453;-0.055664;0.033203;1.529297;
167593;-0.063477;0.026367;1.508789;
167743;-0.062500;0.026367;1.493164;
167883;-0.063477;0.023438;1.474609;
168023;-0.065430;0.026367;1.451172;
168173;-0.065430;0.013672;1.433594;
168313;-0.066406;0.021484;1.421875;
168455;-0.071289;0.017578;1.386719;
168599;-0.072266;0.018555;1.358398;
168740;-0.074219;0.018555;1.331055;
168889;-0.073242;0.021484;1.313477;
169029;-0.076172;0.014648;1.278320;
169179;-0.079102;0.021484;1.262695;
169323;-0.077148;0.024414;1.257812;
169449;-0.082031;0.024414;1.233398;
169593;-0.082031;0.027344;1.209961;
169743;-0.083008;0.025391;1.192383;
169883;-0.084961;0.022461;1.171875;
170021;-0.083984;0.024414;1.146484;
170153;-0.084961;0.024414;1.134766;
170293;-0.082031;0.021484;1.125000;
170433;-0.082031;0.022461;1.126953;
170573;-0.085938;0.025391;1.108398;
170713;-0.083984;0.025391;1.101562;
170853;-0.083008;0.027344;1.071289;
170993;-0.083008;0.023438;1.072266;
171133;-0.083984;0.024414;1.063477;
171280;-0.085938;0.022461;1.051758;
171420;-0.081055;0.023438;1.060547;
171559;-0.083008;0.015625;1.048828;
171699;-0.079102;0.018555;1.041016;
171840;-0.077148;0.017578;1.054688;
171989;-0.080078;0.019531;1.051758;
172129;-0.075195;0.020508;1.052734;
172279;-0.070312;0.025391;1.073242;
172429;-0.067383;0.014648;1.112305;
172569;-0.066406;0.012695;1.118164;
172721;-0.063477;0.015625;1.130859;
172869;-0.065430;0.021484;1.123047;
173009;-0.061523;0.027344;1.092773;
173163;-0.057617;0.032227;1.072266;
173313;-0.051758;0.028320;1.053711;
173453;-0.053711;0.022461;1.028320;
173589;-0.046875;0.024414;1.029297;
173739;-0.046875;0.028320;1.005859;
173883;-0.045898;0.027344;1.000000;
174023;-0.045898;0.027344;1.012695;
174163;-0.040039;0.023438;1.002930;
174310;-0.042969;0.027344;1.002930;
174449;-0.041992;0.029297;0.996094;
174579;-0.043945;0.028320;0.986328;
174723;-0.044922;0.030273;0.996094;
174863;-0.046875;0.027344;0.994141;
175003;-0.042969;0.018555;1.000977;
175139;-0.045898;0.022461;0.993164;
175279;-0.041992;0.027344;1.010742;
175419;-0.042969;0.025391;1.006836;
175569;-0.046875;0.029297;1.004883;
175709;-0.046875;0.022461;1.016602;
175860;-0.043945;0.026367;1.037109;
175999;-0.038086;0.016602;1.037109;
176139;-0.042969;0.020508;1.029297;
176289;-0.043945;0.019531;1.009766;
176429;-0.043945;0.024414;1.014648;
176579;-0.043945;0.021484;0.998047;
176719;-0.043945;0.028320;1.011719;
176859;-0.044922;0.023438;1.023438;
177009;-0.045898;0.027344;1.015625;
177140;-0.046875;0.023438;1.022461;
177273;-0.046875;0.026367;1.018555;
177415;-0.047852;0.025391;1.020508;
177549;-0.045898;0.018555;1.028320;
177693;-0.047852;0.027344;1.023438;
177833;-0.043945;0.024414;1.012695;
177973;-0.044922;0.022461;1.016602;
178113;-0.042969;0.022461;1.033203;
178249;-0.041016;0.023438;1.028320;
178383;-0.044922;0.021484;1.027344;
178523;-0.045898;0.027344;1.041992;
178659;-0.039062;0.020508;1.029297;
178799;-0.040039;0.022461;1.041016;
178933;-0.044922;0.026367;1.029297;
179073;-0.043945;0.022461;1.033203;
179213;-0.041016;0.019531;1.053711;
179359;-0.041992;0.023438;1.068359;
179499;-0.041016;0.023438;1.071289;
179639;-0.037109;0.021484;1.111328;
179789;-0.035156;0.025391;1.130859;
179939;-0.035156;0.021484;1.152344;
180089;-0.028320;0.021484;1.168945;
180229;-0.030273;0.024414;1.197266;
180379;-0.029297;0.019531;1.204102;
180509;-0.030273;0.023438;1.195312;
180659;-0.029297;0.018555;1.193359;
180793;-0.033203;0.018555;1.167969;
180933;-0.024414;0.023438;1.180664;
181073;-0.028320;0.023438;1.172852;
181213;-0.026367;0.027344;1.150391;
181349;-0.027344;0.020508;1.130859;
181503;-0.035156;0.020508;1.110352;
181643;-0.031250;0.017578;1.087891;
181783;-0.029297;0.017578;1.084961;
181920;-0.033203;0.019531;1.085938;
182063;-0.032227;0.019531;1.072266;
182199;-0.031250;0.016602;1.049805;
182343;-0.032227;0.023438;1.030273;
182478;-0.035156;0.025391;1.017578;
182609;-0.037109;0.023438;1.011719;
182750;-0.040039;0.031250;0.993164;
182900;-0.040039;0.024414;0.975586;
183049;-0.034180;0.028320;0.964844;
183199;-0.037109;0.026367;0.963867;
183350;-0.033203;0.026367;0.949219;
183499;-0.031250;0.027344;0.948242;
183649;-0.025391;0.022461;0.959961;
183779;-0.022461;0.023438;0.962891;
183923;-0.015625;0.017578;0.977539;
184070;-0.019531;0.024414;0.997070;
184209;-0.012695;0.022461;0.994141;
184353;-0.017578;0.021484;0.994141;
184493;-0.011719;0.025391;1.000977;
184633;-0.015625;0.029297;1.039062;
184769;-0.012695;0.025391;1.044922;
184913;-0.013672;0.020508;1.049805;
185053;-0.016602;0.023438;1.038086;
185193;-0.015625;0.024414;1.043945;
185333;-0.014648;0.023438;1.059570;
185469;-0.013672;0.024414;1.058594;
185609;-0.014648;0.026367;1.039062;
185759;-0.016602;0.021484;1.020508;
185909;-0.017578;0.025391;1.009766;
186039;-0.020508;0.022461;0.985352;
186179;-0.018555;0.020508;0.986328;
186319;-0.017578;0.022461;0.978516;
186458;-0.016602;0.026367;0.978516;
186600;-0.019531;0.025391;0.974609;
186753;-0.016602;0.025391;0.989258;
186889;-0.017578;0.024414;0.991211;
187029;-0.015625;0.023438;1.010742;
187169;-0.016602;0.024414;1.013672;
187313;-0.016602;0.026367;1.037109;
187453;-0.016602;0.024414;1.033203;
187593;-0.012695;0.024414;1.042969;
187729;-0.011719;0.021484;1.051758;
187860;-0.010742;0.024414;1.056641;
187993;-0.010742;0.024414;1.051758;
188133;-0.011719;0.018555;1.047852;
188273;-0.015625;0.019531;1.055664;
188423;-0.012695;0.021484;1.052734;
188550;-0.014648;0.024414;1.056641;
188693;-0.010742;0.022461;1.054688;
188833;-0.011719;0.026367;1.063477;
188971;-0.010742;0.026367;1.048828;
189119;-0.009766;0.025391;1.070312;
189249;-0.013672;0.025391;1.049805;
189379;-0.008789;0.023438;1.049805;
189529;-0.008789;0.024414;1.055664;
189663;-0.007812;0.022461;1.054688;
189799;-0.010742;0.028320;1.044922;
189929;-0.009766;0.023438;1.037109;
190079;-0.004883;0.021484;1.047852;
190219;-0.005859;0.023438;1.048828;
190369;0.001953;0.017578;1.074219;
190519;-0.003906;0.020508;1.075195;
190673;-0.000977;0.029297;1.125977;
190813;0.001953;0.028320;1.151367;
190963;0.004883;0.026367;1.190430;
191099;0.005859;0.024414;1.206055;
191239;0.007812;0.022461;1.210938;
191379;0.002930;0.018555;1.210938;
191523;0.002930;0.021484;1.217773;
191663;0.006836;0.016602;1.217773;
191803;0.004883;0.016602;1.205078;
191949;0.004883;0.019531;1.180664;
192089;0.002930;0.027344;1.178711;
192243;0.002930;0.018555;1.158203;
192379;0.002930;0.022461;1.141602;
192509;0.000000;0.025391;1.115234;
192649;-0.000977;0.025391;1.095703;
192789;0.000000;0.021484;1.083008;
192939;-0.003906;0.028320;1.061523;
193090;-0.005859;0.025391;1.048828;
193239;-0.004883;0.024414;1.035156;
193369;-0.000977;0.023438;1.033203;
193499;-0.002930;0.023438;1.026367;
193639;-0.005859;0.023438;1.021484;
193789;-0.004883;0.029297;1.024414;
193943;-0.006836;0.027344;1.023438;
194083;-0.003906;0.025391;1.027344;
194223;-0.002930;0.024414;1.034180;
194363;-0.006836;0.023438;1.022461;
194503;-0.004883;0.019531;1.019531;
194639;-0.005859;0.020508;1.036133;
194783;-0.003906;0.020508;1.037109;
194933;-0.001953;0.022461;1.034180;
195073;-0.003906;0.023438;1.034180;
195219;-0.004883;0.024414;1.036133;
195361;-0.001953;0.027344;1.054688;
195503;-0.002930;0.024414;1.042969;
195653;0.000000;0.026367;1.041992;
195789;-0.002930;0.026367;1.042969;
195942;0.000977;0.022461;1.040039;
196079;0.007812;0.030273;1.046875;
196220;0.006836;0.027344;1.055664;
196370;0.006836;0.030273;1.055664;
196521;0.005859;0.026367;1.062500;
196649;0.004883;0.025391;1.063477;
196799;0.007812;0.021484;1.062500;
196939;0.001953;0.022461;1.073242;
197089;0.004883;0.019531;1.073242;
197239;0.004883;0.023438;1.066406;
197393;0.007812;0.018555;1.061523;
197533;0.002930;0.019531;1.055664;
197673;0.002930;0.019531;1.064453;
197809;0.006836;0.019531;1.060547;
197939;0.009766;0.022461;1.052734;
198070;0.005859;0.019531;1.056641;
198213;0.006836;0.025391;1.054688;
198353;0.004883;0.024414;1.043945;
198493;0.003906;0.022461;1.047852;
198633;0.003906;0.027344;1.043945;
198769;0.005859;0.026367;1.043945;
198913;0.007812;0.028320;1.039062;
199053;0.003906;0.027344;1.045898;
199179;0.005859;0.028320;1.044922;
199309;0.004883;0.024414;1.045898;
199460;0.001953;0.028320;1.037109;
199599;0.004883;0.026367;1.040039;
199749;0.003906;0.024414;1.035156;
199899;0.001953;0.025391;1.036133;
200039;0.001953;0.021484;1.023438;
200189;0.002930;0.018555;1.032227;
200339;0.000000;0.022461;1.035156;
200479;0.000000;0.024414;1.039062;
200609;0.000977;0.029297;1.038086;
200739;0.002930;0.024414;1.026367;
200879;0.000000;0.022461;1.023438;
201030;0.000000;0.025391;1.010742;
201183;0.000000;0.025391;1.019531;
201323;0.001953;0.025391;1.017578;
201463;0.000977;0.028320;1.017578;
201603;0.000977;0.023438;1.014648;
201739;0.001953;0.026367;1.011719;
201879;0.000000;0.031250;1.021484;
202019;0.000000;0.030273;1.015625;
202173;0.001953;0.025391;1.015625;
202313;0.000000;0.026367;1.020508;
202453;0.003906;0.027344;1.026367;
202603;0.000000;0.026367;1.011719;
202738;0.000977;0.023438;1.014648;
202893;0.002930;0.026367;1.012695;
203031;-0.002930;0.027344;1.006836;
203160;0.000000;0.027344;1.017578;
203289;0.000000;0.022461;1.005859;
203429;-0.001953;0.027344;1.000000;
203570;0.000000;0.023438;1.002930;
203719;0.001953;0.024414;1.000977;
203859;0.000977;0.019531;1.006836;
203999;-0.004883;0.020508;0.998047;
204139;-0.000977;0.023438;0.996094;
204289;0.002930;0.028320;1.017578;
204439;0.000000;0.029297;1.027344;
204583;0.001953;0.028320;1.048828;
204724;0.000977;0.028320;1.051758;
204863;0.003906;0.032227;1.062500;
205003;0.001953;0.028320;1.039062;
205148;0.002930;0.029297;1.023438;
205293;-0.000977;0.030273;0.977539;
205433;-0.003906;0.025391;0.940430;
205573;-0.001953;0.027344;0.887695;
205713;-0.006836;0.022461;0.841797;
205839;-0.006836;0.024414;0.817383;
205983;-0.009766;0.025391;0.779297;
206123;-0.010742;0.022461;0.752930;
206263;-0.006836;0.025391;0.749023;
206399;-0.009766;0.026367;0.745117;
206539;-0.010742;0.027344;0.765625;
206680;-0.006836;0.024414;0.777344;
206829;-0.005859;0.031250;0.810547;
206969;-0.011719;0.028320;0.837891;
207119;-0.006836;0.024414;0.858398;
207269;-0.002930;0.025391;0.891602;
207419;-0.003906;0.026367;0.921875;
207569;-0.007812;0.028320;0.947266;
207709;-0.006836;0.027344;0.958008;
207849;-0.011719;0.027344;0.966797;
207999;-0.013672;0.029297;0.963867;
208139;-0.016602;0.024414;0.954102;
208289;-0.012695;0.026367;0.961914;
208433;-0.014648;0.023438;0.945312;
208583;-0.016602;0.023438;0.937500;
208723;-0.013672;0.021484;0.934570;
208859;-0.012695;0.024414;0.931641;
209009;-0.009766;0.025391;0.951172;
209149;-0.006836;0.020508;0.953125;
209293;-0.003906;0.021484;0.947266;
209433;-0.004883;0.021484;0.941406;
209573;-0.005859;0.029297;0.956055;
209719;-0.006836;0.022461;0.968750;
209849;-0.002930;0.019531;0.980469;
209993;0.000977;0.024414;0.985352;
210120;0.003906;0.027344;0.999023;
210259;0.006836;0.025391;1.015625;
210409;0.008789;0.023438;1.024414;
210559;0.006836;0.022461;1.031250;
210690;0.008789;0.023438;1.048828;
210829;0.008789;0.023438;1.053711;
210979;0.006836;0.028320;1.061523;
211119;0.004883;0.025391;1.072266;
211269;0.008789;0.024414;1.071289;
211409;0.006836;0.026367;1.077148;
211559;0.004883;0.027344;1.083008;
211713;0.007812;0.021484;1.071289;
211849;0.004883;0.022461;1.063477;
211993;0.006836;0.023438;1.063477;
212143;0.004883;0.022461;1.054688;
212283;0.008789;0.026367;1.049805;
212433;0.007812;0.020508;1.032227;
212569;0.003906;0.017578;1.035156;
212699;0.004883;0.018555;1.014648;
212843;0.001953;0.027344;1.031250;
212983;0.003906;0.029297;1.023438;
213123;0.002930;0.029297;1.008789;
213259;0.004883;0.026367;1.006836;
213390;0.003906;0.022461;1.006836;
213543;0.001953;0.028320;1.013672;
213679;0.003906;0.027344;1.015625;
213819;0.002930;0.030273;1.015625;
213971;0.004883;0.024414;1.021484;
214109;0.003906;0.025391;1.013672;
214269;0.003906;0.027344;1.017578;
214419;0.003906;0.028320;1.014648;
214569;0.004883;0.028320;1.014648;
214709;0.005859;0.021484;1.017578;
214859;0.004883;0.019531;1.014648;
214989;0.007812;0.026367;1.022461;
215130;0.002930;0.023438;1.011719;
215273;0.005859;0.023438;1.022461;
215409;0.004883;0.023438;1.023438;
215539;0.003906;0.023438;1.020508;
215679;0.006836;0.025391;1.027344;
215830;0.006836;0.025391;1.024414;
215973;0.005859;0.024414;1.023438;
216123;0.006836;0.024414;1.027344;
216259;0.003906;0.030273;1.026367;
216403;0.001953;0.024414;1.009766;
216553;0.003906;0.027344;1.034180;
216693;0.002930;0.025391;1.036133;
216843;0.006836;0.026367;1.034180;
216983;0.002930;0.029297;1.025391;
217119;0.005859;0.027344;1.026367;
217263;0.005859;0.029297;1.033203;
217403;0.004883;0.023438;1.029297;
217553;0.001953;0.021484;1.025391;
217693;0.005859;0.026367;1.029297;
217842;0.002930;0.021484;1.027344;
217989;0.001953;0.026367;1.027344;
218118;-0.000977;0.024414;1.028320;
218269;0.007812;0.030273;1.028320;
218409;0.003906;0.021484;1.035156;
218559;0.002930;0.027344;1.038086;
218709;0.005859;0.021484;1.032227;
218859;0.006836;0.025391;1.044922;
218989;0.005859;0.023438;1.044922;
219139;0.001953;0.027344;1.052734;
219268;0.005859;0.020508;1.046875;
219413;0.003906;0.025391;1.049805;
219553;0.002930;0.025391;1.050781;
219693;0.003906;0.028320;1.057617;
219833;0.002930;0.028320;1.064453;
219970;0.005859;0.027344;1.070312;
220113;0.003906;0.024414;1.070312;
220263;0.002930;0.029297;1.085938;
220403;0.003906;0.027344;1.075195;
220543;0.003906;0.029297;1.083984;
220689;0.000000;0.025391;1.078125;
220829;0.000977;0.027344;1.085938;
220959;0.002930;0.023438;1.079102;
221089;0.001953;0.023438;1.080078;
221221;0.000977;0.026367;1.069336;
221369;-0.001953;0.022461;1.061523;
221510;0.000000;0.026367;1.059570;
221659;0.002930;0.021484;1.048828;
221809;0.001953;0.022461;1.033203;
221950;0.000977;0.023438;1.033203;
222099;0.000000;0.024414;1.021484;
222243;-0.002930;0.029297;1.012695;
222369;0.000000;0.025391;1.006836;
222498;0.000000;0.023438;1.002930;
222640;-0.003906;0.025391;1.000977;
222783;-0.000977;0.021484;1.001953;
222923;-0.001953;0.027344;1.002930;
223063;-0.002930;0.024414;0.998047;
223203;-0.001953;0.025391;0.994141;
223343;-0.002930;0.028320;0.993164;
223483;0.000000;0.027344;0.988281;
223623;-0.001953;0.025391;0.997070;
223763;-0.004883;0.029297;1.000000;
223899;-0.001953;0.026367;0.991211;
224033;-0.004883;0.021484;0.981445;
224169;-0.003906;0.026367;0.986328;
224319;-0.004883;0.024414;0.984375;
224460;-0.003906;0.024414;0.993164;
224601;-0.002930;0.022461;0.982422;
224748;-0.004883;0.028320;0.994141;
224889;-0.000977;0.022461;1.000000;
225043;-0.003906;0.023438;1.002930;
225184;-0.001953;0.024414;1.002930;
225323;-0.000977;0.018555;0.990234;
225464;-0.005859;0.026367;0.997070;
225603;-0.003906;0.027344;1.002930;
225743;0.000000;0.026367;1.004883;
225883;-0.005859;0.033203;1.003906;
226023;-0.003906;0.023438;1.011719;
226163;-0.001953;0.029297;1.003906;
226313;-0.004883;0.025391;1.020508;
226453;-0.001953;0.026367;1.016602;
226593;-0.002930;0.028320;1.029297;
226743;-0.005859;0.022461;1.017578;
226883;-0.001953;0.025391;1.025391;
227020;-0.004883;0.025391;1.036133;
227169;0.000000;0.020508;1.042969;
227309;0.000977;0.021484;1.046875;
227459;-0.003906;0.029297;1.048828;
227609;-0.000977;0.028320;1.047852;
227750;-0.000977;0.026367;1.048828;
227889;-0.001953;0.024414;1.047852;
228029;-0.002930;0.022461;1.062500;
228183;0.002930;0.025391;1.083008;
228330;-0.001953;0.023438;1.109375;
228473;0.002930;0.022461;1.124023;
228623;0.006836;0.030273;1.142578;
228763;0.003906;0.023438;1.169922;
228899;0.004883;0.025391;1.173828;
229050;0.004883;0.024414;1.187500;
229193;0.010742;0.022461;1.197266;
229333;0.007812;0.020508;1.207031;
229483;0.005859;0.022461;1.201172;
229623;0.009766;0.024414;1.194336;
229763;0.007812;0.023438;1.191406;
229903;0.007812;0.027344;1.192383;
230043;0.005859;0.028320;1.177734;
230189;0.004883;0.021484;1.183594;
230330;0.005859;0.019531;1.178711;
230479;0.006836;0.023438;1.156250;
230630;0.003906;0.023438;1.136719;
230763;0.004883;0.023438;1.126953;
230899;0.000000;0.022461;1.096680;
231029;0.003906;0.025391;1.094727;
231169;-0.002930;0.021484;1.069336;
231323;-0.002930;0.019531;1.035156;
231463;0.001953;0.021484;1.033203;
231603;-0.004883;0.022461;1.014648;
231753;-0.001953;0.023438;1.029297;
231893;0.000977;0.025391;1.014648;
232033;-0.003906;0.026367;1.005859;
232173;-0.001953;0.037109;0.996094;
232313;0.000000;0.028320;0.987305;
232453;-0.003906;0.034180;0.998047;
232593;-0.002930;0.036133;0.988281;
232733;-0.003906;0.035156;0.971680;
232873;-0.002930;0.026367;0.981445;
233013;-0.008789;0.031250;0.972656;
233153;-0.003906;0.025391;0.982422;
233293;-0.004883;0.023438;0.987305;
233433;-0.004883;0.020508;0.971680;
233573;0.000000;0.021484;0.992188;
233719;-0.007812;0.017578;0.987305;
233869;-0.004883;0.025391;0.981445;
234010;0.000000;0.026367;0.997070;
234160;-0.003906;0.021484;0.998047;
234309;-0.004883;0.033203;1.003906;
234463;-0.003906;0.027344;1.009766;
234603;-0.000977;0.025391;1.014648;
234743;-0.004883;0.032227;1.020508;
234893;-0.004883;0.029297;1.023438;
235033;-0.004883;0.029297;1.008789;
235173;-0.005859;0.026367;1.010742;
235313;-0.000977;0.029297;1.007812;
235453;-0.002930;0.038086;1.006836;
235593;-0.001953;0.029297;1.023438;
235733;-0.002930;0.029297;1.017578;
235873;0.000977;0.025391;1.013672;
236013;0.000000;0.019531;1.006836;
236153;-0.004883;0.028320;1.001953;
236293;-0.000977;0.027344;1.003906;
236439;-0.005859;0.021484;0.986328;
236579;-0.002930;0.027344;0.989258;
236729;-0.003906;0.021484;0.991211;
236879;-0.000977;0.017578;0.990234;
237029;-0.005859;0.025391;0.996094;
237173;0.000000;0.031250;1.006836;
237323;-0.000977;0.025391;0.997070;
237463;-0.001953;0.026367;1.005859;
237604;-0.006836;0.024414;0.989258;
237753;-0.000977;0.019531;1.016602;
237893;-0.005859;0.022461;1.025391;
238033;-0.001953;0.028320;1.033203;
238173;-0.003906;0.030273;1.036133;
238313;-0.003906;0.020508;1.030273;
238453;-0.001953;0.030273;1.027344;
238593;-0.001953;0.030273;1.029297;
238733;-0.004883;0.026367;1.038086;
238873;-0.002930;0.023438;1.032227;
239023;0.001953;0.028320;1.029297;
239163;0.001953;0.022461;1.025391;
239299;-0.006836;0.019531;1.026367;
239439;0.001953;0.021484;1.026367;
239589;-0.001953;0.028320;1.027344;
239739;-0.002930;0.025391;1.030273;
239870;-0.000977;0.024414;1.030273;
239999;-0.004883;0.028320;1.024414;
240143;0.000000;0.027344;1.046875;
240290;-0.000977;0.024414;1.039062;
240433;-0.003906;0.025391;1.044922;
240573;0.000977;0.028320;1.063477;
240713;0.000977;0.023438;1.074219;
240853;-0.001953;0.026367;1.071289;
240993;0.006836;0.023438;1.083008;
241133;-0.001953;0.027344;1.090820;
241273;0.000977;0.026367;1.108398;
241413;0.004883;0.025391;1.112305;
241553;0.004883;0.024414;1.114258;
241693;0.001953;0.024414;1.128906;
241833;0.004883;0.025391;1.138672;
241973;0.004883;0.025391;1.144531;
242113;0.004883;0.021484;1.139648;
242253;0.001953;0.023438;1.129883;
242403;0.004883;0.028320;1.147461;
242543;0.004883;0.029297;1.129883;
242682;0.002930;0.025391;1.139648;
242829;0.004883;0.021484;1.136719;
242979;0.002930;0.024414;1.118164;
243129;0.000000;0.021484;1.097656;
243279;0.001953;0.023438;1.098633;
243430;0.000977;0.024414;1.082031;
243580;-0.000977;0.026367;1.083984;
243733;0.002930;0.023438;1.070312;
243873;0.000977;0.022461;1.058594;
244013;-0.002930;0.023438;1.049805;
244163;0.000977;0.024414;1.051758;
244303;-0.005859;0.023438;1.044922;
244443;-0.002930;0.024414;1.041992;
244583;-0.001953;0.023438;1.038086;
244723;-0.000977;0.030273;1.041016;
244863;-0.000977;0.023438;1.048828;
245003;0.000000;0.022461;1.041992;
245153;-0.003906;0.026367;1.032227;
245293;0.001953;0.026367;1.048828;
245433;-0.001953;0.023438;1.034180;
245583;-0.001953;0.030273;1.037109;
245719;0.000000;0.026367;1.034180;
245869;-0.002930;0.028320;1.030273;
246019;0.000000;0.025391;1.041992;
246169;0.000000;0.023438;1.033203;
246319;-0.002930;0.026367;1.026367;
246470;0.000000;0.025391;1.052734;
246613;-0.000977;0.024414;1.041992;
246753;0.000000;0.027344;1.043945;
246903;0.001953;0.022461;1.027344;
247043;-0.001953;0.028320;0.999023;
247183;-0.005859;0.028320;0.969727;
247323;-0.001953;0.028320;0.955078;
247463;-0.005859;0.028320;0.916016;
247603;-0.006836;0.023438;0.909180;
247743;-0.006836;0.025391;0.883789;
247884;-0.006836;0.028320;0.869141;
248023;-0.007812;0.026367;0.863281;
248163;-0.010742;0.028320;0.848633;
248303;-0.007812;0.032227;0.853516;
248443;-0.009766;0.029297;0.846680;
248578;-0.010742;0.027344;0.843750;
248728;-0.008789;0.029297;0.877930;
248879;-0.011719;0.024414;0.857422;
249021;-0.009766;0.030273;0.882812;
249150;-0.002930;0.024414;0.894531;
249299;-0.010742;0.024414;0.888672;
249439;-0.003906;0.022461;0.909180;
249583;-0.004883;0.024414;0.923828;
249723;-0.009766;0.024414;0.928711;
249863;-0.003906;0.025391;0.952148;
250003;-0.003906;0.025391;0.975586;
250153;-0.002930;0.024414;1.003906;
250293;0.004883;0.023438;1.041992;
250443;0.002930;0.019531;1.056641;
250583;-0.001953;0.023438;1.082031;
250723;0.003906;0.018555;1.105469;
250873;0.004883;0.017578;1.121094;
251013;0.005859;0.025391;1.147461;
251153;0.005859;0.024414;1.150391;
251303;0.005859;0.026367;1.137695;
251443;0.004883;0.023438;1.136719;
251591;0.004883;0.024414;1.106445;
251739;0.000977;0.020508;1.073242;
251879;0.004883;0.024414;1.047852;
252029;0.003906;0.030273;1.007812;
252179;0.000977;0.024414;0.997070;
252323;0.002930;0.020508;0.966797;
252463;0.003906;0.021484;0.967773;
252613;0.000977;0.023438;0.964844;
252753;0.006836;0.025391;0.982422;
252893;0.000977;0.027344;0.984375;
253033;0.004883;0.030273;1.004883;
253173;0.001953;0.023438;1.002930;
253313;0.003906;0.024414;1.027344;
253463;0.008789;0.021484;1.036133;
253603;0.005859;0.025391;1.065430;
253743;0.013672;0.023438;1.073242;
253893;0.013672;0.026367;1.080078;
254033;0.012695;0.023438;1.079102;
254173;0.010742;0.017578;1.089844;
254319;0.014648;0.027344;1.080078;
254460;0.016602;0.023438;1.066406;
254600;0.017578;0.018555;1.053711;
254749;0.015625;0.019531;1.024414;
254889;0.016602;0.023438;1.019531;
255019;0.019531;0.023438;1.012695;
255159;0.021484;0.024414;0.999023;
255303;0.024414;0.024414;0.986328;
255443;0.022461;0.021484;0.998047;
255583;0.027344;0.027344;1.008789;
255733;0.028320;0.027344;1.032227;
255873;0.026367;0.023438;1.053711;
256013;0.032227;0.025391;1.079102;
256153;0.032227;0.027344;1.100586;
256293;0.035156;0.019531;1.122070;
256443;0.037109;0.023438;1.144531;
256583;0.037109;0.023438;1.146484;
256723;0.037109;0.024414;1.147461;
256873;0.040039;0.019531;1.141602;
257013;0.039062;0.018555;1.111328;
257153;0.038086;0.019531;1.110352;
257289;0.037109;0.023438;1.092773;
257419;0.040039;0.022461;1.090820;
257560;0.040039;0.023438;1.072266;
257700;0.037109;0.022461;1.058594;
257839;0.040039;0.024414;1.049805;
257989;0.040039;0.020508;1.042969;
258138;0.041016;0.027344;1.030273;
258293;0.041016;0.024414;1.024414;
258433;0.040039;0.023438;1.028320;
258583;0.041992;0.018555;1.019531;
258723;0.043945;0.022461;1.021484;
258863;0.046875;0.025391;1.013672;
259003;0.042969;0.020508;1.006836;
259143;0.046875;0.018555;0.983398;
259283;0.047852;0.014648;0.981445;
259423;0.049805;0.018555;0.969727;
259563;0.045898;0.020508;0.958984;
259703;0.046875;0.021484;0.957031;
259843;0.046875;0.022461;0.957031;
259983;0.048828;0.020508;0.952148;
260123;0.049805;0.026367;0.944336;
260259;0.051758;0.022461;0.943359;
260409;0.046875;0.022461;0.941406;
260539;0.049805;0.020508;0.936523;
260691;0.051758;0.030273;0.951172;
260840;0.049805;0.025391;0.954102;
260989;0.051758;0.025391;0.969727;
261133;0.051758;0.015625;0.971680;
261273;0.053711;0.022461;0.972656;
261413;0.051758;0.023438;0.993164;
261553;0.055664;0.021484;0.985352;
261693;0.053711;0.019531;0.987305;
261833;0.053711;0.021484;0.999023;
261973;0.058594;0.019531;1.000977;
262113;0.053711;0.022461;1.002930;
262253;0.055664;0.023438;1.006836;
262393;0.057617;0.023438;1.002930;
262533;0.057617;0.020508;1.015625;
262673;0.063477;0.019531;1.037109;
262814;0.059570;0.021484;1.070312;
262953;0.063477;0.016602;1.075195;
263089;0.070312;0.024414;1.125000;
263239;0.070312;0.019531;1.162109;
263389;0.077148;0.021484;1.178711;
263529;0.080078;0.018555;1.199219;
263679;0.084961;0.024414;1.220703;
263829;0.083008;0.022461;1.224609;
263973;0.084961;0.020508;1.208008;
264123;0.090820;0.018555;1.199219;
264263;0.087891;0.019531;1.188477;
264403;0.087891;0.017578;1.180664;
264543;0.089844;0.014648;1.154297;
264683;0.086914;0.019531;1.139648;
264823;0.089844;0.016602;1.104492;
264963;0.087891;0.015625;1.079102;
265113;0.086914;0.024414;1.081055;
265253;0.087891;0.022461;1.091797;
265393;0.092773;0.020508;1.084961;
265543;0.090820;0.019531;1.054688;
265683;0.086914;0.018555;1.042969;
265823;0.086914;0.018555;1.028320;
265969;0.090820;0.023438;1.026367;
266110;0.084961;0.020508;1.008789;
266253;0.086914;0.023438;0.989258;
266393;0.088867;0.019531;0.976562;
266533;0.085938;0.025391;0.965820;
266681;0.087891;0.025391;0.977539;
266829;0.085938;0.021484;0.966797;
266969;0.083984;0.021484;0.965820;
267123;0.085938;0.020508;0.976562;
267263;0.084961;0.027344;0.984375;
267403;0.085938;0.020508;1.014648;
267543;0.090820;0.017578;1.025391;
267683;0.089844;0.024414;1.013672;
267823;0.091797;0.017578;1.005859;
267963;0.083008;0.016602;1.000977;
268103;0.083008;0.021484;0.997070;
268253;0.084961;0.018555;0.986328;
268393;0.085938;0.025391;0.993164;
268533;0.085938;0.020508;0.972656;
268683;0.085938;0.019531;0.974609;
268823;0.085938;0.017578;0.958984;
268963;0.083008;0.023438;0.962891;
269110;0.083984;0.020508;0.976562;
269239;0.083008;0.026367;0.967773;
269391;0.088867;0.032227;0.991211;
269539;0.084961;0.023438;0.984375;
269689;0.085938;0.026367;0.990234;
269839;0.084961;0.019531;0.989258;
269989;0.084961;0.022461;0.987305;
270133;0.083008;0.021484;0.987305;
270273;0.083984;0.026367;0.995117;
270413;0.082031;0.023438;0.991211;
270553;0.086914;0.024414;1.005859;
270693;0.079102;0.017578;0.980469;
270833;0.084961;0.016602;0.983398;
270973;0.082031;0.019531;0.992188;
271113;0.083008;0.020508;0.995117;
271253;0.085938;0.026367;1.002930;
271393;0.083984;0.024414;1.000000;
271533;0.083984;0.021484;0.978516;
271673;0.080078;0.020508;0.987305;
271814;0.083984;0.023438;1.015625;
271953;0.079102;0.019531;1.020508;
272089;0.083008;0.027344;1.023438;
272239;0.085938;0.025391;1.041992;
272390;0.088867;0.021484;1.047852;
272539;0.082031;0.024414;1.043945;
272680;0.083984;0.019531;1.055664;
272809;0.082031;0.021484;1.057617;
272949;0.083008;0.022461;1.064453;
273103;0.083008;0.020508;1.041016;
273243;0.083984;0.023438;1.011719;
273383;0.084961;0.015625;0.998047;
273523;0.083008;0.015625;0.991211;
273663;0.081055;0.013672;0.992188;
273803;0.083984;0.021484;1.001953;
273943;0.083008;0.025391;1.006836;
274093;0.082031;0.021484;0.989258;
274233;0.081055;0.018555;0.996094;
274373;0.077148;0.021484;1.006836;
274523;0.080078;0.023438;1.014648;
274663;0.083008;0.020508;1.025391;
274803;0.080078;0.028320;1.032227;
274943;0.082031;0.022461;1.042969;
275079;0.079102;0.020508;1.052734;
275212;0.079102;0.013672;1.050781;
275349;0.082031;0.025391;1.078125;
275490;0.081055;0.019531;1.081055;
275639;0.080078;0.023438;1.072266;
275779;0.083008;0.019531;1.065430;
275929;0.083984;0.018555;1.078125;
276083;0.079102;0.016602;1.108398;
276223;0.080078;0.019531;1.149414;
276363;0.083984;0.022461;1.247070;
276503;0.088867;0.022461;1.314453;
276643;0.092773;0.018555;1.417969;
276783;0.096680;0.013672;1.493164;
276923;0.103516;0.016602;1.596680;
277073;0.111328;0.013672;1.686523;
277213;0.111328;0.016602;1.757812;
277353;0.122070;0.019531;1.829102;
277493;0.127930;0.012695;1.866211;
277633;0.126953;0.013672;1.918945;
277773;0.131836;0.007812;1.958984;
277913;0.135742;0.007812;1.992188;
278050;0.137695;0.015625;2.007812;
278199;0.137695;0.008789;2.012695;
278349;0.135742;0.016602;2.011719;
278499;0.137695;0.011719;1.997070;
278639;0.133789;0.014648;1.976562;
278789;0.132812;0.017578;1.957031;
278930;0.131836;0.018555;1.937500;
279073;0.127930;0.016602;1.878906;
279213;0.125000;0.015625;1.859375;
279353;0.122070;0.012695;1.826172;
279493;0.125000;0.020508;1.824219;
279633;0.118164;0.017578;1.808594;
279773;0.124023;0.020508;1.795898;
279913;0.125000;0.017578;1.811523;
280053;0.121094;0.014648;1.812500;
280193;0.122070;0.012695;1.821289;
280333;0.125000;0.013672;1.842773;
280483;0.126953;0.016602;1.880859;
280623;0.126953;0.008789;1.886719;
280763;0.126953;0.011719;1.883789;
280903;0.129883;0.013672;1.887695;
281039;0.126953;0.007812;1.892578;
281169;0.132812;0.014648;1.887695;
281309;0.130859;0.012695;1.875977;
281441;0.132812;0.012695;1.860352;
281569;0.127930;0.010742;1.840820;
281719;0.125000;0.007812;1.815430;
281869;0.126953;0.010742;1.812500;
282010;0.123047;0.013672;1.806641;
282163;0.125000;0.012695;1.792969;
282314;0.125000;0.017578;1.786133;
282453;0.122070;0.007812;1.781250;
282593;0.128906;0.012695;1.784180;
282733;0.125977;0.011719;1.789062;
282873;0.125000;0.015625;1.810547;
283013;0.128906;0.011719;1.808594;
283153;0.129883;0.012695;1.824219;
283293;0.127930;0.011719;1.834961;
283433;0.132812;0.010742;1.844727;
283573;0.136719;0.008789;1.861328;
283723;0.134766;0.004883;1.864258;
283863;0.132812;0.009766;1.882812;
284003;0.140625;0.014648;1.881836;
284139;0.139648;0.011719;1.889648;
284288;0.136719;0.016602;1.890625;
284429;0.143555;0.014648;1.875000;
284579;0.138672;0.007812;1.865234;
284720;0.138672;0.008789;1.856445;
284869;0.137695;0.004883;1.847656;
285010;0.140625;0.001953;1.846680;
285153;0.134766;0.000000;1.830078;
285293;0.135742;0.010742;1.833984;
285433;0.143555;0.006836;1.845703;
285573;0.139648;0.005859;1.829102;
285713;0.141602;0.009766;1.838867;
285863;0.141602;0.009766;1.858398;
286003;0.140625;0.009766;1.833984;
286143;0.144531;0.016602;1.831055;
286284;0.142578;0.028320;1.854492;
286423;0.141602;0.023438;1.852539;
286563;0.146484;0.033203;1.861328;
286703;0.147461;0.034180;1.870117;
286843;0.145508;0.034180;1.882812;
286983;0.144531;0.029297;1.872070;
287130;0.151367;0.028320;1.891602;
287274;0.148438;0.018555;1.867188;
287409;0.148438;0.007812;1.835938;
287539;0.149414;0.015625;1.824219;
287689;0.149414;0.006836;1.817383;
287840;0.147461;0.005859;1.807617;
287979;0.150391;0.002930;1.789062;
288133;0.147461;0.000000;1.779297;
288273;0.151367;-0.003906;1.781250;
288413;0.150391;0.002930;1.774414;
288563;0.148438;0.005859;1.770508;
288703;0.156250;0.007812;1.781250;
288843;0.156250;0.018555;1.773438;
288993;0.157227;0.030273;1.777344;
289133;0.153320;0.026367;1.776367;
289273;0.157227;0.029297;1.788086;
289413;0.161133;0.032227;1.795898;
289553;0.163086;0.025391;1.818359;
289693;0.165039;0.021484;1.833984;
289833;0.166016;0.019531;1.826172;
289973;0.166016;0.021484;1.839844;
290113;0.170898;0.015625;1.849609;
290259;0.173828;0.013672;1.869141;
290409;0.174805;0.013672;1.868164;
290550;0.178711;0.007812;1.873047;
290679;0.177734;0.004883;1.865234;
290829;0.178711;0.008789;1.867188;
290973;0.183594;0.011719;1.895508;
291113;0.181641;0.004883;1.870117;
291263;0.182617;0.008789;1.874023;
291403;0.180664;0.005859;1.837891;
291543;0.180664;0.006836;1.833984;
291683;0.179688;0.015625;1.822266;
291823;0.181641;0.016602;1.791992;
291973;0.179688;0.010742;1.793945;
292113;0.180664;0.012695;1.782227;
292253;0.182617;0.015625;1.752930;
292393;0.183594;0.014648;1.762695;
292533;0.183594;0.017578;1.753906;
292673;0.184570;0.020508;1.747070;
292823;0.188477;0.024414;1.769531;
292959;0.190430;0.023438;1.759766;
293099;0.189453;0.020508;1.769531;
293248;0.196289;0.020508;1.790039;
293380;0.198242;0.010742;1.813477;
293523;0.199219;0.008789;1.809570;
293659;0.204102;0.004883;1.839844;
293799;0.205078;0.009766;1.855469;
293953;0.207031;0.007812;1.853516;
294093;0.210938;0.012695;1.829102;
294233;0.208984;0.012695;1.832031;
294373;0.210938;0.013672;1.808594;
294513;0.210938;0.016602;1.805664;
294653;0.212891;0.020508;1.812500;
294793;0.210938;0.020508;1.795898;
294933;0.212891;0.033203;1.793945;
295083;0.208984;0.027344;1.771484;
295223;0.205078;0.026367;1.745117;
295363;0.205078;0.027344;1.720703;
295513;0.198242;0.020508;1.714844;
295653;0.195312;0.020508;1.713867;
295803;0.193359;0.015625;1.699219;
295944;0.190430;0.009766;1.682617;
296079;0.186523;0.011719;1.657227;
296229;0.178711;0.010742;1.675781;
296360;0.171875;0.002930;1.646484;
296509;0.167969;0.005859;1.632812;
296649;0.159180;0.000977;1.596680;
296803;0.144531;0.007812;1.493164;
296943;0.125000;0.006836;1.414062;
297083;0.107422;0.004883;1.296875;
297233;0.091797;0.004883;1.158203;
297373;0.073242;0.004883;1.062500;
297513;0.055664;0.000977;0.906250;
297663;0.044922;0.005859;0.807617;
297803;0.035156;0.010742;0.688477;
297943;0.023438;0.013672;0.585938;
298083;0.013672;0.016602;0.467773;
298223;0.012695;0.023438;0.399414;
298363;0.005859;0.026367;0.307617;
298503;0.001953;0.029297;0.247070;
298643;0.003906;0.027344;0.195312;
298783;0.001953;0.024414;0.151367;
298929;0.001953;0.021484;0.113281;
299079;0.001953;0.026367;0.100586;
299229;0.000977;0.024414;0.064453;
299369;-0.001953;0.031250;0.055664;
299500;0.000000;0.031250;0.037109;
299653;-0.001953;0.031250;0.041992;
299779;-0.003906;0.028320;0.033203;
299933;0.000000;0.026367;0.037109;
300073;-0.000977;0.029297;0.032227;
300213;-0.003906;0.030273;0.035156;
300363;-0.001953;0.033203;0.045898;
300503;-0.001953;0.034180;0.056641;
300643;-0.002930;0.033203;0.049805;
300783;-0.005859;0.030273;0.045898;
300923;-0.005859;0.029297;0.044922;
301063;0.006836;0.027344;0.058594;
301213;-0.008789;0.027344;0.046875;
301353;-0.007812;0.032227;0.042969;
301493;-0.006836;0.028320;0.041016;
301633;-0.006836;0.028320;0.043945;
301773;-0.004883;0.027344;0.047852;
301909;-0.009766;0.026367;0.038086;
302049;-0.011719;0.026367;0.041016;
302200;-0.008789;0.031250;0.050781;
302329;-0.008789;0.031250;0.043945;
302469;-0.006836;0.031250;0.044922;
302609;-0.007812;0.031250;0.039062;
302759;-0.008789;0.035156;0.034180;
302913;-0.005859;0.037109;0.036133;
303053;-0.014648;0.034180;0.003906;
303203;-0.010742;0.033203;0.008789;
303343;-0.014648;0.034180;-0.003906;
303483;-0.008789;0.033203;0.000977;
303633;-0.010742;0.033203;-0.006836;
303773;-0.009766;0.032227;-0.011719;
303913;-0.012695;0.029297;-0.008789;
304063;-0.014648;0.031250;-0.016602;
304203;-0.011719;0.034180;-0.007812;
304343;-0.009766;0.029297;-0.007812;
304483;-0.012695;0.027344;-0.005859;
304623;-0.015625;0.033203;0.000977;
304763;-0.012695;0.036133;-0.004883;
304899;-0.013672;0.035156;-0.007812;
305050;-0.011719;0.030273;-0.005859;
305199;-0.011719;0.031250;0.000000;
305349;-0.015625;0.033203;0.005859;
305499;-0.014648;0.033203;0.006836;
305639;-0.014648;0.033203;0.006836;
305793;-0.014648;0.032227;0.012695;
305943;-0.012695;0.031250;0.023438;
306083;-0.014648;0.031250;0.024414;
306223;-0.015625;0.032227;0.022461;
306363;-0.015625;0.032227;0.031250;
306503;-0.016602;0.030273;0.030273;
306643;-0.015625;0.030273;0.036133;
306783;-0.015625;0.028320;0.049805;
306933;-0.015625;0.028320;0.050781;
307073;-0.013672;0.027344;0.045898;
307213;-0.015625;0.027344;0.036133;
307363;-0.016602;0.028320;0.040039;
307503;-0.016602;0.028320;0.031250;
307643;-0.015625;0.021484;0.037109;
307779;-0.014648;0.022461;0.029297;
307930;-0.014648;0.025391;0.033203;
308079;-0.017578;0.030273;0.043945;
308221;-0.017578;0.032227;0.054688;
308369;-0.014648;0.030273;0.047852;
308511;-0.019531;0.034180;0.041016;
308653;-0.017578;0.031250;0.034180;
308793;-0.014648;0.026367;0.027344;
308933;-0.018555;0.029297;0.031250;
309073;-0.017578;0.028320;0.037109;
309213;-0.020508;0.029297;0.024414;
309353;-0.017578;0.024414;0.032227;
309493;-0.014648;0.026367;0.042969;
309643;-0.018555;0.030273;0.032227;
309783;-0.015625;0.029297;0.024414;
309923;-0.016602;0.026367;0.019531;
310073;-0.017578;0.028320;0.019531;
310213;-0.004883;0.017578;0.003906;
310353;-0.013672;0.026367;-0.000977;
310493;-0.019531;0.024414;0.008789;
310633;-0.016602;0.027344;0.002930;
310783;-0.016602;0.025391;0.004883;
310919;-0.018555;0.027344;0.004883;
311073;-0.019531;0.025391;0.002930;
311209;-0.017578;0.027344;-0.004883;
311349;-0.019531;0.028320;0.000977;
311499;-0.017578;0.024414;-0.009766;
311639;-0.018555;0.024414;0.008789;
311789;-0.014648;0.027344;0.006836;
311939;-0.015625;0.022461;-0.003906;
312083;-0.020508;0.023438;-0.000977;
312229;-0.017578;0.024414;0.002930;
312363;-0.022461;0.027344;-0.002930;
312503;-0.018555;0.025391;0.008789;
312653;-0.020508;0.029297;0.006836;
312793;-0.021484;0.027344;0.005859;
312943;-0.018555;0.029297;0.002930;
313083;-0.020508;0.028320;0.011719;
313223;-0.021484;0.031250;0.000000;
313359;-0.021484;0.026367;-0.004883;
313513;-0.020508;0.029297;0.003906;
313653;-0.023438;0.030273;0.001953;
313793;-0.020508;0.030273;0.006836;
313933;-0.023438;0.027344;-0.005859;
314069;-0.021484;0.030273;0.001953;
314209;-0.021484;0.031250;0.005859;
314359;-0.023438;0.030273;0.001953;
314491;-0.021484;0.028320;-0.002930;
314639;-0.023438;0.030273;-0.001953;
314849;-0.021484;0.030273;0.014648;
315068;-0.021484;0.028320;0.000977;
315293;-0.021484;0.029297;0.002930;
315513;-0.022461;0.032227;0.001953;
315723;-0.023438;0.029297;0.012695;
315943;-0.024414;0.028320;0.004883;
316149;-0.024414;0.028320;0.001953;
316373;-0.026367;0.024414;0.007812;
316593;-0.025391;0.025391;0.016602;
316803;-0.025391;0.020508;0.011719;
317023;-0.024414;0.021484;0.008789;
317243;-0.026367;0.022461;0.016602;
317453;-0.025391;0.027344;0.023438;
317673;-0.028320;0.026367;0.012695;
317883;-0.030273;0.023438;0.020508;
318089;-0.031250;0.023438;0.020508;
318299;-0.030273;0.022461;0.024414;
318509;-0.030273;0.024414;0.011719;
318739;-0.028320;0.025391;0.028320;
318953;-0.033203;0.021484;-0.007812;
319163;-0.033203;0.024414;-0.000977;
319373;-0.033203;0.021484;-0.000977;
319583;-0.030273;0.020508;0.014648;
319803;-0.035156;0.023438;0.029297;
320023;-0.036133;0.020508;0.044922;
320245;-0.036133;0.024414;0.059570;
320463;-0.038086;0.025391;0.058594;
320673;-0.037109;0.025391;0.065430;
320889;-0.037109;0.030273;0.065430;
321123;-0.039062;0.029297;0.064453;
321333;-0.037109;0.024414;0.062500;
321549;-0.038086;0.024414;0.051758;
321773;-0.041992;0.024414;0.050781;
321993;-0.040039;0.026367;0.043945;
322210;-0.043945;0.028320;0.027344;
322429;-0.048828;0.028320;0.022461;
322653;-0.049805;0.026367;0.073242;
322872;-0.050781;0.026367;0.167969;
323089;-0.045898;0.030273;0.356445;
323310;-0.033203;0.027344;0.557617;
323533;-0.014648;0.032227;0.805664;
323753;0.007812;0.033203;1.027344;
323963;0.013672;0.024414;1.176758;
324183;0.024414;0.024414;1.308594;
324403;0.037109;0.031250;1.411133;
324623;0.044922;0.029297;1.486328;
324843;0.056641;0.033203;1.535156;
325063;0.056641;0.035156;1.566406;
325283;0.060547;0.038086;1.595703;
325493;0.063477;0.032227;1.631836;
325713;0.059570;0.038086;1.678711;
325933;0.056641;0.032227;1.701172;
326153;0.055664;0.029297;1.730469;
326359;0.053711;0.025391;1.763672;
326579;0.051758;0.026367;1.794922;
326799;0.053711;0.022461;1.771484;
327019;0.053711;0.026367;1.773438;
327253;0.048828;0.020508;1.735352;
327463;0.042969;0.010742;1.742188;
327674;0.043945;0.017578;1.768555;
327883;0.048828;0.013672;1.815430;
328103;0.050781;0.014648;1.846680;
328324;0.048828;0.015625;1.885742;
328533;0.048828;0.027344;1.900391;
328753;0.048828;0.019531;1.910156;
328963;0.046875;0.029297;1.906250;
329173;0.046875;0.017578;1.905273;
329393;0.037109;0.027344;1.886719;
329603;0.035156;0.026367;1.851562;
329823;0.031250;0.022461;1.850586;
330033;0.032227;0.022461;1.841797;
330249;0.027344;0.020508;1.855469;
330459;0.026367;0.016602;1.857422;
330693;0.024414;0.023438;1.868164;
330913;0.020508;0.016602;1.826172;
331129;0.011719;0.020508;1.797852;
331353;0.004883;0.021484;1.762695;
331573;0.000000;0.025391;1.735352;
331793;-0.006836;0.023438;1.676758;
332003;-0.013672;0.025391;1.646484;
332214;-0.019531;0.022461;1.607422;
332433;-0.022461;0.026367;1.584961;
332643;-0.025391;0.018555;1.580078;
332863;-0.022461;0.018555;1.585938;
333073;-0.023438;0.014648;1.611328;
333293;-0.022461;0.016602;1.658203;
333513;-0.020508;0.018555;1.680664;
333733;-0.020508;0.016602;1.721680;
333943;-0.015625;0.013672;1.749023;
334163;-0.014648;0.015625;1.762695;
334379;-0.017578;0.021484;1.764648;
334599;-0.018555;0.022461;1.768555;
334819;-0.020508;0.024414;1.771484;
335039;-0.022461;0.025391;1.769531;
335259;-0.024414;0.022461;1.758789;
335473;-0.023438;0.020508;1.744141;
335683;-0.027344;0.015625;1.740234;
335893;-0.030273;0.012695;1.722656;
336113;-0.033203;0.006836;1.709961;
336333;-0.034180;0.014648;1.710938;
336553;-0.033203;0.014648;1.708008;
336763;-0.037109;0.015625;1.703125;
336973;-0.040039;0.019531;1.708984;
337183;-0.038086;0.020508;1.714844;
337403;-0.039062;0.019531;1.710938;
337623;-0.037109;0.020508;1.713867;
337843;-0.037109;0.017578;1.724609;
338053;-0.038086;0.011719;1.730469;
338265;-0.037109;0.014648;1.733398;
338479;-0.038086;0.013672;1.734375;
338689;-0.035156;0.009766;1.750977;
338889;-0.036133;0.013672;1.772461;
339099;-0.034180;0.017578;1.774414;
339333;-0.036133;0.025391;1.788086;
339543;-0.037109;0.022461;1.781250;
339763;-0.037109;0.032227;1.784180;
339983;-0.041016;0.025391;1.768555;
340193;-0.040039;0.025391;1.747070;
340413;-0.041992;0.019531;1.705078;
340633;-0.044922;0.018555;1.669922;
340853;-0.051758;0.020508;1.622070;
341073;-0.051758;0.018555;1.573242;
341293;-0.059570;0.019531;1.519531;
341503;-0.059570;0.013672;1.481445;
341713;-0.064453;0.019531;1.457031;
341923;-0.069336;0.022461;1.424805;
342143;-0.068359;0.020508;1.404297;
342359;-0.069336;0.023438;1.365234;
342579;-0.072266;0.024414;1.345703;
342789;-0.076172;0.021484;1.313477;
343010;-0.077148;0.018555;1.257812;
343229;-0.083984;0.021484;1.203125;
343453;-0.086914;0.017578;1.164062;
343673;-0.086914;0.021484;1.132812;
343893;-0.087891;0.024414;1.125000;
344113;-0.088867;0.024414;1.110352;
344323;-0.090820;0.024414;1.110352;
344533;-0.088867;0.024414;1.105469;
344753;-0.091797;0.026367;1.101562;
344973;-0.089844;0.024414;1.101562;
345193;-0.088867;0.023438;1.106445;
345413;-0.088867;0.022461;1.110352;
345623;-0.089844;0.023438;1.130859;
345843;-0.088867;0.024414;1.161133;
346063;-0.084961;0.027344;1.190430;
346283;-0.082031;0.022461;1.234375;
346499;-0.080078;0.019531;1.270508;
346710;-0.078125;0.017578;1.297852;
346929;-0.076172;0.020508;1.294922;
347149;-0.080078;0.014648;1.262695;
347373;-0.082031;0.015625;1.225586;
347594;-0.083984;0.018555;1.192383;
347813;-0.086914;0.014648;1.139648;
348034;-0.087891;0.021484;1.121094;
348253;-0.087891;0.019531;1.093750;
348473;-0.088867;0.028320;1.097656;
348683;-0.092773;0.021484;1.083984;
348903;-0.085938;0.026367;1.100586;
349113;-0.090820;0.028320;1.106445;
349333;-0.089844;0.027344;1.127930;
349553;-0.087891;0.023438;1.164062;
349763;-0.087891;0.022461;1.181641;
349973;-0.083984;0.024414;1.202148;
350193;-0.083984;0.014648;1.224609;
350410;-0.083008;0.022461;1.266602;
350619;-0.081055;0.019531;1.294922;
350839;-0.075195;0.023438;1.328125;
351059;-0.074219;0.024414;1.354492;
351283;-0.073242;0.026367;1.359375;
351493;-0.075195;0.024414;1.363281;
351703;-0.077148;0.019531;1.359375;
351923;-0.071289;0.021484;1.347656;
352143;-0.070312;0.025391;1.353516;
352363;-0.071289;0.015625;1.351562;
352583;-0.070312;0.024414;1.358398;
352793;-0.071289;0.015625;1.343750;
353013;-0.071289;0.016602;1.352539;
353223;-0.069336;0.029297;1.383789;
353443;-0.070312;0.026367;1.375977;
353663;-0.069336;0.021484;1.373047;
353873;-0.072266;0.022461;1.382812;
354083;-0.068359;0.020508;1.355469;
354289;-0.070312;0.021484;1.361328;
354509;-0.070312;0.014648;1.324219;
354739;-0.071289;0.023438;1.285156;
354960;-0.072266;0.027344;1.237305;
355193;-0.075195;0.028320;1.215820;
355413;-0.083008;0.014648;1.153320;
355633;-0.082031;0.023438;1.118164;
355853;-0.083984;0.023438;1.081055;
356063;-0.084961;0.024414;1.036133;
356273;-0.088867;0.018555;1.005859;
356493;-0.089844;0.015625;0.984375;
356703;-0.085938;0.025391;0.974609;
356913;-0.083984;0.024414;0.963867;
357133;-0.084961;0.020508;0.955078;
357353;-0.084961;0.022461;0.954102;
357563;-0.082031;0.030273;0.965820;
357773;-0.077148;0.022461;0.966797;
357993;-0.078125;0.012695;0.974609;
358209;-0.077148;0.027344;0.976562;
358421;-0.070312;0.020508;0.958984;
358639;-0.066406;0.013672;0.938477;
358852;-0.063477;0.022461;0.906250;
359073;-0.058594;0.013672;0.902344;
359293;-0.051758;0.012695;0.888672;
359513;-0.045898;0.014648;0.900391;
359733;-0.037109;0.022461;0.947266;
359943;-0.034180;0.018555;0.965820;
360163;-0.019531;0.021484;1.015625;
360383;-0.015625;0.023438;1.064453;
360594;-0.013672;0.023438;1.071289;
360813;-0.009766;0.027344;1.083984;
361033;-0.001953;0.024414;1.111328;
361253;0.002930;0.021484;1.132812;
361463;0.003906;0.022461;1.135742;
361673;0.007812;0.013672;1.143555;
361893;0.004883;0.011719;1.144531;
362109;0.004883;0.020508;1.141602;
362329;0.001953;0.018555;1.126953;
362540;0.001953;0.022461;1.132812;
362749;0.000000;0.016602;1.104492;
362973;0.002930;0.019531;1.109375;
363183;0.001953;0.017578;1.105469;
363393;-0.002930;0.018555;1.078125;
363603;-0.005859;0.013672;1.068359;
363823;0.001953;0.022461;1.092773;
364043;-0.002930;0.015625;1.078125;
364263;-0.005859;0.026367;1.070312;
364473;-0.004883;0.020508;1.073242;
364693;-0.004883;0.020508;1.047852;
364913;-0.004883;0.013672;1.046875;
365133;-0.009766;0.021484;1.013672;
365353;-0.014648;0.020508;0.978516;
365573;-0.012695;0.026367;0.950195;
365783;-0.014648;0.019531;0.920898;
365989;-0.014648;0.023438;0.916992;
366209;-0.015625;0.021484;0.914062;
366433;-0.008789;0.019531;0.961914;
366640;-0.009766;0.024414;0.975586;
366859;-0.005859;0.027344;1.013672;
367073;-0.006836;0.026367;1.061523;
367283;-0.005859;0.030273;1.090820;
367503;-0.002930;0.026367;1.107422;
367723;-0.004883;0.025391;1.115234;
367933;-0.005859;0.023438;1.107422;
368153;-0.002930;0.021484;1.106445;
368363;-0.005859;0.018555;1.080078;
368573;-0.002930;0.012695;1.072266;
368793;-0.006836;0.016602;1.049805;
369003;-0.005859;0.017578;1.033203;
369223;-0.010742;0.019531;1.024414;
369443;-0.007812;0.021484;1.018555;
369653;-0.005859;0.019531;1.026367;
369863;-0.009766;0.021484;1.000000;
370079;-0.006836;0.027344;1.004883;
370299;-0.008789;0.022461;0.982422;
370513;-0.010742;0.023438;0.982422;
370730;-0.011719;0.023438;0.974609;
370940;-0.008789;0.019531;0.980469;
371173;-0.013672;0.021484;0.975586;
371383;-0.010742;0.015625;1.000977;
371603;-0.008789;0.022461;1.012695;
371813;-0.010742;0.023438;1.026367;
372033;-0.003906;0.019531;1.040039;
372253;-0.006836;0.018555;1.041016;
372473;-0.007812;0.020508;1.045898;
372683;-0.006836;0.022461;1.022461;
372903;-0.006836;0.022461;1.024414;
373113;-0.009766;0.019531;1.005859;
373323;-0.009766;0.022461;1.019531;
373543;-0.007812;0.023438;1.002930;
373763;-0.008789;0.022461;1.015625;
373973;-0.009766;0.023438;1.015625;
374189;-0.011719;0.017578;1.008789;
374411;-0.006836;0.021484;1.017578;
374633;-0.008789;0.019531;1.020508;
374839;-0.009766;0.019531;1.024414;
375060;-0.007812;0.018555;1.015625;
375283;-0.009766;0.020508;1.020508;
375493;-0.008789;0.016602;1.007812;
375713;-0.006836;0.018555;1.018555;
375933;-0.007812;0.016602;1.016602;
376143;-0.009766;0.017578;1.028320;
376363;-0.007812;0.020508;1.032227;
376583;-0.010742;0.024414;1.029297;
376803;-0.009766;0.024414;1.011719;
377013;-0.012695;0.026367;1.000977;
377233;-0.012695;0.020508;0.983398;
377443;-0.013672;0.022461;0.988281;
377663;-0.008789;0.022461;0.993164;
377883;-0.013672;0.018555;0.981445;
378103;-0.010742;0.016602;0.982422;
378339;-0.008789;0.018555;0.996094;
378559;-0.007812;0.015625;0.994141;
378769;-0.007812;0.020508;0.995117;
378993;-0.008789;0.021484;1.001953;
379213;-0.009766;0.021484;1.001953;
379433;-0.009766;0.023438;1.003906;
379653;-0.010742;0.019531;1.003906;
379863;-0.008789;0.020508;1.005859;
380073;-0.008789;0.025391;0.995117;
380283;-0.008789;0.022461;1.012695;
380503;-0.010742;0.017578;0.994141;
380723;-0.008789;0.020508;0.995117;
380943;-0.011719;0.018555;0.985352;
381153;-0.010742;0.021484;1.010742;
381363;-0.007812;0.019531;1.022461;
381583;-0.008789;0.018555;1.040039;
381803;-0.009766;0.017578;1.057617;
382010;-0.009766;0.019531;1.066406;
382229;-0.006836;0.020508;1.095703;
382459;-0.006836;0.019531;1.088867;
382673;-0.004883;0.020508;1.102539;
382893;-0.006836;0.021484;1.090820;
383113;-0.004883;0.021484;1.104492;
383333;-0.005859;0.020508;1.091797;
383543;-0.007812;0.022461;1.090820;
383753;-0.008789;0.021484;1.074219;
383963;-0.005859;0.019531;1.081055;
384183;-0.006836;0.018555;1.068359;
384403;-0.006836;0.015625;1.064453;
384613;-0.009766;0.022461;1.069336;
384823;-0.007812;0.022461;1.076172;
385043;-0.006836;0.021484;1.076172;
385263;-0.005859;0.021484;1.077148;
385483;-0.008789;0.018555;1.076172;
385699;-0.007812;0.019531;1.063477;
385919;-0.006836;0.019531;1.076172;
386129;-0.007812;0.022461;1.068359;
386349;-0.008789;0.017578;1.066406;
386563;-0.011719;0.021484;1.041992;
386783;-0.006836;0.018555;1.052734;
387003;-0.012695;0.019531;1.029297;
387223;-0.008789;0.018555;1.030273;
387433;-0.011719;0.017578;1.007812;
387643;-0.010742;0.019531;1.017578;
387863;-0.011719;0.024414;1.003906;
388073;-0.011719;0.016602;1.004883;
388293;-0.012695;0.021484;0.999023;
388513;-0.010742;0.018555;1.003906;
388723;-0.011719;0.018555;1.001953;
388943;-0.012695;0.022461;0.998047;
389153;-0.011719;0.018555;1.005859;
389373;-0.013672;0.021484;0.993164;
389580;-0.013672;0.023438;1.001953;
389799;-0.010742;0.019531;0.995117;
390119;-0.011719;0.016602;0.998047;
390349;-0.010742;0.019531;0.999023;
390583;-0.011719;0.016602;0.997070;
390803;-0.011719;0.019531;0.993164;
391013;-0.012695;0.023438;1.000977;
391223;-0.013672;0.016602;1.000000;
391443;-0.016602;0.022461;1.000000;
391653;-0.011719;0.022461;1.014648;
391863;-0.010742;0.021484;1.007812;
392083;-0.011719;0.023438;1.013672;
392293;-0.013672;0.020508;1.027344;
392513;-0.008789;0.022461;1.047852;
392723;-0.008789;0.016602;1.040039;
392933;-0.008789;0.019531;1.053711;
393153;-0.009766;0.021484;1.059570;
393363;-0.004883;0.016602;1.047852;
393579;-0.007812;0.016602;1.055664;
393789;-0.010742;0.015625;1.054688;
393999;-0.006836;0.022461;1.069336;
394219;-0.009766;0.018555;1.068359;
394429;-0.005859;0.014648;1.094727;
394643;-0.009766;0.018555;1.095703;
394863;-0.005859;0.024414;1.111328;
395073;-0.004883;0.020508;1.111328;
395293;-0.004883;0.021484;1.128906;
395513;-0.007812;0.017578;1.107422;
395733;-0.008789;0.016602;1.105469;
395943;-0.008789;0.023438;1.079102;
396163;-0.007812;0.020508;1.070312;
396383;-0.010742;0.016602;1.042969;
396603;-0.008789;0.017578;1.041992;
396823;-0.011719;0.017578;1.019531;
397043;-0.010742;0.023438;1.012695;
397253;-0.008789;0.020508;1.022461;
397469;-0.010742;0.016602;1.006836;
397689;-0.009766;0.020508;1.019531;
397911;-0.011719;0.027344;1.005859;
398119;-0.011719;0.027344;1.027344;
398339;-0.011719;0.028320;1.028320;
398583;-0.013672;0.027344;1.024414;
398803;-0.012695;0.021484;1.015625;
399013;-0.010742;0.026367;1.019531;
399234;-0.010742;0.023438;1.016602;
399453;-0.010742;0.023438;1.023438;
399673;-0.010742;0.023438;1.012695;
399893;-0.005859;0.020508;1.023438;
400103;-0.008789;0.021484;1.016602;
400323;-0.008789;0.018555;1.037109;
400543;-0.007812;0.019531;1.027344;
400753;-0.008789;0.016602;1.033203;
400973;-0.006836;0.016602;1.024414;
401183;-0.009766;0.019531;1.042969;
401399;-0.008789;0.017578;1.015625;
401629;-0.007812;0.015625;1.041992;
401852;-0.009766;0.013672;1.030273;
402059;-0.009766;0.011719;1.034180;
402279;-0.008789;0.020508;1.020508;
402503;-0.007812;0.008789;1.033203;
402713;-0.009766;0.011719;1.011719;
402933;-0.008789;0.016602;1.021484;
403153;-0.009766;0.017578;1.024414;
403373;-0.006836;0.016602;1.023438;
403593;-0.011719;0.024414;1.030273;
403803;-0.011719;0.021484;1.025391;
404023;-0.008789;0.020508;1.024414;
404243;-0.008789;0.027344;1.034180;
404463;-0.010742;0.026367;1.041992;
404683;-0.008789;0.019531;1.035156;
404893;-0.011719;0.015625;1.026367;
405113;-0.012695;0.023438;1.032227;
405333;-0.008789;0.014648;1.027344;
405540;-0.007812;0.013672;1.022461;
405759;-0.005859;0.014648;1.037109;
405969;-0.003906;0.011719;0.993164;
406179;-0.006836;0.011719;1.015625;
406393;-0.003906;0.018555;1.023438;
406603;-0.007812;0.022461;1.028320;
406823;-0.011719;0.012695;1.026367;
407033;-0.009766;0.015625;1.002930;
407253;-0.008789;0.016602;1.014648;
407473;-0.007812;0.015625;1.010742;
407693;-0.009766;0.017578;1.025391;
407913;-0.008789;0.012695;1.006836;
408123;-0.007812;0.021484;1.020508;
408343;-0.011719;0.019531;1.006836;
408563;-0.010742;0.022461;1.017578;
408783;-0.011719;0.023438;1.008789;
409003;-0.011719;0.022461;1.014648;
409213;-0.013672;0.015625;0.995117;
409431;-0.009766;0.014648;1.006836;
409649;-0.010742;0.019531;1.004883;
409860;-0.011719;0.016602;1.010742;
410078;-0.009766;0.016602;1.001953;
410301;-0.011719;0.016602;1.007812;
410523;-0.011719;0.017578;1.001953;
410733;-0.006836;0.018555;1.012695;
410953;-0.011719;0.013672;1.009766;
411163;-0.012695;0.018555;0.996094;
411383;-0.006836;0.021484;1.008789;
411603;-0.010742;0.022461;1.009766;
411823;-0.012695;0.020508;1.002930;
412043;-0.009766;0.016602;0.997070;
412253;-0.010742;0.021484;1.020508;
412473;-0.009766;0.019531;1.003906;
412683;-0.014648;0.019531;1.027344;
412893;-0.011719;0.013672;1.031250;
413113;-0.008789;0.014648;1.064453;
413333;-0.006836;0.018555;1.078125;
413549;-0.006836;0.020508;1.110352;
413769;-0.002930;0.019531;1.127930;
413989;-0.001953;0.018555;1.135742;
414203;-0.002930;0.016602;1.134766;
414423;-0.004883;0.018555;1.143555;
414643;-0.003906;0.018555;1.128906;
414863;0.000000;0.017578;1.130859;
415073;-0.002930;0.018555;1.118164;
415293;-0.004883;0.014648;1.104492;
415503;-0.006836;0.016602;1.112305;
415723;-0.005859;0.010742;1.086914;
415943;-0.005859;0.015625;1.076172;
416163;-0.008789;0.014648;1.051758;
416383;-0.009766;0.019531;1.049805;
416603;-0.012695;0.014648;1.045898;
416813;-0.007812;0.019531;1.041016;
417023;-0.012695;0.017578;1.041016;
417239;-0.008789;0.015625;1.040039;
417459;-0.010742;0.021484;1.026367;
417688;-0.004883;0.022461;1.037109;
417909;-0.010742;0.017578;1.036133;
418123;-0.006836;0.023438;1.040039;
418343;-0.010742;0.022461;1.030273;
418563;-0.008789;0.019531;1.036133;
418783;-0.009766;0.017578;1.022461;
419003;-0.006836;0.014648;1.029297;
419214;-0.007812;0.023438;1.022461;
419433;-0.008789;0.019531;1.022461;
419643;-0.011719;0.020508;1.028320;
419863;-0.011719;0.020508;1.020508;
420083;-0.010742;0.022461;1.018555;
420293;-0.005859;0.020508;1.024414;
420513;-0.009766;0.020508;1.010742;
420733;-0.009766;0.022461;1.021484;
420943;-0.008789;0.017578;1.024414;
421159;-0.011719;0.021484;1.013672;
421389;-0.009766;0.023438;1.018555;
421609;-0.009766;0.016602;1.002930;
421819;-0.006836;0.007812;1.003906;
422033;-0.007812;0.023438;0.989258;
422253;-0.010742;0.016602;0.974609;
422473;-0.010742;0.014648;0.955078;
422693;-0.011719;0.016602;0.958984;
422913;-0.009766;0.020508;0.940430;
423133;-0.009766;0.018555;0.956055;
423353;-0.011719;0.016602;0.952148;
423573;-0.009766;0.019531;0.968750;
423789;-0.015625;0.019531;0.966797;
424002;-0.010742;0.017578;0.979492;
424219;-0.014648;0.018555;0.962891;
424443;-0.011719;0.014648;0.993164;
424653;-0.009766;0.016602;0.975586;
424869;-0.009766;0.020508;0.997070;
425099;-0.010742;0.019531;0.996094;
425309;-0.008789;0.015625;1.010742;
425520;-0.012695;0.018555;0.994141;
425749;-0.011719;0.021484;0.994141;
425969;-0.010742;0.018555;0.984375;
426199;-0.009766;0.016602;0.962891;
426429;-0.012695;0.019531;0.955078;
426653;-0.012695;0.023438;0.960938;
426859;-0.013672;0.026367;0.964844;
427073;-0.010742;0.019531;0.978516;
427283;-0.012695;0.015625;0.982422;
427489;-0.007812;0.012695;1.002930;
427699;-0.005859;0.009766;1.056641;
427913;-0.008789;0.017578;1.082031;
428133;-0.006836;0.019531;1.118164;
428353;-0.004883;0.016602;1.122070;
428569;-0.005859;0.027344;1.124023;
428793;-0.004883;0.023438;1.090820;
429013;-0.004883;0.022461;1.103516;
429229;-0.004883;0.021484;1.105469;
429453;-0.003906;0.017578;1.132812;
429669;-0.002930;0.012695;1.149414;
429899;-0.000977;0.021484;1.184570;
430129;-0.000977;0.014648;1.186523;
430339;0.000000;0.019531;1.178711;
430563;-0.001953;0.018555;1.162109;
430779;-0.002930;0.022461;1.152344;
431003;-0.005859;0.019531;1.111328;
431213;-0.006836;0.014648;1.070312;
431419;-0.008789;0.015625;1.041016;
431630;-0.006836;0.018555;1.036133;
431843;-0.009766;0.019531;1.006836;
432063;-0.006836;0.016602;1.005859;
432279;-0.006836;0.020508;1.024414;
432513;-0.004883;0.021484;1.022461;
432733;0.002930;0.023438;1.024414;
432943;0.008789;0.023438;1.035156;
433163;0.013672;0.025391;1.043945;
433383;0.012695;0.027344;1.060547;
433599;0.019531;0.024414;1.067383;
433819;0.020508;0.022461;1.081055;
434040;0.017578;0.021484;1.054688;
434259;0.020508;0.019531;1.038086;
434469;0.019531;0.021484;1.022461;
434699;0.020508;0.024414;0.992188;
434913;0.021484;0.020508;0.978516;
435133;0.024414;0.023438;0.952148;
435353;0.021484;0.020508;0.935547;
435563;0.026367;0.026367;0.943359;
435773;0.030273;0.024414;0.948242;
435993;0.031250;0.023438;0.973633;
436213;0.035156;0.022461;0.980469;
436434;0.040039;0.027344;1.002930;
436643;0.040039;0.028320;1.016602;
436853;0.040039;0.022461;1.039062;
437073;0.044922;0.029297;1.060547;
437293;0.042969;0.022461;1.041016;
437503;0.043945;0.022461;1.055664;
437723;0.046875;0.018555;1.048828;
437950;0.050781;0.021484;1.029297;
438179;0.052734;0.024414;1.017578;
438411;0.058594;0.025391;1.002930;
438633;0.066406;0.025391;1.011719;
438853;0.066406;0.017578;1.005859;
439073;0.070312;0.018555;1.016602;
439283;0.075195;0.019531;1.026367;
439503;0.080078;0.019531;1.038086;
439723;0.078125;0.020508;1.035156;
439943;0.079102;0.023438;1.054688;
440163;0.081055;0.017578;1.058594;
440373;0.079102;0.019531;1.045898;
440593;0.082031;0.019531;1.059570;
440813;0.083984;0.022461;1.066406;
441033;0.085938;0.026367;1.055664;
441253;0.090820;0.020508;1.059570;
441473;0.094727;0.023438;1.058594;
441689;0.092773;0.022461;1.059570;
441899;0.095703;0.026367;1.079102;
442119;0.094727;0.024414;1.069336;
442333;0.096680;0.013672;1.058594;
442543;0.094727;0.022461;1.083008;
442763;0.094727;0.023438;1.079102;
442973;0.095703;0.028320;1.047852;
443193;0.094727;0.024414;1.052734;
443403;0.093750;0.028320;1.062500;
443623;0.087891;0.024414;1.013672;
443833;0.092773;0.022461;1.014648;
444053;0.089844;0.023438;1.026367;
444273;0.088867;0.024414;1.009766;
444493;0.089844;0.027344;0.984375;
444703;0.087891;0.025391;0.954102;
444923;0.084961;0.015625;0.893555;
445143;0.081055;0.021484;0.850586;
445362;0.083008;0.017578;0.856445;
445579;0.079102;0.020508;0.848633;
445799;0.084961;0.018555;0.826172;
446023;0.083984;0.022461;0.846680;
446233;0.078125;0.018555;0.889648;
446453;0.082031;0.021484;0.895508;
446663;0.084961;0.020508;0.908203;
446873;0.087891;0.022461;0.953125;
447093;0.086914;0.021484;0.971680;
447303;0.083008;0.021484;0.967773;
447513;0.084961;0.012695;0.935547;
447733;0.086914;0.031250;0.946289;
447953;0.083008;0.013672;0.952148;
448173;0.081055;0.014648;0.943359;
448393;0.084961;0.018555;0.917969;
448603;0.083984;0.018555;0.931641;
448823;0.081055;0.016602;0.954102;
449039;0.081055;0.020508;0.983398;
449259;0.085938;0.020508;1.036133;
449489;0.086914;0.025391;1.083008;
449709;0.085938;0.016602;1.114258;
449943;0.088867;0.024414;1.152344;
450163;0.088867;0.020508;1.178711;
450383;0.089844;0.018555;1.203125;
450593;0.090820;0.016602;1.201172;
450803;0.090820;0.013672;1.185547;
451013;0.091797;0.025391;1.194336;
451233;0.091797;0.018555;1.195312;
451453;0.085938;0.017578;1.156250;
451673;0.089844;0.017578;1.142578;
451883;0.085938;0.021484;1.158203;
452103;0.085938;0.025391;1.162109;
452313;0.086914;0.020508;1.128906;
452533;0.083008;0.018555;1.083984;
452749;0.083008;0.025391;1.079102;
452979;0.083008;0.018555;1.078125;
453209;0.086914;0.016602;1.046875;
453439;0.080078;0.017578;1.048828;
453673;0.078125;0.018555;1.046875;
453893;0.077148;0.016602;1.044922;
454103;0.078125;0.021484;1.028320;
454323;0.081055;0.018555;1.045898;
454533;0.078125;0.018555;1.093750;
454753;0.078125;0.019531;1.162109;
454973;0.088867;0.018555;1.279297;
455193;0.095703;0.019531;1.420898;
455413;0.101562;0.014648;1.547852;
455623;0.108398;0.017578;1.661133;
455843;0.115234;0.012695;1.750000;
456063;0.125977;0.013672;1.839844;
456283;0.128906;0.014648;1.901367;
456505;0.128906;0.014648;1.929688;
456719;0.134766;0.015625;1.949219;
456929;0.132812;0.015625;1.959961;
457159;0.131836;0.013672;1.956055;
457373;0.130859;0.009766;1.922852;
457593;0.131836;0.012695;1.898438;
457813;0.128906;0.010742;1.886719;
458033;0.125000;0.008789;1.869141;
458243;0.125000;0.008789;1.871094;
458463;0.129883;0.015625;1.862305;
458683;0.129883;0.000977;1.885742;
458903;0.130859;0.004883;1.893555;
459123;0.126953;0.004883;1.889648;
459333;0.133789;0.014648;1.899414;
459553;0.127930;0.010742;1.905273;
459773;0.132812;0.018555;1.905273;
459993;0.126953;0.012695;1.881836;
460213;0.129883;0.011719;1.868164;
460419;0.131836;0.013672;1.872070;
460639;0.127930;0.015625;1.847656;
460849;0.129883;0.018555;1.841797;
461073;0.132812;0.017578;1.839844;
461293;0.133789;0.016602;1.846680;
461513;0.131836;0.017578;1.840820;
461733;0.134766;0.017578;1.869141;
461943;0.137695;0.021484;1.862305;
462163;0.132812;0.012695;1.865234;
462383;0.140625;0.009766;1.869141;
462603;0.139648;0.009766;1.869141;
462823;0.140625;0.010742;1.864258;
463043;0.139648;0.009766;1.848633;
463253;0.139648;0.002930;1.855469;
463463;0.141602;0.012695;1.848633;
463683;0.139648;0.019531;1.835938;
463903;0.137695;0.021484;1.835938;
464123;0.141602;0.014648;1.810547;
464329;0.144531;0.016602;1.819336;
464549;0.147461;0.012695;1.840820;
464763;0.149414;0.023438;1.851562;
464979;0.148438;0.016602;1.848633;
465199;0.149414;0.007812;1.841797;
465423;0.151367;-0.010742;1.829102;
465633;0.152344;-0.008789;1.846680;
465843;0.152344;-0.012695;1.827148;
466053;0.157227;0.004883;1.813477;
466273;0.151367;0.004883;1.819336;
466493;0.151367;0.008789;1.787109;
466713;0.155273;0.008789;1.794922;
466933;0.157227;0.013672;1.791992;
467143;0.159180;0.016602;1.807617;
467363;0.163086;0.013672;1.797852;
467583;0.166016;0.017578;1.837891;
467803;0.167969;0.014648;1.850586;
468023;0.170898;0.014648;1.856445;
468233;0.167969;0.008789;1.873047;
468449;0.178711;0.017578;1.868164;
468669;0.175781;0.016602;1.873047;
468889;0.174805;0.017578;1.852539;
469099;0.177734;0.009766;1.864258;
469323;0.177734;0.018555;1.847656;
469533;0.177734;0.015625;1.833008;
469753;0.180664;0.023438;1.836914;
469973;0.178711;0.013672;1.791992;
470193;0.180664;0.012695;1.761719;
470413;0.177734;0.018555;1.757812;
470633;0.176758;0.007812;1.736328;
470843;0.182617;0.009766;1.712891;
471063;0.186523;0.009766;1.751953;
471273;0.187500;0.008789;1.733398;
471493;0.189453;0.009766;1.740234;
471703;0.192383;0.018555;1.757812;
471913;0.195312;0.012695;1.747070;
472123;0.201172;0.011719;1.752930;
472329;0.201172;0.006836;1.737305;
472549;0.200195;0.013672;1.747070;
472769;0.204102;0.013672;1.736328;
472979;0.208008;0.021484;1.754883;
473209;0.208984;0.017578;1.747070;
473433;0.201172;0.024414;1.745117;
473653;0.200195;0.023438;1.761719;
473873;0.189453;0.029297;1.755859;
474093;0.179688;0.025391;1.746094;
474313;0.169922;0.037109;1.710938;
474523;0.154297;0.025391;1.641602;
474733;0.148438;0.029297;1.630859;
474953;0.135742;0.020508;1.543945;
475163;0.117188;0.018555;1.427734;
475383;0.090820;0.018555;1.260742;
475603;0.070312;0.018555;1.092773;
475813;0.041016;0.024414;0.869141;
476023;0.022461;0.017578;0.684570;
476243;0.019531;0.015625;0.544922;
476458;0.005859;0.015625;0.359375;
476681;0.003906;0.021484;0.285156;
476893;0.002930;0.026367;0.188477;
477099;0.000000;0.025391;0.124023;
477313;-0.000977;0.030273;0.084961;
477533;-0.000977;0.028320;0.065430;
477753;-0.001953;0.028320;0.043945;
477963;-0.003906;0.029297;0.029297;
478183;-0.003906;0.030273;0.035156;
478403;-0.002930;0.029297;0.044922;
478623;-0.002930;0.027344;0.047852;
478833;-0.005859;0.028320;0.058594;
479053;-0.009766;0.023438;0.051758;
479274;-0.002930;0.029297;0.066406;
479489;-0.010742;0.027344;0.046875;
479703;-0.010742;0.031250;0.041016;
479923;-0.006836;0.026367;0.025391;
480143;-0.009766;0.022461;0.007812;
480349;-0.005859;0.021484;0.027344;
480559;-0.004883;0.019531;0.026367;
480780;-0.011719;0.025391;0.027344;
480989;-0.011719;0.026367;0.032227;
481199;-0.017578;0.025391;0.000000;
481410;-0.032227;0.021484;0.034180;
481623;-0.010742;0.026367;0.047852;
481833;-0.009766;0.034180;0.048828;
482039;-0.013672;0.025391;0.036133;
482253;-0.010742;0.032227;0.041992;
482473;-0.012695;0.033203;0.048828;
482689;-0.015625;0.032227;0.035156;
482913;-0.014648;0.030273;0.043945;
483133;-0.014648;0.033203;0.036133;
483339;-0.014648;0.039062;0.029297;
483543;-0.015625;0.034180;0.034180;
483763;-0.013672;0.038086;0.020508;
483983;-0.015625;0.036133;0.022461;
484193;-0.016602;0.039062;0.010742;
484413;-0.014648;0.034180;0.021484;
484620;-0.015625;0.038086;0.017578;
484830;-0.014648;0.035156;0.010742;
485039;-0.014648;0.031250;0.022461;
485249;-0.015625;0.030273;0.013672;
485469;-0.014648;0.030273;0.010742;
485703;-0.017578;0.028320;0.006836;
485923;-0.012695;0.027344;0.017578;
486143;-0.017578;0.029297;0.016602;
486363;-0.015625;0.029297;0.019531;
486583;-0.016602;0.034180;0.014648;
486803;-0.019531;0.033203;0.014648;
487023;-0.017578;0.034180;0.023438;
487243;-0.016602;0.029297;0.023438;
487453;-0.018555;0.031250;0.022461;
487673;-0.017578;0.029297;0.026367;
487893;-0.016602;0.028320;0.028320;
488103;-0.016602;0.027344;0.029297;
488323;-0.016602;0.029297;0.025391;
488543;-0.018555;0.029297;0.021484;
488759;-0.016602;0.031250;0.030273;
488983;-0.019531;0.031250;0.027344;
489199;-0.017578;0.028320;0.023438;
489421;-0.020508;0.029297;0.023438;
489643;-0.019531;0.025391;0.023438;
489859;-0.021484;0.028320;0.016602;
490079;-0.018555;0.025391;0.018555;
490309;-0.020508;0.029297;0.012695;
490533;-0.020508;0.028320;0.016602;
490753;-0.019531;0.027344;0.013672;
490973;-0.019531;0.030273;0.013672;
491193;-0.019531;0.027344;0.009766;
491409;-0.020508;0.030273;0.012695;
491643;-0.020508;0.029297;0.009766;
491853;-0.021484;0.029297;0.007812;
492069;-0.021484;0.032227;0.009766;
492303;-0.023438;0.030273;0.001953;
492523;-0.023438;0.027344;0.005859;
492743;-0.022461;0.028320;0.006836;
492953;-0.023438;0.024414;0.001953;
493169;-0.022461;0.028320;0.000977;
493389;-0.023438;0.025391;-0.002930;
493609;-0.023438;0.029297;-0.001953;
493833;-0.024414;0.027344;-0.002930;
494042;-0.021484;0.024414;-0.005859;
494249;-0.024414;0.024414;0.009766;
494473;-0.023438;0.022461;-0.006836;
494693;-0.022461;0.026367;-0.002930;
494913;-0.024414;0.027344;-0.004883;
495123;-0.028320;0.028320;-0.007812;
495343;-0.034180;0.027344;-0.006836;
495563;-0.028320;0.025391;0.013672;
495783;-0.029297;0.022461;0.025391;
496003;-0.027344;0.023438;0.034180;
496223;-0.029297;0.024414;0.034180;
496443;-0.033203;0.023438;-0.011719;
496659;-0.029297;0.024414;0.049805;
496883;-0.028320;0.027344;0.052734;
497103;-0.029297;0.030273;0.054688;
497319;-0.031250;0.031250;0.057617;
497539;-0.031250;0.034180;0.050781;
497760;-0.032227;0.032227;0.044922;
497988;-0.033203;0.033203;0.041016;
498213;-0.038086;0.037109;0.048828;
498433;-0.037109;0.037109;0.029297;
498653;-0.038086;0.038086;0.021484;
498863;-0.032227;0.026367;0.029297;
499079;-0.037109;0.028320;0.000977;
499293;-0.037109;0.032227;0.008789;
499513;-0.038086;0.029297;-0.004883;
499733;-0.039062;0.032227;-0.005859;
499953;-0.042969;0.034180;-0.009766;
500173;-0.041992;0.034180;-0.005859;
500393;-0.041992;0.032227;-0.009766;
500603;-0.047852;0.032227;0.007812;
500823;-0.050781;0.034180;0.076172;
501043;-0.053711;0.029297;0.170898;
501259;-0.046875;0.031250;0.344727;
501479;-0.037109;0.027344;0.503906;
501699;-0.019531;0.036133;0.738281;
501919;-0.006836;0.028320;0.905273;
502129;0.006836;0.031250;1.097656;
502354;0.014648;0.031250;1.243164;
502573;0.030273;0.029297;1.368164;
502793;0.037109;0.030273;1.444336;
503013;0.048828;0.028320;1.502930;
503233;0.055664;0.025391;1.562500;
503443;0.062500;0.026367;1.629883;
503663;0.063477;0.024414;1.665039;
503883;0.059570;0.028320;1.726562;
504103;0.057617;0.033203;1.751953;
504323;0.055664;0.021484;1.770508;
504533;0.059570;0.015625;1.793945;
504753;0.055664;0.020508;1.803711;
504973;0.058594;0.025391;1.835938;
505183;0.051758;0.021484;1.841797;
505389;0.045898;0.028320;1.844727;
505619;0.051758;0.016602;1.838867;
505839;0.048828;0.023438;1.876953;
506059;0.045898;0.041016;1.894531;
506273;0.048828;0.032227;1.932617;
506493;0.049805;0.031250;1.936523;
506703;0.046875;0.034180;1.966797;
506913;0.049805;0.035156;1.944336;
507123;0.042969;0.018555;1.947266;
507343;0.042969;0.019531;1.937500;
507553;0.037109;0.024414;1.908203;
507763;0.039062;0.025391;1.893555;
507973;0.028320;0.023438;1.836914;
508183;0.018555;0.021484;1.783203;
508393;0.010742;0.022461;1.727539;
508613;0.000977;0.020508;1.673828;
508823;-0.004883;0.023438;1.627930;
509043;-0.010742;0.020508;1.601562;
509249;-0.013672;0.018555;1.606445;
509459;-0.012695;0.019531;1.619141;
509669;-0.015625;0.012695;1.644531;
509883;-0.008789;0.014648;1.701172;
510089;-0.006836;0.016602;1.744141;
510309;-0.001953;0.021484;1.777344;
510533;-0.001953;0.020508;1.811523;
510753;0.000000;0.017578;1.833008;
510963;0.002930;0.017578;1.847656;
511173;-0.000977;0.019531;1.857422;
511383;-0.000977;0.024414;1.833984;
511603;-0.004883;0.018555;1.830078;
511823;-0.004883;0.027344;1.830078;
512033;-0.004883;0.025391;1.815430;
512243;-0.009766;0.034180;1.818359;
512453;-0.013672;0.025391;1.821289;
512673;-0.013672;0.023438;1.816406;
512893;-0.014648;0.016602;1.819336;
513103;-0.013672;0.022461;1.830078;
513323;-0.012695;0.022461;1.838867;
513539;-0.017578;0.020508;1.837891;
513759;-0.017578;0.028320;1.845703;
513969;-0.017578;0.034180;1.850586;
514169;-0.020508;0.032227;1.852539;
514403;-0.019531;0.035156;1.857422;
514623;-0.018555;0.028320;1.850586;
514833;-0.024414;0.020508;1.815430;
515053;-0.030273;0.021484;1.755859;
515273;-0.034180;0.021484;1.699219;
515483;-0.041992;0.017578;1.644531;
515703;-0.044922;0.016602;1.595703;
515913;-0.049805;0.013672;1.553711;
516123;-0.052734;0.010742;1.507812;
516333;-0.058594;0.013672;1.489258;
516553;-0.058594;0.015625;1.471680;
516773;-0.059570;0.017578;1.464844;
516983;-0.061523;0.025391;1.463867;
517193;-0.063477;0.019531;1.458984;
517409;-0.064453;0.026367;1.465820;
517630;-0.061523;0.024414;1.473633;
517839;-0.063477;0.024414;1.490234;
518059;-0.060547;0.022461;1.504883;
518283;-0.058594;0.027344;1.553711;
518503;-0.053711;0.024414;1.589844;
518713;-0.051758;0.019531;1.628906;
518933;-0.048828;0.020508;1.664062;
519153;-0.043945;0.022461;1.700195;
519363;-0.045898;0.022461;1.716797;
519583;-0.042969;0.022461;1.736328;
519793;-0.040039;0.024414;1.745117;
520013;-0.041016;0.020508;1.741211;
520223;-0.044922;0.015625;1.726562;
520433;-0.045898;0.018555;1.702148;
520653;-0.044922;0.019531;1.681641;
520873;-0.050781;0.021484;1.647461;
521083;-0.051758;0.025391;1.619141;
521299;-0.055664;0.025391;1.575195;
521529;-0.059570;0.028320;1.556641;
521759;-0.064453;0.025391;1.520508;
521983;-0.062500;0.024414;1.509766;
522203;-0.064453;0.024414;1.485352;
522423;-0.065430;0.023438;1.477539;
522633;-0.066406;0.026367;1.480469;
522843;-0.064453;0.027344;1.470703;
523053;-0.065430;0.023438;1.476562;
523263;-0.066406;0.017578;1.458984;
523483;-0.068359;0.022461;1.426758;
523703;-0.070312;0.022461;1.416016;
523913;-0.071289;0.023438;1.356445;
524133;-0.076172;0.018555;1.301758;
524343;-0.075195;0.020508;1.282227;
524553;-0.076172;0.025391;1.261719;
524773;-0.077148;0.030273;1.233398;
524989;-0.081055;0.029297;1.189453;
525219;-0.080078;0.029297;1.170898;
525439;-0.082031;0.022461;1.141602;
525659;-0.083008;0.027344;1.117188;
525883;-0.083984;0.029297;1.110352;
526103;-0.085938;0.028320;1.102539;
526323;-0.088867;0.021484;1.085938;
526533;-0.086914;0.024414;1.083984;
526753;-0.087891;0.021484;1.077148;
526963;-0.087891;0.024414;1.065430;
527183;-0.087891;0.028320;1.052734;
527403;-0.086914;0.020508;1.041016;
527623;-0.087891;0.023438;1.031250;
527833;-0.088867;0.022461;1.030273;
528043;-0.092773;0.026367;1.035156;
528253;-0.088867;0.022461;1.020508;
528473;-0.085938;0.029297;1.032227;
528693;-0.089844;0.027344;1.027344;
528899;-0.087891;0.029297;1.036133;
529109;-0.086914;0.021484;1.036133;
529329;-0.087891;0.028320;1.044922;
529563;-0.085938;0.026367;1.057617;
529783;-0.088867;0.021484;1.049805;
530003;-0.086914;0.023438;1.069336;
530213;-0.084961;0.025391;1.077148;
530433;-0.084961;0.025391;1.105469;
530653;-0.083008;0.026367;1.111328;
530863;-0.082031;0.026367;1.122070;
531083;-0.081055;0.026367;1.132812;
531293;-0.083984;0.023438;1.128906;
531513;-0.081055;0.026367;1.150391;
531723;-0.078125;0.021484;1.151367;
531943;-0.076172;0.025391;1.174805;
532153;-0.077148;0.024414;1.162109;
532373;-0.075195;0.017578;1.165039;
532579;-0.071289;0.018555;1.179688;
532799;-0.069336;0.020508;1.202148;
533023;-0.068359;0.020508;1.216797;
533242;-0.065430;0.021484;1.230469;
533450;-0.062500;0.022461;1.236328;
533659;-0.060547;0.018555;1.245117;
533893;-0.053711;0.019531;1.252930;
534103;-0.052734;0.019531;1.226562;
534323;-0.049805;0.018555;1.199219;
534533;-0.045898;0.025391;1.159180;
534743;-0.042969;0.023438;1.135742;
534963;-0.033203;0.022461;1.075195;
535183;-0.034180;0.020508;1.053711;
535403;-0.028320;0.025391;1.028320;
535613;-0.029297;0.025391;1.008789;
535823;-0.030273;0.027344;0.991211;
536043;-0.028320;0.023438;0.978516;
536263;-0.028320;0.026367;0.963867;
536483;-0.025391;0.029297;0.958984;
536703;-0.022461;0.027344;0.929688;
536929;-0.021484;0.021484;0.890625;
537148;-0.014648;0.020508;0.885742;
537359;-0.017578;0.022461;0.856445;
537569;-0.016602;0.022461;0.855469;
537793;-0.018555;0.025391;0.859375;
538013;-0.019531;0.021484;0.860352;
538233;-0.022461;0.022461;0.868164;
538443;-0.023438;0.025391;0.877930;
538664;-0.024414;0.018555;0.883789;
538883;-0.024414;0.020508;0.889648;
539103;-0.020508;0.021484;0.897461;
539323;-0.019531;0.025391;0.913086;
539543;-0.019531;0.029297;0.917969;
539753;-0.015625;0.026367;0.910156;
539973;-0.016602;0.024414;0.916992;
540193;-0.020508;0.027344;0.929688;
540413;-0.016602;0.024414;0.947266;
540623;-0.018555;0.020508;0.964844;
540829;-0.018555;0.028320;0.989258;
541049;-0.015625;0.025391;1.007812;
541259;-0.008789;0.031250;1.017578;
541469;-0.002930;0.026367;1.022461;
541679;-0.000977;0.026367;1.039062;
541903;-0.000977;0.020508;1.052734;
542113;-0.000977;0.024414;1.064453;
542323;-0.002930;0.017578;1.078125;
542533;-0.001953;0.022461;1.115234;
542753;0.000000;0.019531;1.165039;
542973;0.005859;0.019531;1.223633;
543193;0.007812;0.022461;1.260742;
543403;0.007812;0.019531;1.288086;
543623;0.008789;0.025391;1.302734;
543843;0.008789;0.018555;1.322266;
544063;0.011719;0.023438;1.330078;
544283;0.010742;0.022461;1.309570;
544503;0.005859;0.024414;1.292969;
544725;0.008789;0.022461;1.280273;
544949;0.004883;0.025391;1.246094;
545169;0.002930;0.021484;1.228516;
545389;0.003906;0.026367;1.208984;
545599;0.001953;0.022461;1.200195;
545823;0.005859;0.026367;1.184570;
546043;0.001953;0.029297;1.164062;
546253;0.001953;0.026367;1.166016;
546463;0.000000;0.025391;1.144531;
546673;0.003906;0.021484;1.153320;
546893;0.002930;0.026367;1.152344;
547113;0.000000;0.023438;1.145508;
547323;0.000000;0.026367;1.141602;
547543;0.000977;0.021484;1.118164;
547749;-0.002930;0.025391;1.088867;
547963;-0.002930;0.022461;1.048828;
548183;-0.005859;0.023438;0.985352;
548399;-0.007812;0.024414;0.935547;
548613;-0.010742;0.025391;0.909180;
548819;-0.012695;0.025391;0.885742;
549039;-0.011719;0.027344;0.875977;
549259;-0.012695;0.031250;0.872070;
549489;-0.011719;0.027344;0.866211;
549719;-0.009766;0.029297;0.872070;
549929;-0.010742;0.025391;0.878906;
550139;-0.011719;0.030273;0.890625;
550369;-0.006836;0.025391;0.895508;
550589;-0.006836;0.028320;0.915039;
550803;-0.010742;0.027344;0.918945;
551023;-0.009766;0.024414;0.925781;
551239;-0.012695;0.027344;0.918945;
551463;-0.009766;0.027344;0.930664;
551683;-0.004883;0.020508;0.938477;
551889;-0.008789;0.018555;0.956055;
552113;-0.012695;0.028320;0.961914;
552323;-0.008789;0.023438;0.979492;
552529;-0.005859;0.023438;1.007812;
552739;0.000000;0.022461;1.043945;
552973;0.000000;0.022461;1.059570;
553193;-0.000977;0.023438;1.074219;
553409;0.004883;0.017578;1.085938;
553619;0.005859;0.023438;1.100586;
553849;0.007812;0.021484;1.129883;
554069;0.005859;0.028320;1.136719;
554288;0.011719;0.027344;1.161133;
554519;0.010742;0.023438;1.164062;
554743;0.008789;0.027344;1.159180;
554963;0.009766;0.026367;1.149414;
555179;0.007812;0.026367;1.137695;
555393;0.011719;0.028320;1.135742;
555603;0.010742;0.026367;1.125977;
555809;0.007812;0.024414;1.113281;
556033;0.006836;0.021484;1.112305;
556253;0.003906;0.026367;1.099609;
556470;0.002930;0.025391;1.098633;
556693;0.000000;0.019531;1.068359;
556913;0.000000;0.020508;1.035156;
557119;-0.003906;0.025391;1.017578;
557343;-0.003906;0.028320;0.992188;
557563;-0.009766;0.024414;0.949219;
557779;-0.009766;0.034180;0.926758;
557989;-0.008789;0.024414;0.895508;
558209;-0.009766;0.031250;0.881836;
558439;-0.009766;0.029297;0.864258;
558660;-0.007812;0.028320;0.846680;
558879;-0.008789;0.026367;0.843750;
559100;-0.010742;0.025391;0.851562;
559329;-0.008789;0.026367;0.863281;
559543;-0.006836;0.028320;0.884766;
559753;-0.007812;0.022461;0.903320;
559969;-0.008789;0.025391;0.924805;
560169;-0.005859;0.026367;0.951172;
560379;-0.002930;0.024414;0.962891;
560603;-0.006836;0.026367;0.965820;
560823;-0.008789;0.025391;0.982422;
561039;-0.011719;0.025391;0.993164;
561263;-0.006836;0.029297;1.018555;
561483;-0.001953;0.029297;1.036133;
561703;-0.003906;0.028320;1.041992;
561909;-0.006836;0.031250;1.059570;
562115;-0.004883;0.027344;1.071289;
562339;-0.001953;0.024414;1.086914;
562571;-0.000977;0.024414;1.103516;
562789;0.000000;0.023438;1.108398;
563010;0.000977;0.028320;1.111328;
563239;0.001953;0.022461;1.111328;
563473;0.000000;0.026367;1.106445;
563690;0.000977;0.031250;1.100586;
563903;-0.000977;0.029297;1.095703;
564113;-0.001953;0.033203;1.102539;
564323;-0.000977;0.026367;1.102539;
564540;0.000977;0.025391;1.093750;
564763;0.000977;0.027344;1.087891;
564983;-0.004883;0.027344;1.072266;
565193;-0.005859;0.027344;1.071289;
565399;-0.002930;0.027344;1.062500;
565623;-0.000977;0.024414;1.049805;
565843;-0.001953;0.023438;1.039062;
566062;-0.005859;0.022461;1.028320;
566270;-0.004883;0.025391;1.015625;
566479;-0.006836;0.024414;1.009766;
566691;-0.005859;0.025391;1.006836;
566908;-0.003906;0.024414;1.011719;
567139;-0.003906;0.019531;1.027344;
567373;-0.006836;0.024414;1.028320;
567589;-0.006836;0.028320;1.046875;
567803;-0.007812;0.027344;1.030273;
568023;-0.007812;0.025391;1.039062;
568243;-0.005859;0.022461;1.026367;
568463;-0.004883;0.030273;1.038086;
568673;-0.006836;0.027344;1.023438;
568893;-0.005859;0.022461;1.006836;
569110;-0.004883;0.021484;0.997070;
569323;-0.005859;0.023438;0.996094;
569543;-0.005859;0.027344;0.997070;
569763;-0.004883;0.020508;1.008789;
569988;-0.007812;0.027344;1.014648;
570203;-0.006836;0.026367;1.032227;
570419;-0.007812;0.025391;1.027344;
570639;-0.005859;0.027344;1.021484;
570869;-0.006836;0.027344;1.006836;
571091;-0.007812;0.024414;1.009766;
571299;-0.007812;0.024414;1.001953;
571509;-0.003906;0.025391;1.020508;
571729;-0.004883;0.022461;1.034180;
571953;-0.001953;0.024414;1.047852;
572159;0.000000;0.026367;1.069336;
572369;-0.001953;0.030273;1.083984;
572579;-0.003906;0.028320;1.101562;
572793;-0.001953;0.030273;1.098633;
