Time;acc_x;acc_y;acc_z;

162797;-0.083984;0.018555;1.142578;
163014;-0.077148;0.023438;1.179688;
163164;-0.078125;0.023438;1.194336;
163304;-0.077148;0.020508;1.202148;
163444;-0.078125;0.019531;1.207031;
163584;-0.077148;0.024414;1.205078;
163724;-0.080078;0.024414;1.196289;
163864;-0.080078;0.024414;1.190430;
164004;-0.077148;0.021484;1.189453;
164144;-0.080078;0.025391;1.174805;
164284;-0.081055;0.027344;1.171875;
164424;-0.080078;0.025391;1.169922;
164564;-0.080078;0.027344;1.153320;
164704;-0.080078;0.025391;1.154297;
164844;-0.081055;0.024414;1.152344;
164984;-0.082031;0.021484;1.152344;
165124;-0.081055;0.021484;1.139648;
165264;-0.084961;0.017578;1.140625;
165400;-0.083008;0.019531;1.137695;
165550;-0.081055;0.016602;1.140625;
165690;-0.083008;0.016602;1.136719;
165840;-0.083984;0.011719;1.136719;
165990;-0.078125;0.016602;1.144531;
166130;-0.080078;0.012695;1.134766;
166274;-0.083008;0.013672;1.134766;
166424;-0.080078;0.016602;1.135742;
166560;-0.082031;0.016602;1.132812;
166714;-0.082031;0.018555;1.136719;
166864;-0.077148;0.018555;1.146484;
167004;-0.083008;0.019531;1.133789;
167144;-0.082031;0.017578;1.131836;
167284;-0.078125;0.021484;1.142578;
167424;-0.081055;0.020508;1.140625;
167574;-0.079102;0.017578;1.140625;
167714;-0.080078;0.019531;1.153320;
167854;-0.080078;0.021484;1.144531;
167994;-0.079102;0.018555;1.147461;
168134;-0.080078;0.019531;1.159180;
168269;-0.080078;0.018555;1.155273;
168421;-0.079102;0.019531;1.152344;
168573;-0.077148;0.019531;1.153320;
168700;-0.081055;0.016602;1.135742;
168840;-0.080078;0.021484;1.122070;
168980;-0.081055;0.018555;1.118164;
169130;-0.083008;0.018555;1.094727;
169284;-0.082031;0.017578;1.090820;
169424;-0.082031;0.016602;1.081055;
169564;-0.083984;0.020508;1.068359;
169704;-0.084961;0.014648;1.062500;
169844;-0.083008;0.021484;1.070312;
169984;-0.083984;0.019531;1.065430;
170134;-0.085938;0.021484;1.059570;
170274;-0.081055;0.023438;1.059570;
170414;-0.083008;0.021484;1.060547;
170554;-0.083984;0.019531;1.050781;
170694;-0.084961;0.018555;1.042969;
170834;-0.085938;0.025391;1.041016;
170974;-0.085938;0.018555;1.037109;
171124;-0.086914;0.021484;1.036133;
171250;-0.083984;0.025391;1.032227;
171400;-0.083984;0.022461;1.035156;
171550;-0.088867;0.020508;1.036133;
171700;-0.085938;0.018555;1.048828;
171850;-0.084961;0.020508;1.069336;
172004;-0.081055;0.022461;1.084961;
172144;-0.085938;0.018555;1.104492;
172284;-0.079102;0.020508;1.126953;
172424;-0.081055;0.020508;1.129883;
172564;-0.078125;0.026367;1.160156;
172704;-0.075195;0.024414;1.183594;
172844;-0.075195;0.021484;1.201172;
172994;-0.072266;0.022461;1.237305;
173134;-0.074219;0.019531;1.252930;
173274;-0.069336;0.018555;1.272461;
173424;-0.067383;0.019531;1.287109;
173564;-0.064453;0.018555;1.302734;
173704;-0.064453;0.019531;1.318359;
173844;-0.065430;0.019531;1.330078;
173980;-0.063477;0.020508;1.335938;
174134;-0.062500;0.021484;1.336914;
174274;-0.063477;0.015625;1.336914;
174410;-0.061523;0.019531;1.332031;
174560;-0.061523;0.017578;1.328125;
174690;-0.064453;0.019531;1.325195;
174830;-0.063477;0.021484;1.316406;
174971;-0.069336;0.014648;1.291992;
175115;-0.066406;0.026367;1.277344;
175264;-0.068359;0.024414;1.264648;
175404;-0.071289;0.020508;1.235352;
175544;-0.068359;0.026367;1.221680;
175694;-0.072266;0.020508;1.201172;
175834;-0.072266;0.020508;1.173828;
175974;-0.074219;0.027344;1.170898;
176124;-0.072266;0.024414;1.155273;
176264;-0.074219;0.020508;1.131836;
176404;-0.077148;0.024414;1.121094;
176544;-0.075195;0.020508;1.110352;
176684;-0.077148;0.020508;1.094727;
176824;-0.079102;0.015625;1.083984;
176964;-0.077148;0.018555;1.071289;
177100;-0.079102;0.015625;1.061523;
177240;-0.081055;0.019531;1.047852;
177389;-0.081055;0.022461;1.046875;
177540;-0.078125;0.016602;1.030273;
177674;-0.081055;0.019531;1.025391;
177810;-0.080078;0.017578;1.012695;
177960;-0.083008;0.021484;1.004883;
178104;-0.083008;0.017578;1.000000;
178244;-0.082031;0.021484;0.995117;
178384;-0.083008;0.022461;0.991211;
178524;-0.082031;0.026367;0.991211;
178664;-0.083984;0.026367;0.980469;
178804;-0.082031;0.025391;0.983398;
178944;-0.083008;0.030273;0.985352;
179084;-0.082031;0.024414;0.970703;
179224;-0.080078;0.028320;0.991211;
179364;-0.080078;0.025391;0.984375;
179504;-0.080078;0.025391;0.995117;
179644;-0.081055;0.026367;1.009766;
179784;-0.081055;0.028320;1.011719;
179924;-0.078125;0.030273;1.041992;
180060;-0.077148;0.028320;1.052734;
180214;-0.079102;0.023438;1.068359;
180360;-0.074219;0.024414;1.092773;
180500;-0.074219;0.022461;1.095703;
180641;-0.077148;0.018555;1.098633;
180790;-0.073242;0.019531;1.117188;
180944;-0.073242;0.024414;1.130859;
181084;-0.071289;0.017578;1.115234;
181224;-0.069336;0.020508;1.122070;
181364;-0.071289;0.018555;1.127930;
181504;-0.070312;0.013672;1.119141;
181644;-0.066406;0.016602;1.119141;
181784;-0.071289;0.016602;1.114258;
181924;-0.067383;0.016602;1.108398;
182064;-0.064453;0.017578;1.117188;
182214;-0.067383;0.021484;1.119141;
182354;-0.064453;0.016602;1.114258;
182494;-0.061523;0.017578;1.121094;
182644;-0.062500;0.016602;1.123047;
182784;-0.062500;0.018555;1.130859;
182924;-0.058594;0.020508;1.129883;
183070;-0.058594;0.018555;1.136719;
183222;-0.058594;0.023438;1.144531;
183370;-0.054688;0.021484;1.141602;
183520;-0.051758;0.020508;1.146484;
183674;-0.048828;0.016602;1.150391;
183814;-0.044922;0.023438;1.150391;
183954;-0.041992;0.020508;1.161133;
184094;-0.040039;0.020508;1.155273;
184234;-0.032227;0.021484;1.159180;
184374;-0.028320;0.025391;1.144531;
184514;-0.028320;0.023438;1.153320;
184654;-0.018555;0.026367;1.144531;
184794;-0.016602;0.029297;1.123047;
184934;-0.009766;0.024414;1.106445;
185074;-0.004883;0.025391;1.084961;
185214;0.000977;0.025391;1.070312;
185354;0.004883;0.023438;1.041992;
185494;0.015625;0.031250;1.039062;
185630;0.018555;0.024414;1.031250;
185780;0.023438;0.024414;1.007812;
185930;0.028320;0.025391;1.006836;
186080;0.028320;0.018555;0.998047;
186233;0.032227;0.022461;0.998047;
186374;0.034180;0.024414;1.000977;
186520;0.036133;0.020508;0.990234;
186674;0.039062;0.021484;1.002930;
186814;0.041016;0.014648;1.002930;
186954;0.044922;0.014648;1.013672;
187094;0.043945;0.016602;1.002930;
187234;0.045898;0.012695;1.012695;
187384;0.048828;0.013672;1.015625;
187524;0.049805;0.015625;1.018555;
187664;0.050781;0.018555;1.022461;
187804;0.051758;0.014648;1.015625;
187944;0.049805;0.012695;1.009766;
188084;0.047852;0.014648;1.008789;
188224;0.047852;0.017578;0.993164;
188374;0.046875;0.017578;0.996094;
188514;0.048828;0.019531;0.981445;
188650;0.045898;0.010742;0.965820;
188791;0.045898;0.019531;0.948242;
188940;0.043945;0.017578;0.940430;
189091;0.043945;0.014648;0.928711;
189244;0.042969;0.016602;0.929688;
189380;0.041016;0.019531;0.929688;
189534;0.041016;0.017578;0.940430;
189674;0.041016;0.017578;0.954102;
189814;0.042969;0.018555;0.961914;
189954;0.042969;0.014648;0.976562;
190094;0.041992;0.015625;0.986328;
190244;0.048828;0.016602;1.014648;
190384;0.049805;0.020508;1.024414;
190524;0.054688;0.018555;1.042969;
190674;0.053711;0.018555;1.043945;
190814;0.056641;0.016602;1.038086;
190964;0.056641;0.018555;1.049805;
191104;0.058594;0.015625;1.049805;
191244;0.059570;0.016602;1.057617;
191394;0.057617;0.016602;1.063477;
191531;0.053711;0.017578;1.063477;
191680;0.053711;0.017578;1.066406;
191830;0.053711;0.013672;1.051758;
191980;0.050781;0.015625;1.047852;
192130;0.050781;0.017578;1.054688;
192274;0.047852;0.017578;1.040039;
192414;0.046875;0.017578;1.041016;
192554;0.048828;0.012695;1.047852;
192694;0.050781;0.016602;1.034180;
192834;0.049805;0.020508;1.035156;
192974;0.049805;0.022461;1.028320;
193114;0.049805;0.023438;1.018555;
193254;0.047852;0.017578;1.017578;
193394;0.048828;0.016602;1.008789;
193534;0.048828;0.020508;1.014648;
193674;0.048828;0.021484;1.016602;
193814;0.048828;0.018555;1.010742;
193954;0.045898;0.022461;1.013672;
194094;0.046875;0.019531;1.020508;
194230;0.048828;0.018555;1.021484;
194361;0.047852;0.022461;1.018555;
194510;0.045898;0.017578;1.005859;
194650;0.045898;0.014648;1.005859;
194790;0.047852;0.022461;1.002930;
194931;0.048828;0.018555;1.018555;
195084;0.047852;0.017578;1.014648;
195234;0.048828;0.019531;1.016602;
195374;0.050781;0.017578;1.006836;
195514;0.045898;0.017578;1.003906;
195654;0.049805;0.019531;1.007812;
195794;0.047852;0.014648;1.016602;
195934;0.045898;0.019531;1.005859;
196074;0.045898;0.020508;1.002930;
196215;0.044922;0.014648;1.000000;
196364;0.044922;0.018555;1.001953;
196504;0.047852;0.015625;1.003906;
196644;0.046875;0.015625;1.009766;
196794;0.045898;0.014648;1.000977;
196934;0.043945;0.021484;1.008789;
197070;0.043945;0.018555;1.008789;
197210;0.045898;0.019531;1.017578;
197350;0.045898;0.020508;1.025391;
197500;0.046875;0.015625;1.028320;
197650;0.047852;0.019531;1.033203;
197800;0.045898;0.022461;1.043945;
197954;0.046875;0.020508;1.032227;
198094;0.046875;0.026367;1.041016;
198234;0.043945;0.020508;1.039062;
198374;0.046875;0.023438;1.047852;
198514;0.047852;0.026367;1.036133;
198654;0.045898;0.026367;1.063477;
198794;0.047852;0.020508;1.054688;
198934;0.044922;0.020508;1.052734;
199074;0.047852;0.019531;1.057617;
199214;0.045898;0.017578;1.062500;
199354;0.048828;0.020508;1.065430;
199494;0.050781;0.014648;1.074219;
199634;0.048828;0.016602;1.084961;
199774;0.048828;0.017578;1.078125;
199910;0.046875;0.019531;1.088867;
200060;0.047852;0.013672;1.082031;
200191;0.046875;0.018555;1.091797;
200340;0.047852;0.013672;1.088867;
200480;0.047852;0.016602;1.095703;
200610;0.048828;0.015625;1.088867;
200764;0.044922;0.016602;1.096680;
200905;0.048828;0.020508;1.101562;
201044;0.049805;0.016602;1.108398;
201184;0.048828;0.015625;1.094727;
201324;0.049805;0.020508;1.102539;
201464;0.046875;0.012695;1.096680;
201604;0.048828;0.018555;1.098633;
201744;0.045898;0.022461;1.084961;
201894;0.044922;0.016602;1.083008;
202034;0.045898;0.011719;1.078125;
202174;0.044922;0.019531;1.055664;
202314;0.043945;0.018555;1.062500;
202454;0.039062;0.013672;1.052734;
202594;0.042969;0.017578;1.027344;
202731;0.037109;0.020508;1.023438;
202880;0.040039;0.015625;1.003906;
203030;0.041016;0.020508;1.007812;
203164;0.039062;0.017578;0.982422;
203301;0.040039;0.018555;0.982422;
203430;0.041992;0.018555;0.982422;
203580;0.040039;0.017578;0.966797;
203730;0.038086;0.018555;0.965820;
203884;0.039062;0.013672;0.950195;
204024;0.036133;0.021484;0.948242;
204164;0.037109;0.018555;0.946289;
204304;0.037109;0.015625;0.935547;
204444;0.035156;0.017578;0.944336;
204584;0.038086;0.016602;0.938477;
204724;0.036133;0.015625;0.946289;
204864;0.036133;0.016602;0.951172;
205004;0.038086;0.017578;0.960938;
205144;0.039062;0.017578;0.971680;
205284;0.039062;0.016602;0.991211;
205424;0.041992;0.013672;0.996094;
205564;0.037109;0.013672;1.009766;
205704;0.040039;0.010742;1.027344;
205840;0.043945;0.018555;1.042969;
205990;0.044922;0.016602;1.062500;
206144;0.042969;0.021484;1.061523;
206281;0.044922;0.021484;1.081055;
206430;0.041992;0.018555;1.069336;
206580;0.041992;0.014648;1.083008;
206724;0.044922;0.019531;1.091797;
206874;0.041992;0.017578;1.089844;
207014;0.040039;0.015625;1.092773;
207155;0.034180;0.019531;1.087891;
207294;0.029297;0.014648;1.080078;
207434;0.028320;0.015625;1.073242;
207574;0.033203;0.015625;1.078125;
207714;0.031250;0.015625;1.067383;
207854;0.029297;0.016602;1.072266;
207994;0.026367;0.016602;1.056641;
208134;0.027344;0.015625;1.057617;
208274;0.022461;0.019531;1.039062;
208414;0.020508;0.021484;1.029297;
208554;0.019531;0.016602;1.029297;
208692;0.020508;0.022461;1.023438;
208840;0.018555;0.019531;1.026367;
208994;0.015625;0.023438;1.028320;
209150;0.014648;0.021484;1.015625;
209300;0.013672;0.019531;1.004883;
209454;0.012695;0.024414;1.012695;
209594;0.013672;0.018555;1.010742;
209734;0.009766;0.022461;1.011719;
209874;0.008789;0.021484;1.013672;
210014;0.007812;0.016602;1.012695;
210154;0.008789;0.019531;1.006836;
210294;0.008789;0.011719;1.001953;
210434;0.004883;0.020508;1.000000;
210575;0.004883;0.013672;0.993164;
210714;0.002930;0.019531;1.000977;
210854;0.006836;0.016602;0.993164;
211004;0.002930;0.017578;0.972656;
211144;0.001953;0.015625;0.973633;
211284;0.002930;0.013672;0.955078;
211430;0.001953;0.017578;0.956055;
211570;0.000977;0.020508;0.961914;
211710;0.000000;0.017578;0.945312;
211860;-0.000977;0.021484;0.942383;
212011;-0.003906;0.020508;0.945312;
212164;-0.004883;0.020508;0.946289;
212304;-0.008789;0.018555;0.929688;
212444;-0.008789;0.022461;0.934570;
212584;-0.004883;0.014648;0.937500;
212724;-0.007812;0.016602;0.936523;
212864;-0.013672;0.013672;0.925781;
213004;-0.013672;0.016602;0.931641;
213144;-0.012695;0.016602;0.957031;
213284;-0.012695;0.017578;0.968750;
213424;-0.009766;0.014648;0.997070;
213564;-0.011719;0.017578;1.000977;
213704;-0.011719;0.017578;1.005859;
213844;-0.012695;0.016602;1.010742;
213984;-0.013672;0.013672;1.015625;
214134;-0.006836;0.019531;1.036133;
214270;-0.007812;0.019531;1.044922;
214420;-0.005859;0.018555;1.049805;
214570;-0.004883;0.016602;1.053711;
214714;-0.005859;0.019531;1.045898;
214850;-0.006836;0.023438;1.050781;
214980;-0.003906;0.024414;1.056641;
215130;-0.006836;0.020508;1.040039;
215284;-0.007812;0.020508;1.041016;
215424;-0.006836;0.019531;1.041016;
215574;-0.003906;0.022461;1.062500;
215714;-0.005859;0.017578;1.079102;
215854;-0.004883;0.017578;1.085938;
215994;-0.003906;0.016602;1.089844;
216134;-0.003906;0.021484;1.099609;
216274;-0.001953;0.014648;1.119141;
216414;-0.000977;0.015625;1.120117;
216554;-0.003906;0.016602;1.121094;
216694;-0.003906;0.016602;1.124023;
216834;0.000000;0.020508;1.141602;
216974;-0.003906;0.020508;1.128906;
217115;-0.001953;0.017578;1.126953;
217250;-0.002930;0.020508;1.123047;
217400;-0.009766;0.018555;1.102539;
217550;-0.011719;0.021484;1.095703;
217680;-0.018555;0.013672;1.073242;
217830;-0.014648;0.021484;1.075195;
217964;-0.018555;0.017578;1.047852;
218100;-0.018555;0.018555;1.053711;
218240;-0.020508;0.016602;1.034180;
218394;-0.017578;0.019531;1.032227;
218544;-0.017578;0.015625;1.016602;
218684;-0.021484;0.018555;1.015625;
218824;-0.019531;0.015625;1.012695;
218964;-0.019531;0.019531;0.998047;
219104;-0.019531;0.015625;0.996094;
219244;-0.023438;0.024414;0.993164;
219384;-0.020508;0.022461;0.990234;
219525;-0.021484;0.023438;0.984375;
219664;-0.022461;0.024414;0.984375;
219804;-0.024414;0.021484;0.975586;
219944;-0.025391;0.022461;0.995117;
220084;-0.030273;0.022461;0.996094;
220224;-0.029297;0.024414;1.000977;
220360;-0.030273;0.021484;0.994141;
220490;-0.028320;0.018555;1.004883;
220623;-0.028320;0.017578;1.000000;
220770;-0.031250;0.014648;0.994141;
220910;-0.029297;0.017578;1.000977;
221061;-0.031250;0.015625;0.999023;
221210;-0.030273;0.022461;1.005859;
221344;-0.030273;0.020508;0.996094;
221484;-0.035156;0.015625;0.980469;
221624;-0.034180;0.019531;0.986328;
221764;-0.036133;0.020508;0.977539;
221904;-0.036133;0.023438;0.970703;
222044;-0.038086;0.025391;0.972656;
222184;-0.039062;0.029297;0.982422;
222334;-0.034180;0.027344;0.990234;
222474;-0.036133;0.028320;0.992188;
222614;-0.039062;0.029297;0.991211;
222764;-0.034180;0.029297;0.998047;
222904;-0.037109;0.029297;0.989258;
223044;-0.036133;0.025391;1.012695;
223194;-0.037109;0.026367;1.006836;
223330;-0.036133;0.026367;1.026367;
223480;-0.035156;0.025391;1.020508;
223630;-0.036133;0.024414;1.034180;
223780;-0.034180;0.017578;1.033203;
223930;-0.034180;0.019531;1.030273;
224084;-0.034180;0.017578;1.032227;
224224;-0.037109;0.015625;1.028320;
224364;-0.036133;0.015625;1.018555;
224504;-0.034180;0.017578;1.006836;
224640;-0.038086;0.019531;0.999023;
224794;-0.036133;0.017578;0.987305;
224934;-0.040039;0.016602;0.972656;
225074;-0.037109;0.018555;0.964844;
225221;-0.039062;0.022461;0.959961;
225364;-0.035156;0.015625;0.963867;
225504;-0.038086;0.018555;0.976562;
225644;-0.038086;0.015625;0.984375;
225796;-0.034180;0.024414;1.011719;
225934;-0.037109;0.017578;1.015625;
226070;-0.035156;0.020508;1.026367;
226221;-0.034180;0.019531;1.032227;
226370;-0.036133;0.017578;1.050781;
226520;-0.034180;0.022461;1.061523;
226670;-0.033203;0.013672;1.110352;
226811;-0.031250;0.017578;1.113281;
226950;-0.028320;0.017578;1.155273;
227104;-0.028320;0.014648;1.160156;
227254;-0.023438;0.015625;1.193359;
227394;-0.023438;0.012695;1.197266;
227540;-0.025391;0.014648;1.232422;
227694;-0.021484;0.015625;1.229492;
227844;-0.021484;0.015625;1.250977;
227984;-0.020508;0.012695;1.232422;
228136;-0.022461;0.016602;1.228516;
228279;-0.020508;0.017578;1.221680;
228424;-0.025391;0.013672;1.220703;
228565;-0.021484;0.017578;1.203125;
228704;-0.026367;0.018555;1.184570;
228854;-0.024414;0.015625;1.155273;
228990;-0.027344;0.020508;1.142578;
229144;-0.027344;0.015625;1.132812;
229281;-0.027344;0.014648;1.115234;
229420;-0.027344;0.016602;1.111328;
229571;-0.029297;0.017578;1.086914;
229730;-0.031250;0.013672;1.078125;
229882;-0.028320;0.019531;1.072266;
230030;-0.032227;0.024414;1.058594;
230180;-0.033203;0.016602;1.048828;
230320;-0.028320;0.017578;1.045898;
230474;-0.034180;0.015625;1.038086;
230610;-0.032227;0.018555;1.041016;
230754;-0.033203;0.020508;1.030273;
230894;-0.030273;0.022461;1.033203;
231044;-0.035156;0.018555;1.038086;
231184;-0.033203;0.020508;1.040039;
231324;-0.032227;0.015625;1.041992;
231474;-0.030273;0.016602;1.046875;
231614;-0.031250;0.018555;1.056641;
231754;-0.029297;0.014648;1.069336;
231904;-0.031250;0.018555;1.069336;
232044;-0.030273;0.014648;1.070312;
232184;-0.031250;0.017578;1.072266;
232324;-0.031250;0.013672;1.062500;
232460;-0.028320;0.017578;1.061523;
232611;-0.029297;0.013672;1.065430;
232762;-0.028320;0.018555;1.037109;
232900;-0.029297;0.018555;1.041016;
233034;-0.030273;0.018555;1.035156;
233180;-0.032227;0.023438;1.024414;
233334;-0.026367;0.019531;1.032227;
233474;-0.031250;0.020508;1.003906;
233614;-0.028320;0.023438;1.021484;
233754;-0.026367;0.021484;1.020508;
233894;-0.026367;0.022461;1.018555;
234034;-0.021484;0.024414;1.025391;
234174;-0.024414;0.014648;1.010742;
234314;-0.021484;0.017578;1.019531;
234454;-0.018555;0.017578;1.036133;
234594;-0.018555;0.015625;1.041016;
234734;-0.019531;0.014648;1.036133;
234875;-0.017578;0.012695;1.052734;
235014;-0.020508;0.012695;1.047852;
235154;-0.017578;0.013672;1.064453;
235290;-0.019531;0.015625;1.064453;
235440;-0.018555;0.015625;1.058594;
235570;-0.017578;0.013672;1.066406;
235714;-0.016602;0.016602;1.071289;
235860;-0.021484;0.016602;1.060547;
236010;-0.018555;0.016602;1.063477;
236161;-0.020508;0.017578;1.061523;
236300;-0.020508;0.022461;1.074219;
236454;-0.017578;0.015625;1.052734;
236604;-0.021484;0.014648;1.056641;
236744;-0.021484;0.020508;1.061523;
236884;-0.021484;0.017578;1.057617;
237024;-0.022461;0.019531;1.061523;
237164;-0.020508;0.016602;1.065430;
237304;-0.020508;0.018555;1.067383;
237444;-0.017578;0.017578;1.078125;
237584;-0.020508;0.015625;1.076172;
237724;-0.020508;0.014648;1.080078;
237874;-0.018555;0.015625;1.078125;
238014;-0.019531;0.017578;1.091797;
238154;-0.015625;0.016602;1.093750;
238304;-0.016602;0.019531;1.098633;
238440;-0.014648;0.017578;1.092773;
238590;-0.006836;0.016602;1.107422;
238742;-0.003906;0.013672;1.105469;
238870;0.000977;0.011719;1.117188;
239020;-0.000977;0.011719;1.106445;
239150;0.004883;0.017578;1.115234;
239304;0.004883;0.013672;1.111328;
239454;-0.000977;0.011719;1.093750;
239594;0.002930;0.012695;1.105469;
239734;0.000000;0.016602;1.085938;
239874;-0.001953;0.015625;1.083008;
240014;-0.004883;0.015625;1.051758;
240154;-0.007812;0.012695;1.033203;
240294;-0.008789;0.015625;1.025391;
240434;-0.007812;0.016602;1.011719;
240575;-0.005859;0.012695;1.000000;
240714;-0.007812;0.015625;0.978516;
240864;-0.006836;0.019531;0.963867;
241004;-0.008789;0.012695;0.948242;
241144;-0.005859;0.021484;0.959961;
241290;-0.007812;0.019531;0.943359;
241430;-0.002930;0.018555;0.930664;
241580;-0.000977;0.014648;0.936523;
241730;0.001953;0.016602;0.924805;
241880;0.000977;0.016602;0.936523;
242021;0.003906;0.014648;0.943359;
242174;0.004883;0.014648;0.953125;
242314;0.001953;0.015625;0.954102;
242454;0.002930;0.014648;0.974609;
242604;0.001953;0.016602;0.968750;
242744;0.002930;0.011719;0.978516;
242884;0.002930;0.013672;0.973633;
243024;0.000000;0.016602;0.976562;
243164;0.001953;0.014648;0.976562;
243304;0.005859;0.018555;0.976562;
243444;0.002930;0.015625;0.981445;
243584;0.001953;0.016602;0.969727;
243724;0.002930;0.017578;0.975586;
243874;0.000977;0.023438;0.958008;
244014;-0.001953;0.018555;0.965820;
244160;0.003906;0.021484;0.984375;
244310;0.001953;0.020508;0.975586;
244450;0.006836;0.019531;0.980469;
244600;0.005859;0.019531;0.983398;
244750;0.006836;0.023438;0.985352;
244880;0.003906;0.020508;1.003906;
245034;0.006836;0.015625;1.013672;
245174;0.004883;0.014648;1.000000;
245314;0.007812;0.018555;1.031250;
245454;0.003906;0.009766;1.019531;
245594;0.006836;0.015625;1.021484;
245734;0.010742;0.012695;1.036133;
245874;0.006836;0.011719;1.023438;
246024;0.007812;0.013672;1.030273;
246164;0.009766;0.015625;1.031250;
246304;0.007812;0.010742;1.025391;
246454;0.008789;0.011719;1.037109;
246594;0.005859;0.015625;1.032227;
246734;0.009766;0.019531;1.034180;
246874;0.013672;0.017578;1.033203;
247011;0.008789;0.018555;1.031250;
247164;0.010742;0.015625;1.042969;
247300;0.009766;0.020508;1.030273;
247440;0.011719;0.016602;1.039062;
247574;0.008789;0.021484;1.033203;
247711;0.004883;0.024414;1.036133;
247861;0.006836;0.022461;1.034180;
248009;0.006836;0.021484;1.024414;
248154;0.005859;0.022461;1.034180;
248304;0.009766;0.019531;1.030273;
248444;0.002930;0.019531;1.031250;
248584;0.009766;0.018555;1.036133;
248735;0.007812;0.015625;1.030273;
248874;0.009766;0.013672;1.032227;
249014;0.010742;0.013672;1.037109;
249164;0.006836;0.015625;1.041016;
249304;0.009766;0.011719;1.035156;
249444;0.007812;0.016602;1.037109;
249584;0.007812;0.013672;1.046875;
249724;0.006836;0.014648;1.042969;
249874;0.007812;0.011719;1.042969;
250014;0.009766;0.014648;1.057617;
250150;0.009766;0.016602;1.048828;
250280;0.009766;0.021484;1.060547;
250430;0.005859;0.017578;1.042969;
250570;0.007812;0.022461;1.060547;
250720;0.008789;0.017578;1.062500;
250869;0.007812;0.022461;1.051758;
251024;0.009766;0.015625;1.051758;
251164;0.006836;0.016602;1.048828;
251304;0.007812;0.021484;1.052734;
251444;0.010742;0.016602;1.053711;
251584;0.010742;0.012695;1.055664;
251724;0.016602;0.014648;1.044922;
251864;0.017578;0.011719;1.041016;
252004;0.024414;0.011719;1.052734;
252144;0.033203;0.020508;1.055664;
252284;0.041016;0.018555;1.054688;
252434;0.045898;0.016602;1.066406;
252574;0.050781;0.017578;1.074219;
252714;0.053711;0.012695;1.081055;
252854;0.053711;0.015625;1.082031;
252990;0.051758;0.014648;1.090820;
253140;0.053711;0.015625;1.094727;
253290;0.059570;0.015625;1.108398;
253430;0.055664;0.018555;1.108398;
253580;0.057617;0.021484;1.089844;
253730;0.057617;0.018555;1.093750;
253870;0.059570;0.023438;1.081055;
254014;0.061523;0.025391;1.079102;
254154;0.062500;0.020508;1.056641;
254294;0.062500;0.017578;1.039062;
254444;0.059570;0.018555;1.034180;
254584;0.063477;0.021484;1.011719;
254724;0.067383;0.017578;0.993164;
254864;0.067383;0.016602;0.986328;
255004;0.066406;0.014648;0.959961;
255144;0.071289;0.016602;0.955078;
255294;0.074219;0.010742;0.961914;
255434;0.076172;0.011719;0.940430;
255574;0.076172;0.012695;0.949219;
255714;0.078125;0.013672;0.943359;
255854;0.080078;0.015625;0.936523;
256000;0.082031;0.010742;0.936523;
256140;0.079102;0.010742;0.938477;
256290;0.083984;0.013672;0.948242;
256430;0.084961;0.011719;0.961914;
256560;0.089844;0.017578;0.946289;
256710;0.089844;0.015625;0.966797;
256850;0.085938;0.019531;0.971680;
256994;0.086914;0.017578;0.974609;
257134;0.087891;0.017578;0.983398;
257274;0.089844;0.020508;1.005859;
257414;0.093750;0.018555;1.024414;
257554;0.093750;0.020508;1.029297;
257694;0.094727;0.023438;1.015625;
257834;0.092773;0.021484;1.005859;
257974;0.088867;0.021484;1.042969;
258114;0.090820;0.022461;1.039062;
258264;0.091797;0.018555;1.056641;
258404;0.090820;0.018555;1.057617;
258544;0.089844;0.019531;1.037109;
258684;0.089844;0.020508;1.031250;
258824;0.087891;0.012695;1.041016;
258960;0.091797;0.017578;1.045898;
259100;0.091797;0.018555;1.051758;
259241;0.091797;0.014648;1.041992;
259380;0.092773;0.014648;1.016602;
259520;0.092773;0.020508;1.023438;
259661;0.094727;0.016602;1.021484;
259800;0.086914;0.011719;1.022461;
259934;0.090820;0.014648;1.041992;
260074;0.091797;0.019531;1.041992;
260214;0.095703;0.019531;1.033203;
260354;0.093750;0.015625;1.008789;
260494;0.096680;0.017578;1.006836;
260644;0.090820;0.018555;1.000977;
260784;0.093750;0.015625;0.976562;
260924;0.089844;0.020508;0.997070;
261064;0.090820;0.014648;0.993164;
261204;0.087891;0.018555;1.008789;
261344;0.092773;0.016602;1.011719;
261484;0.089844;0.021484;1.002930;
261624;0.087891;0.018555;1.009766;
261774;0.090820;0.019531;0.985352;
261910;0.091797;0.020508;0.990234;
262050;0.088867;0.014648;0.979492;
262200;0.090820;0.014648;0.964844;
262341;0.090820;0.020508;0.950195;
262491;0.089844;0.016602;0.953125;
262631;0.086914;0.018555;0.956055;
262764;0.082031;0.019531;0.968750;
262914;0.085938;0.009766;0.984375;
263054;0.087891;0.013672;1.008789;
263204;0.085938;0.019531;1.038086;
263344;0.091797;0.018555;1.044922;
263484;0.091797;0.014648;1.050781;
263634;0.091797;0.015625;1.054688;
263774;0.091797;0.017578;1.068359;
263914;0.091797;0.015625;1.069336;
264064;0.087891;0.021484;1.099609;
264204;0.090820;0.019531;1.097656;
264344;0.087891;0.007812;1.090820;
264484;0.087891;0.014648;1.099609;
264624;0.091797;0.016602;1.082031;
264760;0.093750;0.020508;1.084961;
264910;0.087891;0.020508;1.072266;
265060;0.091797;0.010742;1.055664;
265201;0.086914;0.009766;1.035156;
265330;0.085938;0.013672;1.064453;
265470;0.085938;0.015625;1.048828;
265604;0.088867;0.019531;1.054688;
265740;0.087891;0.014648;1.023438;
265894;0.084961;0.016602;1.010742;
266034;0.084961;0.017578;1.014648;
266174;0.083008;0.019531;1.013672;
266314;0.081055;0.017578;1.018555;
266454;0.083008;0.015625;1.034180;
266594;0.084961;0.013672;1.028320;
266734;0.082031;0.021484;1.017578;
266874;0.084961;0.018555;1.030273;
267024;0.086914;0.019531;1.023438;
267164;0.083008;0.018555;1.002930;
267304;0.082031;0.015625;1.003906;
267444;0.083008;0.015625;1.022461;
267584;0.082031;0.016602;1.040039;
267724;0.084961;0.023438;1.031250;
267864;0.085938;0.017578;1.017578;
267990;0.083984;0.011719;1.010742;
268140;0.081055;0.016602;1.024414;
268280;0.082031;0.013672;1.036133;
268431;0.082031;0.011719;1.041016;
268581;0.079102;0.017578;1.047852;
268730;0.083008;0.018555;1.042969;
268884;0.083984;0.017578;1.044922;
269024;0.082031;0.019531;1.020508;
269164;0.083984;0.020508;1.029297;
269314;0.083008;0.023438;1.053711;
269454;0.079102;0.021484;1.062500;
269604;0.081055;0.017578;1.092773;
269744;0.083008;0.019531;1.132812;
269884;0.086914;0.015625;1.155273;
270034;0.088867;0.016602;1.167969;
270175;0.086914;0.011719;1.228516;
270314;0.087891;0.015625;1.274414;
270454;0.088867;0.017578;1.344727;
270594;0.091797;0.010742;1.405273;
270735;0.101562;0.016602;1.462891;
270870;0.098633;0.018555;1.500000;
271011;0.105469;0.019531;1.567383;
271160;0.108398;0.007812;1.627930;
271310;0.112305;0.013672;1.667969;
271450;0.116211;0.014648;1.704102;
271594;0.114258;0.011719;1.745117;
271744;0.119141;0.010742;1.765625;
271884;0.121094;0.009766;1.777344;
272034;0.120117;0.005859;1.804688;
272174;0.124023;0.005859;1.801758;
272314;0.123047;0.007812;1.809570;
272464;0.124023;0.003906;1.812500;
272604;0.123047;0.009766;1.822266;
272744;0.125000;0.009766;1.813477;
272894;0.125000;0.011719;1.830078;
273034;0.125977;0.009766;1.834961;
273184;0.125000;0.011719;1.837891;
273324;0.125977;0.011719;1.832031;
273464;0.125000;0.012695;1.842773;
273604;0.124023;0.022461;1.864258;
273740;0.128906;0.015625;1.875977;
273884;0.128906;0.010742;1.870117;
274024;0.126953;0.011719;1.869141;
274154;0.129883;0.006836;1.853516;
274290;0.126953;0.013672;1.873047;
274432;0.126953;0.006836;1.866211;
274560;0.127930;0.009766;1.855469;
274710;0.129883;0.005859;1.867188;
274860;0.130859;0.008789;1.865234;
275010;0.126953;0.007812;1.858398;
275154;0.126953;0.006836;1.849609;
275294;0.127930;0.007812;1.832031;
275444;0.125977;0.008789;1.842773;
275584;0.126953;0.013672;1.850586;
275724;0.126953;0.008789;1.860352;
275874;0.131836;0.006836;1.867188;
276014;0.131836;0.011719;1.884766;
276154;0.135742;0.004883;1.881836;
276294;0.132812;0.005859;1.889648;
276434;0.132812;0.005859;1.889648;
276574;0.136719;0.016602;1.899414;
276714;0.134766;0.008789;1.908203;
276854;0.135742;0.006836;1.916016;
276994;0.135742;0.010742;1.912109;
277130;0.135742;0.010742;1.890625;
277280;0.133789;0.008789;1.906250;
277420;0.137695;0.007812;1.897461;
277570;0.139648;0.014648;1.904297;
277721;0.131836;0.011719;1.891602;
277870;0.135742;0.017578;1.901367;
278024;0.135742;0.016602;1.896484;
278164;0.133789;0.018555;1.899414;
278304;0.132812;0.011719;1.883789;
278444;0.136719;0.014648;1.876953;
278584;0.137695;0.010742;1.872070;
278724;0.135742;0.012695;1.878906;
278864;0.135742;0.006836;1.868164;
279004;0.140625;0.008789;1.866211;
279144;0.137695;0.004883;1.868164;
279294;0.139648;0.003906;1.875000;
279434;0.142578;0.000000;1.886719;
279574;0.143555;0.000000;1.860352;
279714;0.142578;0.000977;1.872070;
279854;0.145508;0.002930;1.864258;
279989;0.142578;0.011719;1.883789;
280132;0.144531;0.010742;1.863281;
280260;0.145508;0.019531;1.877930;
280411;0.147461;0.013672;1.883789;
280550;0.148438;0.015625;1.885742;
280700;0.146484;0.007812;1.854492;
280854;0.152344;0.007812;1.859375;
280994;0.148438;0.004883;1.859375;
281134;0.147461;0.004883;1.851562;
281274;0.155273;0.011719;1.860352;
281414;0.155273;0.010742;1.843750;
281554;0.155273;0.012695;1.832031;
281694;0.154297;0.009766;1.826172;
281834;0.158203;0.009766;1.840820;
281974;0.158203;0.002930;1.843750;
282114;0.158203;0.000000;1.843750;
282254;0.163086;-0.000977;1.875977;
282394;0.165039;-0.004883;1.882812;
282534;0.166992;-0.000977;1.909180;
282674;0.168945;0.003906;1.921875;
282810;0.168945;0.001953;1.945312;
282960;0.171875;0.004883;1.945312;
283110;0.172852;0.013672;1.914062;
283260;0.169922;0.013672;1.918945;
283410;0.171875;0.014648;1.878906;
283544;0.176758;0.010742;1.882812;
283680;0.166992;0.015625;1.877930;
283811;0.172852;0.009766;1.854492;
283944;0.172852;0.012695;1.853516;
284084;0.171875;0.008789;1.838867;
284235;0.174805;0.017578;1.840820;
284374;0.171875;0.014648;1.824219;
284514;0.175781;0.014648;1.841797;
284664;0.175781;0.012695;1.838867;
284804;0.176758;0.022461;1.836914;
284944;0.174805;0.019531;1.820312;
285084;0.175781;0.010742;1.802734;
285224;0.176758;0.013672;1.815430;
285364;0.173828;0.009766;1.791992;
285504;0.175781;0.008789;1.800781;
285644;0.176758;0.010742;1.796875;
285784;0.178711;0.008789;1.790039;
285922;0.180664;0.014648;1.795898;
286070;0.175781;0.009766;1.773438;
286220;0.174805;0.003906;1.730469;
286370;0.173828;0.000977;1.715820;
286510;0.173828;0.004883;1.705078;
286650;0.173828;0.003906;1.701172;
286780;0.176758;0.007812;1.677734;
286924;0.176758;0.005859;1.678711;
287060;0.175781;0.004883;1.678711;
287204;0.174805;0.000000;1.645508;
287344;0.178711;0.010742;1.652344;
287494;0.179688;0.001953;1.670898;
287634;0.180664;0.014648;1.652344;
287774;0.180664;0.028320;1.674805;
287924;0.176758;0.023438;1.666016;
288064;0.179688;0.029297;1.658203;
288204;0.183594;0.039062;1.670898;
288344;0.181641;0.031250;1.649414;
288484;0.184570;0.026367;1.632812;
288624;0.186523;0.032227;1.631836;
288764;0.185547;0.025391;1.604492;
288904;0.188477;0.017578;1.587891;
289044;0.188477;0.017578;1.610352;
289180;0.192383;0.014648;1.598633;
289320;0.192383;0.009766;1.634766;
289460;0.194336;0.011719;1.628906;
289604;0.196289;0.014648;1.638672;
289754;0.195312;0.005859;1.633789;
289880;0.194336;0.007812;1.601562;
290020;0.197266;0.017578;1.623047;
290150;0.198242;0.011719;1.617188;
290280;0.196289;0.011719;1.614258;
290430;0.192383;0.014648;1.620117;
290561;0.194336;0.018555;1.628906;
290704;0.187500;0.014648;1.627930;
290844;0.182617;0.018555;1.621094;
290984;0.178711;0.010742;1.583008;
291125;0.169922;0.007812;1.583008;
291264;0.164062;0.014648;1.549805;
291404;0.153320;0.019531;1.516602;
291544;0.143555;0.018555;1.465820;
291684;0.127930;0.025391;1.397461;
291834;0.114258;0.030273;1.334961;
291974;0.101562;0.024414;1.254883;
292114;0.089844;0.023438;1.158203;
292264;0.070312;0.026367;1.043945;
292404;0.058594;0.025391;0.955078;
292544;0.042969;0.026367;0.821289;
292690;0.040039;0.019531;0.719727;
292831;0.025391;0.022461;0.603516;
292980;0.013672;0.024414;0.503906;
293120;0.012695;0.027344;0.419922;
293260;0.007812;0.031250;0.332031;
293410;0.011719;0.028320;0.278320;
293554;0.005859;0.028320;0.213867;
293694;0.000977;0.028320;0.152344;
293834;0.002930;0.025391;0.119141;
293974;0.002930;0.025391;0.090820;
294114;0.004883;0.025391;0.060547;
294254;-0.000977;0.023438;0.042969;
294394;0.000977;0.023438;0.047852;
294534;0.001953;0.026367;0.032227;
294674;0.002930;0.026367;0.025391;
294814;0.001953;0.023438;0.020508;
294954;0.000977;0.027344;0.023438;
295094;0.000000;0.026367;0.019531;
295234;0.000977;0.024414;0.013672;
295374;-0.002930;0.026367;0.025391;
295520;-0.002930;0.028320;0.014648;
295660;-0.007812;0.030273;-0.001953;
295811;-0.001953;0.028320;-0.002930;
295950;-0.007812;0.028320;-0.011719;
296094;-0.006836;0.022461;-0.016602;
296230;-0.001953;0.016602;0.008789;
296370;-0.002930;0.014648;0.015625;
296521;-0.004883;0.015625;0.018555;
296670;-0.006836;0.015625;0.005859;
296814;-0.005859;0.011719;0.009766;
296954;-0.008789;0.012695;0.014648;
297090;-0.003906;0.017578;0.019531;
297224;-0.007812;0.017578;0.027344;
297364;-0.003906;0.020508;0.033203;
297514;-0.006836;0.020508;0.030273;
297654;-0.007812;0.023438;0.035156;
297794;-0.007812;0.025391;0.034180;
297934;-0.011719;0.024414;0.032227;
298074;-0.007812;0.024414;0.034180;
298214;-0.010742;0.024414;0.023438;
298354;-0.009766;0.027344;0.039062;
298494;-0.008789;0.031250;0.030273;
298634;-0.008789;0.031250;0.039062;
298770;-0.013672;0.027344;0.036133;
298910;-0.008789;0.030273;0.023438;
299050;-0.010742;0.032227;0.023438;
299191;-0.014648;0.030273;0.020508;
299340;-0.011719;0.031250;0.016602;
299490;-0.010742;0.031250;0.016602;
299634;-0.010742;0.032227;0.027344;
299774;-0.012695;0.030273;0.021484;
299914;-0.010742;0.029297;0.021484;
300054;-0.015625;0.032227;0.014648;
300196;-0.014648;0.032227;0.021484;
300344;-0.013672;0.031250;0.017578;
300494;-0.006836;0.029297;0.028320;
300644;-0.012695;0.035156;0.018555;
300784;-0.010742;0.032227;0.021484;
300984;-0.016602;0.030273;0.019531;
301134;-0.015625;0.034180;0.025391;
301274;-0.013672;0.030273;0.039062;
301414;-0.014648;0.031250;0.017578;
301550;-0.011719;0.030273;0.020508;
301690;-0.011719;0.027344;0.030273;
301840;-0.013672;0.030273;0.016602;
301990;-0.013672;0.033203;0.021484;
302120;-0.016602;0.035156;0.016602;
302270;-0.015625;0.031250;0.024414;
302401;-0.018555;0.030273;0.024414;
302549;-0.014648;0.030273;0.023438;
302695;-0.013672;0.030273;0.023438;
302844;-0.015625;0.033203;0.024414;
302984;-0.020508;0.036133;0.022461;
