Time;acc_x;acc_y;acc_z;

1686;-0.002930;0.026367;1.035156;
1833;-0.005859;0.022461;1.043945;
1973;-0.002930;0.025391;1.042969;
2113;-0.003906;0.020508;1.024414;
2253;0.000000;0.014648;1.039062;
2393;-0.001953;0.008789;1.027344;
2533;-0.000977;0.017578;1.031250;
2673;0.000000;0.015625;1.020508;
2813;-0.004883;0.019531;1.017578;
2953;-0.001953;0.022461;1.026367;
3093;-0.006836;0.024414;1.020508;
3233;-0.002930;0.024414;1.033203;
3373;-0.002930;0.029297;1.015625;
3513;-0.004883;0.030273;1.013672;
3653;-0.001953;0.033203;1.002930;
3793;-0.003906;0.040039;1.025391;
3933;-0.003906;0.036133;1.027344;
4073;-0.006836;0.025391;1.022461;
4213;-0.003906;0.021484;1.022461;
4359;0.000000;0.013672;1.013672;
4509;-0.003906;0.022461;1.019531;
4649;-0.003906;0.021484;1.008789;
4799;-0.002930;0.022461;0.994141;
4941;-0.001953;0.016602;1.008789;
5079;-0.004883;0.018555;0.996094;
5223;-0.002930;0.017578;1.003906;
5363;-0.003906;0.017578;0.995117;
5503;-0.001953;0.025391;0.993164;
5643;-0.004883;0.021484;0.981445;
5783;-0.006836;0.027344;0.983398;
5923;-0.006836;0.029297;0.989258;
6063;-0.007812;0.030273;0.979492;
6203;-0.004883;0.027344;0.979492;
6343;-0.007812;0.028320;0.970703;
6483;-0.007812;0.029297;0.983398;
6623;-0.000977;0.030273;0.997070;
6763;-0.006836;0.031250;0.980469;
6903;-0.005859;0.029297;0.989258;
7043;-0.004883;0.018555;0.980469;
7179;-0.007812;0.024414;0.996094;
7329;-0.006836;0.024414;0.993164;
7469;-0.005859;0.026367;1.003906;
7599;-0.004883;0.024414;1.006836;
7739;-0.005859;0.028320;0.996094;
7900;-0.002930;0.020508;1.009766;
8043;-0.004883;0.025391;0.997070;
8183;-0.005859;0.022461;0.991211;
8323;-0.002930;0.023438;0.988281;
8463;-0.005859;0.018555;0.985352;
8603;0.000000;0.018555;1.005859;
8743;-0.006836;0.017578;0.989258;
8893;-0.006836;0.021484;0.998047;
9033;-0.000977;0.016602;0.987305;
9173;-0.009766;0.021484;0.988281;
9313;-0.005859;0.018555;0.975586;
9453;-0.004883;0.026367;0.990234;
9593;-0.003906;0.025391;0.999023;
9733;-0.003906;0.031250;1.000000;
9883;-0.005859;0.029297;1.007812;
10019;-0.005859;0.028320;1.009766;
10163;-0.006836;0.028320;1.029297;
10309;-0.003906;0.025391;1.017578;
10449;-0.004883;0.026367;1.037109;
10599;-0.003906;0.021484;1.058594;
10749;-0.002930;0.020508;1.067383;
10890;0.000000;0.028320;1.084961;
11043;0.002930;0.018555;1.096680;
11183;-0.003906;0.018555;1.095703;
11323;0.002930;0.018555;1.112305;
11473;0.002930;0.019531;1.104492;
11613;-0.003906;0.023438;1.107422;
11753;0.001953;0.025391;1.102539;
11893;0.001953;0.025391;1.083008;
12033;-0.002930;0.028320;1.082031;
12173;0.000000;0.031250;1.065430;
12313;-0.001953;0.025391;1.071289;
12453;-0.005859;0.022461;1.063477;
12593;-0.004883;0.031250;1.059570;
12733;-0.004883;0.027344;1.058594;
12873;-0.007812;0.019531;1.036133;
13019;-0.009766;0.026367;1.038086;
13169;-0.008789;0.017578;1.040039;
13319;-0.006836;0.016602;1.041992;
13469;-0.011719;0.014648;1.030273;
13623;-0.012695;0.016602;1.038086;
13763;-0.009766;0.014648;1.036133;
13903;-0.012695;0.014648;1.041016;
14043;-0.007812;0.013672;1.043945;
14183;-0.009766;0.014648;1.048828;
14333;-0.014648;0.014648;1.041016;
14473;-0.012695;0.021484;1.055664;
14613;-0.013672;0.020508;1.048828;
14753;-0.019531;0.018555;1.057617;
14893;-0.017578;0.024414;1.061523;
15033;-0.016602;0.022461;1.047852;
15173;-0.017578;0.025391;1.050781;
15323;-0.017578;0.026367;1.031250;
15463;-0.014648;0.027344;1.029297;
15599;-0.017578;0.023438;1.024414;
15739;-0.021484;0.022461;1.012695;
15889;-0.021484;0.019531;1.016602;
16040;-0.024414;0.019531;1.023438;
16190;-0.023438;0.023438;1.018555;
16333;-0.020508;0.023438;1.024414;
16473;-0.025391;0.016602;1.019531;
16613;-0.018555;0.018555;1.020508;
16753;-0.026367;0.020508;1.009766;
16893;-0.024414;0.022461;1.010742;
17033;-0.021484;0.018555;1.010742;
17173;-0.022461;0.022461;1.014648;
17313;-0.022461;0.023438;1.013672;
17453;-0.024414;0.018555;1.005859;
17593;-0.023438;0.018555;1.017578;
17733;-0.024414;0.015625;1.024414;
17873;-0.020508;0.023438;1.030273;
18013;-0.020508;0.020508;1.029297;
18153;-0.021484;0.023438;1.023438;
18289;-0.020508;0.026367;1.039062;
18440;-0.023438;0.024414;1.022461;
18579;-0.021484;0.029297;1.029297;
18719;-0.023438;0.030273;1.033203;
18873;-0.021484;0.024414;1.041992;
19013;-0.023438;0.017578;1.037109;
19153;-0.020508;0.022461;1.048828;
19289;-0.024414;0.015625;1.049805;
19439;-0.020508;0.020508;1.040039;
19593;-0.020508;0.015625;1.055664;
19733;-0.019531;0.016602;1.058594;
19873;-0.021484;0.016602;1.069336;
20013;-0.020508;0.017578;1.079102;
20153;-0.017578;0.018555;1.087891;
20293;-0.016602;0.022461;1.084961;
20443;-0.020508;0.028320;1.068359;
20583;-0.022461;0.020508;1.073242;
20723;-0.020508;0.025391;1.090820;
20863;-0.023438;0.028320;1.089844;
21003;-0.021484;0.028320;1.081055;
21143;-0.020508;0.027344;1.073242;
21283;-0.023438;0.017578;1.078125;
21423;-0.019531;0.026367;1.068359;
21569;-0.019531;0.024414;1.071289;
21719;-0.018555;0.021484;1.057617;
21859;-0.019531;0.016602;1.049805;
21999;-0.023438;0.026367;1.063477;
22150;-0.020508;0.020508;1.081055;
22313;-0.018555;0.017578;1.068359;
22453;-0.016602;0.012695;1.064453;
22593;-0.023438;0.011719;1.063477;
22735;-0.019531;0.011719;1.068359;
22893;-0.017578;0.016602;1.075195;
23033;-0.021484;0.012695;1.085938;
23173;-0.020508;0.018555;1.065430;
23313;-0.021484;0.010742;1.054688;
23449;-0.020508;0.015625;1.057617;
23593;-0.025391;0.024414;1.060547;
23743;-0.023438;0.023438;1.053711;
23883;-0.024414;0.026367;1.049805;
24029;-0.024414;0.028320;1.048828;
24183;-0.019531;0.027344;1.048828;
24329;-0.024414;0.019531;1.051758;
24479;-0.026367;0.023438;1.056641;
24629;-0.020508;0.023438;1.050781;
24779;-0.022461;0.023438;1.058594;
24919;-0.024414;0.019531;1.050781;
25069;-0.021484;0.015625;1.057617;
25213;-0.018555;0.010742;1.063477;
25353;-0.020508;0.015625;1.069336;
25493;-0.018555;0.020508;1.060547;
25629;-0.019531;0.015625;1.051758;
25783;-0.019531;0.015625;1.046875;
25923;-0.021484;0.018555;1.040039;
26063;-0.017578;0.017578;1.034180;
26209;-0.024414;0.017578;1.030273;
26363;-0.021484;0.021484;1.027344;
26503;-0.020508;0.024414;1.016602;
26643;-0.021484;0.019531;1.021484;
26781;-0.022461;0.024414;1.015625;
26923;-0.021484;0.019531;1.012695;
27059;-0.024414;0.024414;1.019531;
27199;-0.022461;0.020508;1.019531;
27339;-0.024414;0.031250;1.020508;
27489;-0.019531;0.024414;1.013672;
27639;-0.023438;0.023438;0.998047;
27789;-0.021484;0.016602;0.998047;
27939;-0.020508;0.012695;1.005859;
28079;-0.024414;0.023438;0.999023;
28223;-0.017578;0.028320;1.007812;
28363;-0.024414;0.023438;1.001953;
28503;-0.019531;0.017578;1.003906;
28639;-0.021484;0.016602;1.006836;
28793;-0.021484;0.015625;1.016602;
28933;-0.020508;0.015625;1.010742;
29073;-0.018555;0.023438;1.021484;
29213;-0.022461;0.014648;1.023438;
29359;-0.019531;0.021484;1.012695;
29514;-0.022461;0.019531;1.020508;
29653;-0.017578;0.022461;1.041016;
29793;-0.020508;0.021484;1.032227;
29929;-0.019531;0.021484;1.032227;
30079;-0.021484;0.018555;1.032227;
30229;-0.019531;0.020508;1.041016;
30369;-0.020508;0.017578;1.029297;
30529;-0.020508;0.016602;1.030273;
30689;-0.020508;0.016602;1.041992;
30833;-0.020508;0.013672;1.042969;
30970;-0.019531;0.020508;1.038086;
31103;-0.016602;0.022461;1.048828;
31243;-0.020508;0.017578;1.039062;
31383;-0.016602;0.024414;1.041992;
31524;-0.017578;0.022461;1.031250;
31660;-0.017578;0.022461;1.033203;
31803;-0.013672;0.024414;1.038086;
31953;-0.013672;0.023438;1.042969;
32093;-0.017578;0.023438;1.043945;
32233;-0.012695;0.026367;1.044922;
32373;-0.013672;0.024414;1.027344;
32521;-0.012695;0.023438;1.032227;
32663;-0.008789;0.020508;1.046875;
32809;-0.013672;0.014648;1.038086;
32959;-0.008789;0.019531;1.047852;
33109;-0.010742;0.017578;1.053711;
33259;-0.014648;0.016602;1.061523;
33409;-0.011719;0.020508;1.047852;
33563;-0.012695;0.015625;1.055664;
33703;-0.012695;0.009766;1.066406;
33853;-0.009766;0.013672;1.078125;
33993;-0.008789;0.010742;1.069336;
34130;-0.011719;0.015625;1.072266;
34283;-0.012695;0.021484;1.052734;
34423;-0.010742;0.019531;1.059570;
34563;-0.011719;0.025391;1.062500;
34699;-0.011719;0.018555;1.058594;
34849;-0.009766;0.021484;1.061523;
34990;-0.012695;0.019531;1.061523;
35133;-0.011719;0.020508;1.059570;
35273;-0.012695;0.023438;1.063477;
35410;-0.009766;0.022461;1.057617;
35559;-0.013672;0.015625;1.050781;
35709;-0.012695;0.025391;1.054688;
35859;-0.012695;0.016602;1.042969;
36011;-0.010742;0.019531;1.040039;
36153;-0.014648;0.021484;1.041016;
36289;-0.009766;0.021484;1.037109;
36429;-0.011719;0.019531;1.035156;
36583;-0.006836;0.018555;1.021484;
36723;-0.007812;0.018555;1.029297;
36863;-0.005859;0.018555;1.023438;
37005;-0.004883;0.019531;1.031250;
37159;-0.006836;0.011719;1.034180;
37303;-0.002930;0.018555;1.012695;
37443;-0.004883;0.017578;1.007812;
37583;-0.006836;0.017578;1.026367;
37719;-0.007812;0.016602;1.013672;
37873;-0.007812;0.019531;1.013672;
38013;-0.011719;0.016602;1.014648;
38159;-0.008789;0.015625;1.025391;
38310;-0.005859;0.013672;1.025391;
38459;-0.010742;0.015625;1.004883;
38609;-0.008789;0.022461;1.009766;
38759;-0.007812;0.018555;1.012695;
38899;-0.010742;0.023438;1.005859;
39029;-0.011719;0.018555;0.985352;
39159;-0.009766;0.016602;0.976562;
39303;-0.008789;0.020508;0.979492;
39443;-0.004883;0.020508;0.979492;
39583;-0.007812;0.018555;0.982422;
39718;-0.002930;0.015625;0.974609;
39863;0.000000;0.018555;0.978516;
40003;0.000977;0.021484;0.996094;
40143;0.000977;0.017578;0.990234;
40289;0.004883;0.017578;1.003906;
40443;0.004883;0.013672;1.007812;
40583;0.003906;0.019531;1.026367;
40719;0.000977;0.011719;1.027344;
40870;0.005859;0.011719;1.039062;
41019;-0.000977;0.016602;1.031250;
41169;0.001953;0.017578;1.041992;
41319;0.004883;0.019531;1.027344;
41459;0.000977;0.023438;1.043945;
41609;0.001953;0.021484;1.026367;
41759;0.000000;0.023438;1.015625;
41913;0.000000;0.019531;1.027344;
42053;0.000000;0.021484;1.019531;
42203;0.000977;0.020508;1.001953;
42339;0.003906;0.022461;1.013672;
42493;-0.002930;0.022461;1.020508;
42633;0.000977;0.017578;1.000977;
42773;0.000977;0.016602;1.011719;
42909;0.001953;0.016602;1.008789;
43053;0.000000;0.015625;1.014648;
43193;-0.001953;0.014648;1.014648;
43333;-0.000977;0.017578;1.015625;
43473;0.001953;0.013672;1.025391;
43613;0.000977;0.014648;1.025391;
43753;0.000000;0.012695;1.025391;
43889;0.000977;0.010742;1.017578;
44039;-0.000977;0.018555;1.033203;
44179;0.000977;0.011719;1.029297;
44319;0.003906;0.015625;1.048828;
44473;0.000977;0.017578;1.042969;
44613;0.000000;0.013672;1.046875;
44749;0.004883;0.018555;1.053711;
44879;0.001953;0.015625;1.055664;
45033;0.002930;0.020508;1.058594;
45173;0.002930;0.017578;1.052734;
45313;0.000000;0.015625;1.052734;
45463;-0.000977;0.016602;1.062500;
45603;0.001953;0.016602;1.053711;
45743;0.000977;0.018555;1.049805;
45883;0.001953;0.022461;1.063477;
46023;0.001953;0.020508;1.055664;
46163;0.001953;0.018555;1.060547;
46303;0.000000;0.014648;1.054688;
46443;0.000977;0.020508;1.053711;
46583;0.001953;0.016602;1.042969;
46723;0.000977;0.017578;1.045898;
46863;0.000000;0.016602;1.051758;
47009;0.000000;0.017578;1.038086;
47159;0.001953;0.018555;1.042969;
47299;0.000977;0.017578;1.040039;
47443;0.000000;0.024414;1.031250;
47584;0.000977;0.020508;1.031250;
47719;-0.000977;0.022461;1.031250;
47861;0.001953;0.020508;1.025391;
48009;0.003906;0.017578;1.042969;
48163;-0.000977;0.018555;1.041016;
48303;0.001953;0.019531;1.031250;
48443;0.002930;0.019531;1.044922;
48583;-0.002930;0.016602;1.050781;
48723;0.005859;0.015625;1.030273;
48873;0.001953;0.017578;1.041992;
49013;0.000977;0.015625;1.042969;
49153;0.002930;0.018555;1.039062;
49303;-0.000977;0.017578;1.028320;
49443;0.000000;0.018555;1.026367;
49583;0.000000;0.017578;1.020508;
49723;0.005859;0.017578;1.023438;
49863;0.006836;0.014648;1.025391;
50003;0.015625;0.020508;1.048828;
50139;0.018555;0.015625;1.048828;
50279;0.021484;0.018555;1.057617;
50433;0.028320;0.021484;1.059570;
50573;0.031250;0.023438;1.060547;
50709;0.029297;0.017578;1.057617;
50859;0.035156;0.022461;1.061523;
51003;0.037109;0.015625;1.065430;
51153;0.043945;0.014648;1.059570;
51293;0.045898;0.021484;1.073242;
51433;0.053711;0.017578;1.078125;
51583;0.057617;0.018555;1.083984;
51723;0.063477;0.018555;1.097656;
51863;0.070312;0.020508;1.092773;
52013;0.068359;0.026367;1.097656;
52153;0.070312;0.023438;1.103516;
52293;0.076172;0.023438;1.099609;
52433;0.075195;0.020508;1.101562;
52573;0.083008;0.027344;1.082031;
52723;0.083008;0.022461;1.072266;
52863;0.086914;0.023438;1.075195;
52999;0.089844;0.023438;1.047852;
53150;0.093750;0.013672;1.020508;
53302;0.092773;0.013672;1.032227;
53449;0.094727;0.017578;1.029297;
53599;0.094727;0.022461;1.024414;
53739;0.091797;0.011719;1.013672;
53883;0.093750;0.017578;1.001953;
54023;0.095703;0.016602;1.002930;
54163;0.092773;0.014648;0.997070;
54313;0.094727;0.016602;1.002930;
54453;0.096680;0.017578;0.999023;
54593;0.089844;0.019531;1.004883;
54733;0.092773;0.021484;0.992188;
54873;0.094727;0.019531;0.986328;
55013;0.095703;0.017578;0.984375;
55153;0.093750;0.017578;0.968750;
55293;0.093750;0.019531;0.972656;
55443;0.095703;0.012695;0.986328;
55584;0.094727;0.017578;0.962891;
55723;0.094727;0.016602;0.986328;
55869;0.091797;0.018555;1.000977;
56009;0.092773;0.016602;1.011719;
56159;0.091797;0.018555;1.021484;
56309;0.090820;0.018555;1.041016;
56469;0.092773;0.026367;1.043945;
56623;0.094727;0.020508;1.057617;
56763;0.093750;0.023438;1.056641;
56903;0.092773;0.016602;1.055664;
57043;0.092773;0.017578;1.053711;
57183;0.095703;0.023438;1.049805;
57333;0.093750;0.017578;1.044922;
57473;0.093750;0.020508;1.029297;
57613;0.097656;0.012695;1.025391;
57753;0.094727;0.019531;1.022461;
57893;0.091797;0.015625;1.009766;
58033;0.093750;0.012695;1.010742;
58173;0.090820;0.015625;1.000000;
58313;0.091797;0.018555;1.012695;
58453;0.089844;0.023438;1.017578;
58589;0.088867;0.020508;1.014648;
58739;0.089844;0.021484;1.017578;
58889;0.087891;0.017578;1.019531;
59029;0.087891;0.018555;1.024414;
59168;0.090820;0.018555;1.012695;
59303;0.091797;0.018555;1.003906;
59443;0.089844;0.017578;1.007812;
59583;0.090820;0.022461;0.998047;
59723;0.086914;0.018555;0.998047;
59863;0.090820;0.017578;0.993164;
60003;0.086914;0.026367;1.004883;
60143;0.084961;0.018555;0.994141;
60283;0.086914;0.017578;0.993164;
60423;0.086914;0.021484;0.997070;
60563;0.086914;0.019531;0.998047;
60703;0.087891;0.015625;0.987305;
60843;0.090820;0.022461;0.986328;
60983;0.087891;0.020508;0.988281;
61123;0.088867;0.016602;0.979492;
61260;0.085938;0.017578;1.002930;
61408;0.088867;0.027344;1.010742;
61549;0.084961;0.025391;1.018555;
61689;0.084961;0.025391;1.024414;
61840;0.083984;0.021484;1.020508;
61989;0.087891;0.019531;1.012695;
62133;0.089844;0.013672;1.021484;
62283;0.086914;0.016602;1.027344;
62423;0.089844;0.015625;1.009766;
62563;0.087891;0.013672;1.006836;
62713;0.085938;0.020508;1.025391;
62853;0.085938;0.017578;1.023438;
62993;0.087891;0.019531;1.037109;
63133;0.084961;0.012695;1.028320;
63273;0.082031;0.020508;1.040039;
63413;0.085938;0.019531;1.029297;
63553;0.086914;0.016602;1.019531;
63693;0.080078;0.021484;1.003906;
63833;0.083984;0.018555;1.011719;
63973;0.082031;0.024414;1.023438;
64113;0.080078;0.021484;1.028320;
64259;0.083008;0.018555;1.016602;
64399;0.082031;0.019531;1.018555;
64549;0.083984;0.015625;1.012695;
64689;0.083008;0.020508;1.000000;
64831;0.084961;0.015625;0.992188;
64979;0.082031;0.019531;1.010742;
65133;0.083008;0.013672;1.024414;
65273;0.083984;0.019531;1.028320;
65423;0.079102;0.018555;1.032227;
65563;0.083984;0.016602;1.032227;
65703;0.083984;0.019531;1.031250;
65843;0.079102;0.014648;1.012695;
65983;0.080078;0.011719;1.015625;
66123;0.081055;0.021484;1.038086;
66263;0.081055;0.021484;1.040039;
66403;0.082031;0.019531;1.026367;
66543;0.080078;0.021484;1.030273;
66683;0.082031;0.016602;1.033203;
66823;0.080078;0.015625;1.031250;
66973;0.083008;0.011719;1.037109;
67109;0.081055;0.031250;1.062500;
67249;0.083984;0.021484;1.072266;
67389;0.083008;0.012695;1.051758;
67539;0.082031;0.020508;1.069336;
67679;0.083008;0.012695;1.081055;
67829;0.083984;0.011719;1.072266;
67959;0.082031;0.015625;1.108398;
68113;0.083008;0.018555;1.154297;
68253;0.083984;0.015625;1.201172;
68403;0.086914;0.022461;1.250977;
68543;0.090820;0.015625;1.298828;
68683;0.091797;0.010742;1.333984;
68823;0.093750;0.017578;1.362305;
68963;0.095703;0.019531;1.411133;
69103;0.096680;0.023438;1.461914;
69243;0.099609;0.023438;1.517578;
69393;0.103516;0.023438;1.564453;
69533;0.107422;0.023438;1.596680;
69673;0.106445;0.019531;1.638672;
69813;0.110352;0.015625;1.673828;
69953;0.115234;0.011719;1.710938;
70100;0.118164;0.011719;1.759766;
70240;0.119141;0.009766;1.814453;
70389;0.121094;0.002930;1.825195;
70541;0.126953;0.005859;1.873047;
70689;0.128906;0.010742;1.892578;
70833;0.125977;0.008789;1.901367;
70973;0.128906;0.005859;1.904297;
71113;0.127930;0.006836;1.922852;
71253;0.129883;0.007812;1.934570;
71393;0.129883;0.006836;1.940430;
71533;0.129883;0.004883;1.947266;
71673;0.131836;0.005859;1.925781;
71813;0.131836;0.014648;1.926758;
71953;0.125977;0.012695;1.915039;
72093;0.125977;0.014648;1.904297;
72233;0.125000;0.016602;1.912109;
72373;0.124023;0.017578;1.886719;
72513;0.127930;0.017578;1.883789;
72653;0.132812;0.013672;1.866211;
72799;0.126953;0.012695;1.875977;
72939;0.126953;0.013672;1.865234;
73079;0.125000;0.011719;1.850586;
73229;0.125977;0.010742;1.850586;
73380;0.125000;0.010742;1.856445;
73530;0.123047;0.014648;1.847656;
73673;0.127930;0.011719;1.830078;
73813;0.123047;0.010742;1.838867;
73953;0.123047;0.010742;1.828125;
74093;0.125977;0.011719;1.831055;
74233;0.125977;0.001953;1.846680;
74373;0.121094;0.007812;1.829102;
74513;0.125977;0.012695;1.837891;
74653;0.125977;0.006836;1.849609;
74793;0.126953;0.011719;1.844727;
74933;0.127930;0.010742;1.847656;
75073;0.129883;0.010742;1.836914;
75213;0.129883;0.008789;1.848633;
75353;0.129883;0.012695;1.848633;
75503;0.129883;0.004883;1.835938;
75639;0.130859;0.015625;1.833008;
75789;0.128906;0.012695;1.827148;
75940;0.131836;0.012695;1.819336;
76080;0.128906;0.016602;1.809570;
76229;0.133789;0.015625;1.793945;
76379;0.132812;0.015625;1.814453;
76523;0.130859;0.014648;1.808594;
76664;0.132812;0.011719;1.830078;
76803;0.135742;0.007812;1.830078;
76943;0.133789;0.007812;1.831055;
77083;0.136719;0.007812;1.835938;
77223;0.136719;0.007812;1.831055;
77363;0.138672;0.001953;1.837891;
77503;0.143555;0.006836;1.854492;
77643;0.140625;0.007812;1.845703;
77783;0.141602;0.005859;1.849609;
77923;0.141602;0.010742;1.865234;
78063;0.142578;0.009766;1.868164;
78203;0.148438;0.007812;1.861328;
78343;0.145508;0.009766;1.856445;
78479;0.146484;0.010742;1.849609;
78620;0.145508;0.009766;1.850586;
78759;0.145508;0.012695;1.846680;
78899;0.148438;0.012695;1.841797;
79049;0.149414;0.002930;1.829102;
79183;0.148438;0.011719;1.829102;
79321;0.149414;0.014648;1.830078;
79469;0.145508;0.013672;1.831055;
79613;0.149414;0.014648;1.840820;
79763;0.150391;0.007812;1.819336;
79903;0.151367;0.009766;1.834961;
80043;0.150391;0.011719;1.832031;
80193;0.151367;0.010742;1.845703;
80333;0.153320;0.005859;1.842773;
80473;0.149414;0.003906;1.838867;
80613;0.155273;0.008789;1.850586;
80753;0.157227;0.003906;1.837891;
80893;0.157227;-0.000977;1.851562;
81033;0.160156;0.000000;1.842773;
81173;0.165039;0.005859;1.843750;
81313;0.163086;-0.003906;1.848633;
81453;0.167969;0.005859;1.854492;
81590;0.161133;0.007812;1.849609;
81729;0.162109;0.008789;1.833008;
81869;0.161133;0.004883;1.812500;
82009;0.161133;0.008789;1.809570;
82153;0.166992;0.006836;1.822266;
82289;0.165039;0.006836;1.818359;
82431;0.166992;0.014648;1.821289;
82561;0.167969;0.018555;1.803711;
82709;0.166992;0.024414;1.798828;
82859;0.167969;0.029297;1.801758;
83003;0.168945;0.026367;1.812500;
83153;0.171875;0.028320;1.849609;
83293;0.171875;0.019531;1.839844;
83433;0.174805;0.023438;1.842773;
83573;0.176758;0.017578;1.833008;
83713;0.175781;0.008789;1.814453;
83853;0.177734;0.007812;1.804688;
83993;0.175781;0.008789;1.798828;
84133;0.178711;0.008789;1.798828;
84273;0.177734;0.008789;1.798828;
84413;0.181641;0.006836;1.798828;
84553;0.180664;0.005859;1.788086;
84693;0.184570;0.009766;1.793945;
84833;0.185547;0.012695;1.814453;
84969;0.183594;0.010742;1.805664;
85109;0.189453;0.017578;1.785156;
85259;0.186523;0.015625;1.804688;
85399;0.185547;0.009766;1.784180;
85531;0.187500;0.018555;1.761719;
85669;0.184570;0.015625;1.727539;
85809;0.183594;0.013672;1.726562;
85963;0.182617;0.018555;1.693359;
86103;0.179688;0.023438;1.662109;
86253;0.180664;0.019531;1.673828;
86393;0.179688;0.014648;1.651367;
86533;0.175781;0.017578;1.626953;
86683;0.178711;0.013672;1.612305;
86823;0.177734;0.014648;1.583984;
86963;0.176758;0.019531;1.548828;
87113;0.176758;0.012695;1.526367;
87253;0.177734;0.014648;1.510742;
87393;0.175781;0.018555;1.501953;
87533;0.174805;0.015625;1.476562;
87673;0.173828;0.006836;1.457031;
87813;0.177734;0.012695;1.488281;
87949;0.178711;0.008789;1.461914;
88089;0.181641;0.010742;1.484375;
88239;0.181641;0.009766;1.486328;
88379;0.185547;0.012695;1.509766;
88519;0.191406;0.008789;1.519531;
88669;0.195312;0.009766;1.543945;
88813;0.194336;0.008789;1.542969;
88953;0.188477;0.013672;1.561523;
89093;0.191406;0.017578;1.568359;
89233;0.184570;0.015625;1.570312;
89373;0.179688;0.020508;1.561523;
89513;0.174805;0.025391;1.580078;
89653;0.171875;0.024414;1.558594;
89793;0.163086;0.024414;1.553711;
89933;0.157227;0.037109;1.536133;
90073;0.148438;0.026367;1.494141;
90213;0.140625;0.031250;1.447266;
90353;0.124023;0.026367;1.368164;
90493;0.112305;0.023438;1.293945;
90633;0.097656;0.023438;1.212891;
90769;0.086914;0.022461;1.118164;
90911;0.071289;0.023438;1.011719;
91049;0.056641;0.020508;0.934570;
91193;0.043945;0.025391;0.825195;
91330;0.040039;0.018555;0.729492;
91479;0.028320;0.023438;0.625000;
91619;0.019531;0.022461;0.527344;
91768;0.010742;0.030273;0.452148;
91919;0.007812;0.026367;0.375000;
92063;0.006836;0.029297;0.328125;
92213;0.004883;0.032227;0.260742;
92353;0.003906;0.032227;0.219727;
92493;0.002930;0.029297;0.140625;
92633;0.000977;0.032227;0.118164;
92773;0.007812;0.030273;0.105469;
92913;0.001953;0.033203;0.071289;
93053;-0.001953;0.032227;0.053711;
93193;0.000000;0.033203;0.036133;
93333;-0.000977;0.031250;0.029297;
93473;0.000000;0.031250;0.017578;
93613;0.001953;0.031250;0.018555;
93753;0.000977;0.026367;0.019531;
93893;0.000000;0.024414;0.008789;
94029;0.000000;0.027344;0.006836;
94169;0.000000;0.023438;0.019531;
94309;-0.004883;0.022461;0.007812;
94450;-0.004883;0.022461;0.010742;
94599;-0.001953;0.022461;0.020508;
94752;-0.002930;0.025391;0.018555;
94899;-0.005859;0.028320;0.023438;
95043;-0.006836;0.034180;0.012695;
95183;-0.004883;0.033203;0.016602;
95319;-0.011719;0.031250;0.007812;
95473;-0.007812;0.036133;0.010742;
95613;-0.008789;0.034180;0.004883;
95753;-0.006836;0.039062;0.000977;
95893;-0.011719;0.031250;0.004883;
96033;-0.007812;0.030273;0.004883;
96173;-0.011719;0.026367;0.003906;
96313;-0.006836;0.024414;0.016602;
96463;-0.006836;0.023438;0.012695;
96603;-0.007812;0.020508;0.013672;
96743;-0.006836;0.021484;0.006836;
96883;-0.005859;0.019531;0.010742;
97019;-0.010742;0.022461;0.014648;
97171;-0.010742;0.023438;0.008789;
97300;-0.008789;0.023438;0.011719;
97433;-0.010742;0.021484;0.012695;
97559;-0.009766;0.022461;0.023438;
97709;-0.012695;0.023438;0.010742;
97861;-0.008789;0.021484;0.020508;
98013;-0.013672;0.024414;0.025391;
98153;-0.012695;0.024414;0.035156;
98293;-0.012695;0.024414;0.034180;
98433;-0.010742;0.026367;0.030273;
98573;-0.011719;0.026367;0.031250;
98713;-0.012695;0.028320;0.038086;
98853;-0.012695;0.027344;0.032227;
98993;-0.014648;0.028320;0.030273;
99133;-0.015625;0.027344;0.032227;
99273;-0.013672;0.031250;0.043945;
99413;-0.015625;0.023438;0.033203;
99553;-0.010742;0.029297;0.045898;
99693;-0.014648;0.030273;0.051758;
99843;-0.014648;0.036133;0.036133;
99979;-0.015625;0.030273;0.041992;
100130;-0.014648;0.027344;0.037109;
100279;-0.014648;0.028320;0.042969;
100429;-0.017578;0.024414;0.033203;
100579;-0.014648;0.023438;0.037109;
100729;-0.015625;0.018555;0.030273;
100879;-0.012695;0.021484;0.035156;
101033;-0.011719;0.024414;0.035156;
101173;-0.012695;0.032227;0.019531;
101313;-0.016602;0.033203;0.017578;
101453;-0.016602;0.026367;0.017578;
101593;-0.012695;0.021484;0.015625;
101743;-0.016602;0.031250;0.010742;
101883;-0.015625;0.031250;0.014648;
102024;-0.015625;0.028320;0.018555;
102163;-0.016602;0.028320;0.012695;
102303;-0.016602;0.036133;0.008789;
102439;-0.017578;0.027344;0.015625;
102583;-0.016602;0.027344;0.016602;
102723;-0.025391;0.032227;-0.028320;
102859;-0.018555;0.024414;0.025391;
102999;-0.016602;0.028320;0.018555;
103149;-0.016602;0.028320;0.020508;
103289;-0.016602;0.028320;0.017578;
103429;-0.019531;0.028320;0.015625;
103569;-0.018555;0.027344;0.019531;
103709;-0.019531;0.026367;0.013672;
103853;-0.018555;0.026367;0.014648;
103993;-0.019531;0.026367;0.014648;
104143;-0.018555;0.026367;0.006836;
104283;-0.014648;0.031250;0.013672;
104423;-0.012695;0.027344;0.041992;
104553;-0.022461;0.027344;-0.017578;
104693;-0.014648;0.029297;0.027344;
104833;-0.025391;0.020508;0.027344;
104973;-0.019531;0.022461;0.036133;
105114;-0.020508;0.030273;0.024414;
105253;-0.022461;0.033203;-0.000977;
105393;-0.027344;0.014648;0.018555;
105533;-0.026367;0.026367;-0.010742;
105673;-0.022461;0.026367;0.008789;
105809;-0.018555;0.028320;0.004883;
105959;-0.018555;0.024414;0.004883;
106089;-0.021484;0.025391;0.011719;
106240;-0.020508;0.023438;-0.000977;
106369;-0.020508;0.023438;0.000000;
106519;-0.023438;0.024414;0.004883;
106663;-0.019531;0.020508;0.006836;
106809;-0.022461;0.025391;-0.000977;
106963;-0.022461;0.022461;-0.006836;
107103;-0.019531;0.025391;-0.001953;
107243;-0.023438;0.029297;-0.002930;
107383;-0.022461;0.025391;0.006836;
107523;-0.021484;0.028320;0.006836;
107663;-0.021484;0.029297;0.004883;
107803;-0.027344;0.031250;0.026367;
107943;-0.024414;0.028320;-0.008789;
108083;-0.022461;0.028320;0.005859;
108233;-0.025391;0.027344;0.009766;
108373;-0.024414;0.030273;0.019531;
108513;-0.025391;0.027344;0.008789;
108663;-0.021484;0.031250;0.016602;
108803;-0.025391;0.029297;0.021484;
108942;-0.025391;0.027344;0.020508;
109089;-0.025391;0.029297;0.026367;
109219;-0.025391;0.028320;0.025391;
109371;-0.022461;0.026367;0.026367;
109519;-0.026367;0.027344;0.026367;
109669;-0.024414;0.027344;0.026367;
109823;-0.019531;0.024414;0.033203;
109963;-0.023438;0.027344;0.035156;
110103;-0.025391;0.024414;0.024414;
110243;-0.025391;0.023438;0.026367;
110383;-0.023438;0.025391;0.028320;
110523;-0.026367;0.023438;0.023438;
110663;-0.025391;0.023438;0.016602;
110803;-0.030273;0.023438;0.015625;
110943;-0.029297;0.028320;0.010742;
111083;-0.030273;0.026367;0.012695;
111223;-0.030273;0.025391;0.015625;
111363;-0.028320;0.027344;0.026367;
111503;-0.032227;0.029297;0.005859;
111643;-0.031250;0.029297;0.013672;
111780;-0.030273;0.034180;0.007812;
111928;-0.029297;0.034180;0.000977;
112069;-0.031250;0.035156;-0.006836;
112199;-0.030273;0.036133;-0.004883;
112349;-0.032227;0.035156;-0.003906;
112499;-0.032227;0.032227;-0.017578;
112649;-0.031250;0.025391;-0.043945;
112803;-0.029297;0.021484;-0.050781;
112953;-0.030273;0.015625;-0.056641;
113093;-0.031250;0.021484;-0.035156;
113243;-0.030273;0.021484;-0.048828;
113383;-0.032227;0.022461;-0.041016;
113523;-0.033203;0.018555;-0.031250;
113673;-0.036133;0.022461;-0.036133;
113813;-0.033203;0.022461;-0.007812;
113953;-0.037109;0.028320;-0.013672;
114103;-0.037109;0.025391;-0.003906;
114243;-0.037109;0.027344;0.004883;
114383;-0.039062;0.029297;0.014648;
114523;-0.040039;0.029297;0.024414;
114659;-0.037109;0.031250;0.038086;
114809;-0.041992;0.027344;0.037109;
114959;-0.041016;0.025391;0.046875;
115109;-0.040039;0.027344;0.064453;
115263;-0.041992;0.025391;0.076172;
115399;-0.043945;0.024414;0.101562;
115539;-0.042969;0.021484;0.132812;
115683;-0.045898;0.021484;0.173828;
115833;-0.044922;0.016602;0.225586;
115974;-0.046875;0.021484;0.275391;
116113;-0.041016;0.014648;0.345703;
116253;-0.041992;0.015625;0.406250;
116393;-0.033203;0.015625;0.501953;
116533;-0.032227;0.018555;0.574219;
116673;-0.025391;0.019531;0.679688;
116813;-0.019531;0.017578;0.759766;
116953;-0.012695;0.020508;0.874023;
117093;-0.005859;0.015625;0.975586;
117239;-0.001953;0.011719;1.047852;
117393;0.009766;0.010742;1.131836;
117533;0.017578;0.010742;1.208984;
117673;0.023438;0.010742;1.253906;
117810;0.031250;0.010742;1.309570;
117949;0.037109;0.013672;1.344727;
118100;0.042969;0.015625;1.391602;
118239;0.045898;0.019531;1.424805;
118379;0.047852;0.019531;1.446289;
118528;0.048828;0.027344;1.479492;
118680;0.047852;0.026367;1.485352;
118823;0.041992;0.025391;1.482422;
118973;0.041992;0.025391;1.516602;
119113;0.042969;0.028320;1.525391;
119253;0.044922;0.026367;1.541016;
119393;0.042969;0.026367;1.558594;
119533;0.043945;0.026367;1.585938;
119673;0.042969;0.023438;1.592773;
119813;0.041992;0.029297;1.623047;
119953;0.045898;0.031250;1.644531;
120093;0.047852;0.026367;1.679688;
120233;0.044922;0.031250;1.696289;
120373;0.047852;0.035156;1.732422;
120513;0.052734;0.026367;1.750977;
120653;0.043945;0.023438;1.741211;
120789;0.047852;0.020508;1.732422;
120929;0.042969;0.021484;1.726562;
121079;0.039062;0.022461;1.713867;
121229;0.036133;0.024414;1.691406;
121369;0.030273;0.019531;1.713867;
121509;0.034180;0.025391;1.714844;
121663;0.034180;0.025391;1.726562;
121803;0.031250;0.023438;1.744141;
121953;0.034180;0.019531;1.778320;
122094;0.035156;0.014648;1.798828;
122233;0.038086;0.011719;1.842773;
122383;0.039062;0.002930;1.849609;
122523;0.039062;0.007812;1.878906;
122663;0.041992;0.007812;1.893555;
122813;0.042969;0.008789;1.935547;
122953;0.042969;0.004883;1.944336;
123093;0.042969;0.015625;1.952148;
123233;0.041016;0.022461;1.986328;
123373;0.037109;0.010742;1.971680;
123513;0.040039;0.021484;1.964844;
123659;0.036133;0.014648;1.951172;
123810;0.032227;0.016602;1.934570;
123949;0.034180;0.016602;1.918945;
124099;0.027344;0.021484;1.882812;
124249;0.022461;0.016602;1.846680;
124403;0.021484;0.017578;1.828125;
124543;0.014648;0.018555;1.782227;
124683;0.011719;0.015625;1.762695;
124823;0.007812;0.018555;1.755859;
124964;0.005859;0.019531;1.744141;
125113;0.005859;0.016602;1.747070;
125253;0.006836;0.016602;1.755859;
125393;0.003906;0.019531;1.762695;
125533;0.004883;0.018555;1.769531;
125673;0.001953;0.021484;1.791016;
125813;0.003906;0.024414;1.813477;
125953;0.005859;0.025391;1.828125;
126093;0.006836;0.027344;1.847656;
126243;0.006836;0.022461;1.858398;
126379;0.006836;0.022461;1.863281;
126519;0.005859;0.019531;1.872070;
126659;0.005859;0.021484;1.879883;
126799;0.006836;0.016602;1.889648;
126949;0.005859;0.016602;1.887695;
127089;0.004883;0.015625;1.888672;
127239;0.005859;0.013672;1.884766;
127393;0.001953;0.016602;1.867188;
127533;0.000000;0.011719;1.866211;
127673;-0.000977;0.013672;1.846680;
127813;-0.002930;0.008789;1.841797;
127953;-0.005859;0.010742;1.833008;
128093;-0.006836;0.006836;1.818359;
128233;-0.007812;0.013672;1.806641;
128373;-0.010742;0.015625;1.808594;
128513;-0.011719;0.015625;1.797852;
128654;-0.014648;0.018555;1.783203;
128793;-0.015625;0.018555;1.795898;
128933;-0.013672;0.020508;1.802734;
129073;-0.015625;0.021484;1.810547;
129213;-0.015625;0.019531;1.814453;
129349;-0.014648;0.021484;1.825195;
129491;-0.012695;0.019531;1.843750;
129623;-0.010742;0.017578;1.858398;
129769;-0.009766;0.017578;1.868164;
129919;-0.012695;0.018555;1.875977;
130069;-0.011719;0.018555;1.881836;
130223;-0.012695;0.018555;1.887695;
130373;-0.010742;0.018555;1.895508;
130513;-0.009766;0.021484;1.898438;
130653;-0.012695;0.016602;1.889648;
130793;-0.013672;0.017578;1.894531;
130933;-0.015625;0.017578;1.882812;
131073;-0.017578;0.012695;1.874023;
131213;-0.014648;0.019531;1.872070;
131353;-0.014648;0.014648;1.864258;
131493;-0.017578;0.017578;1.861328;
131633;-0.019531;0.013672;1.845703;
131773;-0.021484;0.012695;1.832031;
131923;-0.023438;0.014648;1.828125;
132063;-0.022461;0.016602;1.828125;
132199;-0.024414;0.017578;1.822266;
132349;-0.027344;0.016602;1.812500;
132490;-0.024414;0.017578;1.798828;
132639;-0.029297;0.018555;1.780273;
132789;-0.030273;0.017578;1.768555;
132939;-0.032227;0.014648;1.734375;
133083;-0.038086;0.017578;1.698242;
133223;-0.038086;0.017578;1.666016;
133363;-0.044922;0.011719;1.614258;
133503;-0.046875;0.015625;1.581055;
133643;-0.055664;0.016602;1.537109;
133783;-0.053711;0.020508;1.511719;
133923;-0.055664;0.016602;1.470703;
134063;-0.059570;0.018555;1.455078;
134203;-0.062500;0.015625;1.440430;
134353;-0.062500;0.015625;1.437500;
134493;-0.060547;0.009766;1.435547;
134633;-0.060547;0.010742;1.440430;
134773;-0.060547;0.011719;1.439453;
134913;-0.062500;0.012695;1.433594;
135061;-0.061523;0.012695;1.449219;
135209;-0.063477;0.013672;1.446289;
135359;-0.061523;0.013672;1.422852;
135509;-0.063477;0.020508;1.424805;
135659;-0.067383;0.019531;1.395508;
135803;-0.069336;0.018555;1.379883;
135943;-0.070312;0.022461;1.343750;
136093;-0.071289;0.022461;1.325195;
136233;-0.075195;0.022461;1.277344;
136373;-0.078125;0.020508;1.238281;
136523;-0.078125;0.021484;1.212891;
136663;-0.081055;0.018555;1.177734;
136803;-0.083008;0.019531;1.162109;
136944;-0.083008;0.017578;1.126953;
137083;-0.082031;0.018555;1.108398;
137223;-0.086914;0.010742;1.075195;
137373;-0.090820;0.015625;1.054688;
137513;-0.087891;0.019531;1.041992;
137653;-0.090820;0.018555;1.025391;
137799;-0.087891;0.019531;1.018555;
137939;-0.094727;0.021484;1.003906;
138099;-0.090820;0.022461;0.997070;
138249;-0.094727;0.020508;0.989258;
138399;-0.090820;0.021484;0.979492;
138539;-0.094727;0.019531;0.972656;
138683;-0.092773;0.024414;0.961914;
138823;-0.092773;0.024414;0.966797;
138963;-0.094727;0.022461;0.950195;
139103;-0.093750;0.021484;0.947266;
139243;-0.096680;0.016602;0.930664;
139393;-0.093750;0.020508;0.938477;
139533;-0.094727;0.016602;0.934570;
139673;-0.095703;0.017578;0.945312;
139823;-0.096680;0.019531;0.952148;
139963;-0.090820;0.021484;0.977539;
140103;-0.091797;0.019531;0.990234;
140243;-0.088867;0.023438;1.033203;
140383;-0.090820;0.018555;1.053711;
140523;-0.085938;0.018555;1.089844;
140659;-0.087891;0.020508;1.112305;
140799;-0.083984;0.020508;1.151367;
140950;-0.083008;0.019531;1.179688;
141099;-0.083008;0.017578;1.189453;
141249;-0.083008;0.014648;1.204102;
141388;-0.083008;0.014648;1.218750;
141533;-0.081055;0.017578;1.220703;
141673;-0.080078;0.016602;1.233398;
141813;-0.081055;0.015625;1.217773;
141953;-0.082031;0.017578;1.207031;
142103;-0.083984;0.017578;1.180664;
142243;-0.082031;0.016602;1.163086;
142383;-0.084961;0.016602;1.147461;
142523;-0.086914;0.021484;1.152344;
142663;-0.083984;0.021484;1.146484;
142803;-0.084961;0.022461;1.169922;
142943;-0.084961;0.017578;1.192383;
143083;-0.081055;0.020508;1.208984;
143223;-0.080078;0.018555;1.223633;
143363;-0.083008;0.021484;1.239258;
143499;-0.080078;0.024414;1.265625;
143649;-0.077148;0.022461;1.280273;
143800;-0.079102;0.021484;1.292969;
143939;-0.075195;0.021484;1.310547;
144069;-0.075195;0.018555;1.324219;
144213;-0.076172;0.015625;1.312500;
144359;-0.075195;0.017578;1.312500;
144509;-0.076172;0.015625;1.317383;
144663;-0.074219;0.017578;1.289062;
144803;-0.077148;0.014648;1.269531;
144953;-0.078125;0.021484;1.253906;
145093;-0.080078;0.016602;1.236328;
145233;-0.079102;0.018555;1.228516;
145373;-0.080078;0.017578;1.226562;
145513;-0.085938;0.015625;1.227539;
145653;-0.078125;0.018555;1.234375;
145793;-0.080078;0.020508;1.244141;
145933;-0.075195;0.020508;1.278320;
146073;-0.074219;0.021484;1.309570;
146213;-0.072266;0.019531;1.326172;
146353;-0.075195;0.018555;1.352539;
146493;-0.072266;0.025391;1.370117;
146629;-0.072266;0.019531;1.387695;
146779;-0.070312;0.020508;1.388672;
146919;-0.070312;0.026367;1.405273;
147069;-0.068359;0.018555;1.402344;
147219;-0.068359;0.016602;1.417969;
147359;-0.064453;0.018555;1.414062;
147513;-0.065430;0.013672;1.414062;
147663;-0.065430;0.012695;1.418945;
147813;-0.065430;0.012695;1.419922;
147953;-0.065430;0.013672;1.435547;
148093;-0.068359;0.010742;1.419922;
148233;-0.066406;0.015625;1.430664;
148373;-0.063477;0.015625;1.430664;
148513;-0.065430;0.020508;1.418945;
148653;-0.065430;0.012695;1.397461;
148793;-0.067383;0.018555;1.382812;
148933;-0.069336;0.017578;1.359375;
149073;-0.072266;0.018555;1.326172;
149213;-0.072266;0.017578;1.285156;
149353;-0.074219;0.019531;1.258789;
149489;-0.074219;0.016602;1.239258;
149629;-0.076172;0.018555;1.201172;
149779;-0.074219;0.015625;1.171875;
149929;-0.079102;0.011719;1.144531;
150079;-0.079102;0.017578;1.127930;
150223;-0.075195;0.016602;1.110352;
150363;-0.078125;0.016602;1.086914;
150489;-0.075195;0.019531;1.068359;
150640;-0.079102;0.018555;1.041992;
150793;-0.081055;0.014648;1.004883;
150933;-0.072266;0.018555;0.993164;
151083;-0.077148;0.019531;0.986328;
151223;-0.076172;0.016602;0.973633;
151363;-0.071289;0.017578;0.973633;
151513;-0.070312;0.015625;0.978516;
151653;-0.067383;0.016602;0.970703;
151793;-0.064453;0.014648;0.968750;
151933;-0.060547;0.014648;0.967773;
152073;-0.056641;0.012695;0.964844;
152213;-0.052734;0.016602;0.966797;
152353;-0.046875;0.012695;0.967773;
152503;-0.044922;0.013672;0.981445;
152643;-0.041992;0.009766;0.994141;
152779;-0.034180;0.012695;1.023438;
152909;-0.038086;0.009766;1.023438;
153049;-0.032227;0.016602;1.053711;
153199;-0.030273;0.017578;1.083984;
153350;-0.029297;0.018555;1.096680;
153489;-0.029297;0.016602;1.130859;
153633;-0.027344;0.022461;1.166016;
153760;-0.027344;0.017578;1.174805;
153913;-0.027344;0.024414;1.191406;
154053;-0.026367;0.025391;1.213867;
154193;-0.025391;0.025391;1.182617;
154343;-0.023438;0.025391;1.188477;
154483;-0.021484;0.021484;1.169922;
154623;-0.021484;0.024414;1.161133;
154773;-0.017578;0.020508;1.124023;
154913;-0.016602;0.018555;1.113281;
155053;-0.017578;0.017578;1.096680;
155193;-0.013672;0.017578;1.084961;
155333;-0.014648;0.021484;1.070312;
155473;-0.013672;0.019531;1.046875;
155613;-0.012695;0.020508;1.041016;
155753;-0.008789;0.021484;1.036133;
155889;-0.010742;0.017578;1.032227;
156029;-0.011719;0.014648;1.024414;
156189;-0.011719;0.021484;1.039062;
156339;-0.006836;0.013672;1.032227;
156489;-0.006836;0.013672;1.025391;
156643;-0.001953;0.023438;1.044922;
156783;-0.000977;0.016602;1.038086;
156923;0.002930;0.020508;1.055664;
157063;0.005859;0.024414;1.062500;
157203;0.006836;0.021484;1.062500;
157353;0.007812;0.020508;1.071289;
157493;0.005859;0.017578;1.068359;
157633;0.006836;0.022461;1.059570;
157773;0.004883;0.018555;1.040039;
157913;0.005859;0.021484;1.022461;
158053;0.001953;0.020508;1.017578;
158193;0.002930;0.018555;0.985352;
158333;0.003906;0.019531;0.975586;
158473;0.001953;0.020508;0.958984;
158609;0.003906;0.017578;0.949219;
158759;0.000977;0.021484;0.945312;
158899;0.004883;0.024414;0.921875;
159029;0.005859;0.021484;0.933594;
159159;0.003906;0.018555;0.914062;
159289;0.006836;0.017578;0.901367;
159430;0.010742;0.024414;0.907227;
159583;0.009766;0.024414;0.915039;
159723;0.008789;0.021484;0.922852;
159863;0.010742;0.020508;0.929688;
160003;0.010742;0.020508;0.953125;
160143;0.005859;0.022461;0.962891;
160283;0.009766;0.026367;0.967773;
160423;0.005859;0.021484;0.994141;
160563;0.004883;0.027344;0.992188;
160703;0.005859;0.024414;1.003906;
160843;0.003906;0.021484;1.014648;
160983;0.000000;0.021484;1.016602;
161123;-0.000977;0.025391;1.009766;
161263;-0.002930;0.024414;1.015625;
161413;-0.002930;0.025391;1.005859;
161549;-0.008789;0.024414;1.005859;
161689;-0.008789;0.019531;1.017578;
161829;-0.008789;0.019531;1.013672;
161979;-0.005859;0.020508;1.014648;
162130;-0.009766;0.019531;1.006836;
162279;-0.008789;0.023438;1.025391;
162433;-0.008789;0.025391;1.022461;
162573;-0.010742;0.019531;1.038086;
162723;-0.006836;0.017578;1.063477;
162863;-0.011719;0.017578;1.067383;
163003;-0.008789;0.018555;1.074219;
163143;-0.007812;0.018555;1.079102;
163283;-0.005859;0.020508;1.092773;
163423;-0.007812;0.017578;1.099609;
163564;-0.006836;0.021484;1.114258;
163703;-0.000977;0.020508;1.118164;
163843;-0.004883;0.018555;1.108398;
163993;-0.005859;0.018555;1.096680;
164227;-0.006836;0.023438;1.085938;
164381;-0.012695;0.021484;1.072266;
164519;-0.012695;0.022461;1.069336;
164669;-0.012695;0.023438;1.066406;
164819;-0.010742;0.021484;1.055664;
164969;-0.015625;0.021484;1.048828;
165119;-0.012695;0.023438;1.050781;
165273;-0.011719;0.020508;1.050781;
165423;-0.009766;0.025391;1.051758;
165563;-0.010742;0.022461;1.035156;
165703;-0.009766;0.020508;1.048828;
165843;-0.010742;0.019531;1.037109;
165983;-0.010742;0.022461;1.031250;
166123;-0.011719;0.023438;1.032227;
166273;-0.012695;0.017578;1.026367;
166413;-0.011719;0.023438;1.037109;
166553;-0.009766;0.022461;1.043945;
166703;-0.009766;0.022461;1.055664;
166843;-0.007812;0.023438;1.044922;
166983;-0.008789;0.021484;1.050781;
167135;-0.010742;0.017578;1.050781;
167279;-0.011719;0.018555;1.043945;
167429;-0.007812;0.016602;1.041992;
167569;-0.013672;0.018555;1.019531;
167719;-0.015625;0.019531;1.019531;
167869;-0.011719;0.022461;1.023438;
168023;-0.014648;0.023438;1.017578;
168173;-0.012695;0.023438;1.025391;
168313;-0.011719;0.022461;1.018555;
168453;-0.011719;0.018555;1.032227;
168593;-0.010742;0.015625;1.036133;
168733;-0.005859;0.021484;1.023438;
168873;-0.011719;0.023438;1.018555;
169013;-0.013672;0.022461;1.011719;
169154;-0.016602;0.024414;1.013672;
169293;-0.014648;0.023438;1.002930;
169433;-0.010742;0.023438;1.014648;
169573;-0.012695;0.020508;1.011719;
169723;-0.012695;0.024414;1.005859;
169863;-0.011719;0.023438;1.016602;
170009;-0.013672;0.028320;1.018555;
170159;-0.012695;0.023438;1.016602;
170303;-0.016602;0.021484;1.005859;
170453;-0.013672;0.025391;1.011719;
170590;-0.014648;0.021484;1.002930;
170729;-0.016602;0.018555;1.000977;
170881;-0.017578;0.020508;1.007812;
171033;-0.011719;0.017578;1.009766;
171173;-0.012695;0.020508;1.026367;
171323;-0.009766;0.027344;1.028320;
171463;-0.010742;0.016602;1.033203;
171603;-0.011719;0.020508;1.034180;
171753;-0.010742;0.016602;1.052734;
171893;-0.009766;0.021484;1.051758;
172033;-0.011719;0.017578;1.064453;
172173;-0.012695;0.017578;1.068359;
172313;-0.011719;0.010742;1.076172;
172464;-0.008789;0.017578;1.101562;
172603;-0.009766;0.015625;1.103516;
172743;-0.006836;0.020508;1.111328;
172883;-0.006836;0.012695;1.106445;
173019;-0.004883;0.022461;1.111328;
173159;-0.010742;0.016602;1.098633;
173309;-0.009766;0.023438;1.090820;
173459;-0.009766;0.018555;1.090820;
173599;-0.010742;0.023438;1.084961;
173749;-0.010742;0.018555;1.073242;
173903;-0.014648;0.022461;1.081055;
174043;-0.009766;0.021484;1.086914;
174183;-0.008789;0.023438;1.079102;
174323;-0.009766;0.017578;1.079102;
174463;-0.007812;0.019531;1.073242;
174603;-0.008789;0.019531;1.060547;
174743;-0.009766;0.025391;1.060547;
174893;-0.010742;0.016602;1.059570;
175033;-0.009766;0.015625;1.070312;
175173;-0.009766;0.019531;1.064453;
175313;-0.010742;0.016602;1.073242;
175453;-0.008789;0.017578;1.076172;
175593;-0.009766;0.017578;1.063477;
175733;-0.010742;0.019531;1.064453;
175869;-0.010742;0.014648;1.044922;
176009;-0.012695;0.014648;1.037109;
176159;-0.009766;0.015625;1.044922;
176299;-0.011719;0.018555;1.038086;
176449;-0.013672;0.017578;1.034180;
176593;-0.010742;0.019531;1.045898;
176733;-0.009766;0.022461;1.043945;
176873;-0.009766;0.019531;1.031250;
177013;-0.012695;0.019531;1.024414;
177153;-0.012695;0.018555;1.002930;
177293;-0.017578;0.016602;0.999023;
177433;-0.016602;0.023438;1.007812;
177573;-0.010742;0.021484;1.001953;
177723;-0.014648;0.020508;1.003906;
177863;-0.009766;0.023438;1.021484;
178003;-0.010742;0.016602;1.001953;
178153;-0.011719;0.019531;1.003906;
178293;-0.012695;0.018555;0.990234;
178433;-0.011719;0.020508;0.987305;
178569;-0.013672;0.017578;0.977539;
178711;-0.015625;0.017578;0.974609;
178859;-0.013672;0.020508;0.986328;
179000;-0.017578;0.018555;0.972656;
179150;-0.012695;0.020508;0.981445;
179299;-0.014648;0.020508;0.985352;
179431;-0.011719;0.021484;0.988281;
179579;-0.014648;0.020508;0.980469;
179723;-0.013672;0.020508;0.993164;
179863;-0.013672;0.020508;0.998047;
180003;-0.013672;0.021484;0.999023;
180143;-0.014648;0.018555;1.008789;
180293;-0.012695;0.018555;1.039062;
180433;-0.011719;0.018555;1.041016;
180573;-0.008789;0.016602;1.050781;
180713;-0.009766;0.021484;1.060547;
180853;-0.009766;0.019531;1.058594;
180993;-0.013672;0.023438;1.050781;
181143;-0.012695;0.020508;1.052734;
181283;-0.010742;0.019531;1.046875;
181423;-0.011719;0.021484;1.051758;
181563;-0.007812;0.023438;1.057617;
181699;-0.011719;0.022461;1.053711;
181839;-0.009766;0.022461;1.053711;
181970;-0.013672;0.020508;1.047852;
182119;-0.010742;0.021484;1.032227;
182269;-0.013672;0.018555;1.028320;
182409;-0.011719;0.015625;1.018555;
182563;-0.012695;0.025391;1.018555;
182703;-0.011719;0.022461;1.022461;
182843;-0.008789;0.019531;1.040039;
182983;-0.010742;0.018555;1.026367;
183123;-0.008789;0.015625;1.027344;
183263;-0.010742;0.021484;1.027344;
183403;-0.010742;0.018555;1.029297;
183543;-0.014648;0.022461;1.016602;
183683;-0.010742;0.021484;1.024414;
183823;-0.010742;0.024414;1.045898;
183963;-0.011719;0.015625;1.035156;
184103;-0.006836;0.016602;1.049805;
184243;-0.011719;0.016602;1.049805;
184393;-0.009766;0.016602;1.035156;
184533;-0.011719;0.015625;1.046875;
184659;-0.009766;0.018555;1.038086;
184799;-0.010742;0.017578;1.034180;
184939;-0.012695;0.020508;1.038086;
185089;-0.011719;0.020508;1.040039;
185239;-0.013672;0.023438;1.039062;
185381;-0.009766;0.020508;1.045898;
185523;-0.009766;0.022461;1.044922;
185663;-0.012695;0.021484;1.032227;
185803;-0.009766;0.021484;1.040039;
185943;-0.011719;0.019531;1.036133;
186079;-0.010742;0.019531;1.039062;
186223;-0.010742;0.017578;1.038086;
186363;-0.011719;0.021484;1.045898;
186503;-0.013672;0.017578;1.046875;
186639;-0.006836;0.020508;1.042969;
186783;-0.009766;0.022461;1.049805;
186933;-0.008789;0.014648;1.032227;
187073;-0.007812;0.018555;1.042969;
187223;-0.009766;0.018555;1.041992;
187369;-0.012695;0.015625;1.038086;
187499;-0.010742;0.021484;1.051758;
187659;-0.010742;0.022461;1.060547;
187809;-0.010742;0.016602;1.057617;
187950;-0.010742;0.017578;1.064453;
188098;-0.005859;0.020508;1.065430;
188249;-0.008789;0.021484;1.063477;
188389;-0.007812;0.021484;1.067383;
188539;-0.005859;0.023438;1.060547;
188683;-0.008789;0.020508;1.050781;
188833;-0.009766;0.019531;1.037109;
188973;-0.009766;0.019531;1.037109;
189123;-0.009766;0.024414;1.039062;
189259;-0.011719;0.021484;1.036133;
189410;-0.013672;0.024414;1.022461;
189563;-0.014648;0.020508;1.025391;
189703;-0.012695;0.018555;1.032227;
189844;-0.010742;0.021484;1.016602;
189983;-0.008789;0.020508;1.019531;
190119;-0.009766;0.020508;1.020508;
190263;-0.009766;0.018555;1.014648;
190403;-0.009766;0.012695;1.006836;
190559;-0.010742;0.020508;1.013672;
190709;-0.009766;0.016602;1.019531;
190859;-0.011719;0.014648;1.015625;
191009;-0.009766;0.016602;1.018555;
191149;-0.010742;0.019531;1.021484;
191289;-0.010742;0.018555;1.031250;
191439;-0.008789;0.021484;1.018555;
191589;-0.008789;0.021484;1.014648;
191729;-0.008789;0.022461;1.013672;
191885;-0.012695;0.022461;1.015625;
192039;-0.011719;0.020508;1.012695;
192183;-0.014648;0.025391;1.008789;
192323;-0.007812;0.022461;1.010742;
192463;-0.015625;0.022461;1.019531;
192605;-0.011719;0.027344;1.021484;
192749;-0.008789;0.023438;1.015625;
192880;-0.011719;0.019531;1.021484;
193023;-0.010742;0.024414;1.015625;
193163;-0.010742;0.021484;1.007812;
193303;-0.011719;0.020508;1.005859;
193449;-0.010742;0.020508;1.015625;
193599;-0.010742;0.021484;1.009766;
193753;-0.011719;0.021484;1.019531;
193889;-0.008789;0.023438;1.035156;
194039;-0.010742;0.020508;1.023438;
194169;-0.009766;0.020508;1.023438;
194309;-0.007812;0.019531;1.026367;
194459;-0.008789;0.020508;1.027344;
194609;-0.013672;0.018555;1.011719;
194739;-0.012695;0.020508;1.000977;
194889;-0.008789;0.024414;1.021484;
195039;-0.013672;0.026367;1.011719;
195189;-0.013672;0.026367;1.016602;
195343;-0.009766;0.023438;1.021484;
195483;-0.007812;0.025391;1.026367;
195623;-0.010742;0.016602;1.024414;
195759;-0.012695;0.027344;1.018555;
195889;-0.007812;0.021484;1.019531;
196029;-0.013672;0.017578;1.026367;
196173;-0.010742;0.016602;1.030273;
196323;-0.009766;0.016602;1.034180;
196463;-0.011719;0.017578;1.045898;
196599;-0.006836;0.018555;1.045898;
196743;-0.006836;0.019531;1.059570;
196893;-0.010742;0.017578;1.054688;
197033;-0.009766;0.019531;1.049805;
197169;-0.008789;0.019531;1.053711;
197319;-0.012695;0.017578;1.044922;
197469;-0.008789;0.019531;1.050781;
197609;-0.010742;0.022461;1.044922;
197759;-0.012695;0.021484;1.056641;
197899;-0.009766;0.016602;1.051758;
198029;-0.008789;0.021484;1.062500;
198179;-0.007812;0.024414;1.052734;
198329;-0.005859;0.025391;1.046875;
198479;-0.008789;0.019531;1.025391;
198633;-0.006836;0.025391;1.039062;
198773;-0.012695;0.017578;1.027344;
198913;-0.010742;0.025391;1.022461;
199049;-0.012695;0.023438;1.020508;
199193;-0.013672;0.023438;1.020508;
199333;-0.008789;0.023438;1.020508;
199473;-0.007812;0.025391;1.031250;
199619;-0.008789;0.019531;1.025391;
199759;-0.007812;0.023438;1.025391;
199913;-0.007812;0.018555;1.019531;
200053;-0.014648;0.020508;1.013672;
200193;-0.011719;0.020508;1.011719;
200329;-0.008789;0.021484;1.025391;
200459;-0.013672;0.019531;1.029297;
200609;-0.006836;0.025391;1.028320;
200749;-0.008789;0.017578;1.032227;
200879;-0.008789;0.025391;1.035156;
201019;-0.011719;0.013672;1.022461;
201170;-0.008789;0.021484;1.016602;
201319;-0.015625;0.022461;1.020508;
201469;-0.010742;0.024414;1.027344;
201623;-0.013672;0.018555;1.026367;
201760;-0.009766;0.020508;1.039062;
201909;-0.008789;0.020508;1.035156;
202063;-0.006836;0.024414;1.032227;
202200;-0.007812;0.015625;1.033203;
202333;-0.008789;0.020508;1.039062;
202469;-0.011719;0.017578;1.032227;
202613;-0.013672;0.021484;1.037109;
202753;-0.010742;0.024414;1.039062;
202893;-0.012695;0.027344;1.030273;
203029;-0.011719;0.020508;1.045898;
203173;-0.009766;0.018555;1.027344;
203313;-0.006836;0.014648;1.029297;
203453;-0.006836;0.022461;1.049805;
203593;-0.013672;0.017578;1.032227;
203729;-0.010742;0.020508;1.030273;
203869;-0.010742;0.025391;1.032227;
204009;-0.014648;0.024414;1.040039;
204159;-0.012695;0.020508;1.027344;
204319;-0.010742;0.026367;1.031250;
204470;-0.009766;0.020508;1.046875;
204619;-0.008789;0.017578;1.036133;
204759;-0.008789;0.023438;1.042969;
204901;-0.007812;0.019531;1.034180;
205043;-0.015625;0.014648;1.026367;
205183;-0.005859;0.019531;1.034180;
205323;-0.012695;0.019531;1.017578;
205473;-0.011719;0.019531;1.029297;
205619;-0.011719;0.026367;1.045898;
205773;-0.007812;0.024414;1.037109;
205913;-0.011719;0.019531;1.041992;
206063;-0.009766;0.026367;1.044922;
206199;-0.008789;0.028320;1.041992;
206349;-0.007812;0.023438;1.054688;
206503;-0.006836;0.025391;1.038086;
206643;-0.010742;0.019531;1.030273;
206783;-0.009766;0.025391;1.036133;
206920;-0.008789;0.025391;1.042969;
207060;-0.010742;0.026367;1.035156;
207209;-0.009766;0.021484;1.049805;
207351;-0.011719;0.017578;1.041992;
207498;-0.005859;0.015625;1.041016;
207639;-0.007812;0.017578;1.042969;
207790;-0.010742;0.011719;1.045898;
207939;-0.009766;0.017578;1.034180;
208093;-0.009766;0.018555;1.033203;
208243;-0.012695;0.022461;1.017578;
208383;-0.010742;0.027344;1.025391;
208519;-0.010742;0.024414;1.028320;
208663;-0.007812;0.016602;1.038086;
208803;-0.008789;0.022461;1.049805;
208943;-0.005859;0.026367;1.041016;
209083;-0.006836;0.031250;1.041992;
209229;-0.008789;0.029297;1.044922;
209359;-0.010742;0.024414;1.035156;
209503;-0.008789;0.017578;1.036133;
209643;-0.011719;0.023438;1.024414;
209783;-0.012695;0.024414;1.027344;
209919;-0.009766;0.025391;1.033203;
210069;-0.008789;0.022461;1.049805;
210211;-0.009766;0.024414;1.071289;
210359;-0.006836;0.022461;1.067383;
210509;-0.011719;0.023438;1.055664;
210649;-0.008789;0.022461;1.065430;
210799;-0.007812;0.014648;1.063477;
210949;-0.008789;0.025391;1.069336;
211088;-0.010742;0.021484;1.062500;
211241;-0.010742;0.025391;1.076172;
211389;-0.009766;0.020508;1.070312;
211543;-0.009766;0.021484;1.077148;
211685;-0.005859;0.016602;1.080078;
211843;-0.008789;0.022461;1.076172;
211983;-0.006836;0.018555;1.077148;
212123;-0.005859;0.017578;1.084961;
212273;-0.004883;0.020508;1.090820;
212409;-0.006836;0.020508;1.065430;
212563;-0.009766;0.020508;1.059570;
212703;-0.007812;0.021484;1.051758;
212853;-0.009766;0.015625;1.061523;
212993;-0.010742;0.017578;1.057617;
213129;-0.006836;0.014648;1.053711;
213263;-0.006836;0.022461;1.075195;
213403;-0.005859;0.021484;1.078125;
213539;-0.005859;0.016602;1.056641;
213689;-0.006836;0.015625;1.053711;
213840;-0.010742;0.017578;1.061523;
213979;-0.008789;0.014648;1.052734;
214129;-0.008789;0.023438;1.071289;
214269;-0.010742;0.021484;1.071289;
214418;-0.011719;0.019531;1.067383;
214563;-0.007812;0.018555;1.079102;
214700;-0.010742;0.020508;1.078125;
214839;-0.004883;0.017578;1.069336;
214979;-0.007812;0.016602;1.069336;
215133;-0.008789;0.016602;1.059570;
215273;-0.006836;0.015625;1.055664;
215413;-0.008789;0.020508;1.069336;
215550;-0.009766;0.020508;1.072266;
215693;-0.006836;0.021484;1.075195;
215833;-0.006836;0.022461;1.072266;
215973;-0.007812;0.024414;1.061523;
216113;-0.010742;0.022461;1.054688;
216239;-0.006836;0.022461;1.044922;
216393;-0.008789;0.022461;1.052734;
216533;-0.011719;0.021484;1.032227;
216683;-0.010742;0.019531;1.021484;
216819;-0.009766;0.019531;1.026367;
216959;-0.012695;0.024414;1.006836;
217109;-0.007812;0.022461;0.995117;
217259;-0.007812;0.017578;0.970703;
217409;-0.008789;0.019531;0.961914;
217559;-0.009766;0.014648;0.948242;
217710;-0.009766;0.016602;0.949219;
217861;-0.011719;0.016602;0.927734;
218009;-0.012695;0.018555;0.923828;
218160;-0.003906;0.020508;0.924805;
218299;0.000000;0.020508;0.926758;
218443;0.007812;0.015625;0.929688;
218583;0.014648;0.018555;0.950195;
218723;0.018555;0.016602;0.966797;
218863;0.014648;0.013672;0.984375;
219003;0.017578;0.010742;0.992188;
219143;0.019531;0.015625;1.002930;
219283;0.021484;0.020508;1.022461;
219423;0.017578;0.019531;1.018555;
219573;0.017578;0.017578;1.018555;
219713;0.013672;0.025391;1.012695;
219853;0.013672;0.016602;1.014648;
219993;0.013672;0.026367;1.020508;
220133;0.013672;0.021484;1.011719;
220283;0.017578;0.020508;1.012695;
220418;0.014648;0.014648;1.018555;
220570;0.014648;0.022461;1.016602;
220709;0.016602;0.013672;1.020508;
220839;0.013672;0.012695;1.028320;
220979;0.015625;0.019531;1.032227;
221119;0.014648;0.019531;1.030273;
221269;0.013672;0.015625;1.036133;
221419;0.015625;0.016602;1.044922;
221573;0.016602;0.016602;1.042969;
