Time;acc_x;acc_y;acc_z;

351008;0.014648;0.024414;0.912109;
351229;0.013672;0.023438;0.909180;
351379;0.012695;0.022461;0.903320;
351519;0.016602;0.024414;0.908203;
351659;0.016602;0.024414;0.910156;
351799;0.013672;0.031250;0.907227;
351939;0.017578;0.027344;0.915039;
352079;0.015625;0.027344;0.927734;
352219;0.013672;0.027344;0.927734;
352359;0.021484;0.025391;0.945312;
352499;0.016602;0.027344;0.943359;
352639;0.019531;0.029297;0.954102;
352779;0.018555;0.025391;0.955078;
352919;0.017578;0.028320;0.959961;
353059;0.016602;0.024414;0.966797;
353199;0.021484;0.025391;0.973633;
353339;0.018555;0.024414;0.974609;
353479;0.019531;0.025391;0.982422;
353614;0.024414;0.026367;1.000977;
353754;0.022461;0.022461;1.009766;
353894;0.023438;0.022461;1.015625;
354034;0.024414;0.024414;1.025391;
354175;0.024414;0.023438;1.043945;
354314;0.025391;0.021484;1.044922;
354454;0.023438;0.019531;1.050781;
354599;0.024414;0.025391;1.072266;
354744;0.028320;0.021484;1.085938;
354879;0.029297;0.026367;1.106445;
355029;0.031250;0.018555;1.122070;
355169;0.036133;0.020508;1.144531;
355309;0.035156;0.026367;1.156250;
355449;0.034180;0.024414;1.170898;
355589;0.033203;0.020508;1.165039;
355729;0.036133;0.024414;1.167969;
355879;0.032227;0.022461;1.157227;
356019;0.032227;0.028320;1.151367;
356159;0.031250;0.025391;1.144531;
356310;0.030273;0.025391;1.130859;
356449;0.033203;0.022461;1.132812;
356584;0.031250;0.025391;1.125000;
356714;0.029297;0.020508;1.102539;
356864;0.029297;0.019531;1.086914;
357004;0.028320;0.020508;1.079102;
357134;0.024414;0.020508;1.066406;
357275;0.028320;0.025391;1.072266;
357424;0.025391;0.021484;1.058594;
357564;0.026367;0.023438;1.068359;
357694;0.027344;0.020508;1.057617;
357839;0.025391;0.019531;1.056641;
357979;0.025391;0.019531;1.061523;
358114;0.026367;0.022461;1.059570;
358259;0.023438;0.023438;1.055664;
358409;0.026367;0.020508;1.058594;
358544;0.025391;0.022461;1.061523;
358699;0.024414;0.026367;1.062500;
358824;0.026367;0.023438;1.065430;
358959;0.026367;0.025391;1.062500;
359099;0.022461;0.022461;1.061523;
359239;0.026367;0.025391;1.070312;
359379;0.023438;0.021484;1.059570;
359514;0.025391;0.026367;1.065430;
359659;0.026367;0.028320;1.064453;
359799;0.024414;0.023438;1.064453;
359939;0.026367;0.025391;1.067383;
360079;0.025391;0.023438;1.063477;
360214;0.027344;0.020508;1.063477;
360354;0.024414;0.023438;1.061523;
360494;0.025391;0.020508;1.066406;
360647;0.026367;0.023438;1.057617;
360784;0.026367;0.023438;1.069336;
360924;0.027344;0.021484;1.068359;
361074;0.025391;0.023438;1.059570;
361214;0.024414;0.025391;1.065430;
361349;0.026367;0.029297;1.064453;
361484;0.026367;0.027344;1.060547;
361624;0.022461;0.022461;1.059570;
361765;0.027344;0.026367;1.064453;
361914;0.027344;0.023438;1.060547;
362054;0.026367;0.024414;1.065430;
362199;0.027344;0.025391;1.068359;
362339;0.026367;0.024414;1.061523;
362474;0.025391;0.020508;1.057617;
362619;0.024414;0.024414;1.058594;
362759;0.025391;0.019531;1.063477;
362899;0.027344;0.021484;1.055664;
363039;0.025391;0.021484;1.059570;
363179;0.026367;0.024414;1.061523;
363329;0.026367;0.026367;1.064453;
363469;0.026367;0.026367;1.062500;
363619;0.024414;0.025391;1.067383;
363759;0.023438;0.026367;1.063477;
363894;0.025391;0.023438;1.051758;
364034;0.023438;0.025391;1.059570;
364174;0.023438;0.021484;1.060547;
364304;0.025391;0.025391;1.053711;
364454;0.027344;0.021484;1.058594;
364584;0.024414;0.020508;1.050781;
364724;0.024414;0.025391;1.053711;
364874;0.024414;0.028320;1.060547;
365024;0.024414;0.023438;1.061523;
365175;0.024414;0.028320;1.059570;
365328;0.024414;0.026367;1.055664;
365464;0.025391;0.026367;1.059570;
365615;0.023438;0.022461;1.048828;
365754;0.025391;0.027344;1.052734;
365899;0.025391;0.023438;1.055664;
366039;0.026367;0.021484;1.045898;
366179;0.025391;0.024414;1.043945;
366324;0.023438;0.023438;1.038086;
366469;0.025391;0.025391;1.054688;
366609;0.025391;0.026367;1.047852;
366749;0.022461;0.021484;1.048828;
366889;0.022461;0.018555;1.041992;
367024;0.025391;0.023438;1.041016;
367169;0.024414;0.025391;1.044922;
367309;0.025391;0.022461;1.033203;
367449;0.025391;0.023438;1.040039;
367574;0.022461;0.023438;1.041992;
367714;0.025391;0.024414;1.046875;
367854;0.025391;0.024414;1.041992;
368004;0.023438;0.024414;1.034180;
368154;0.022461;0.024414;1.040039;
368288;0.025391;0.024414;1.039062;
368414;0.023438;0.022461;1.034180;
368554;0.025391;0.021484;1.028320;
368704;0.026367;0.023438;1.035156;
368856;0.026367;0.019531;1.039062;
368996;0.023438;0.019531;1.024414;
369144;0.023438;0.027344;1.034180;
369284;0.025391;0.027344;1.022461;
369434;0.023438;0.029297;1.012695;
369589;0.021484;0.028320;1.000977;
369729;0.017578;0.027344;0.985352;
369869;0.021484;0.027344;0.986328;
370004;0.019531;0.027344;0.972656;
370149;0.018555;0.024414;0.975586;
370289;0.021484;0.028320;0.971680;
370429;0.019531;0.025391;0.963867;
370569;0.018555;0.027344;0.965820;
370704;0.017578;0.023438;0.957031;
370849;0.019531;0.030273;0.958008;
370989;0.018555;0.023438;0.945312;
371129;0.019531;0.027344;0.937500;
371269;0.018555;0.022461;0.937500;
371415;0.016602;0.024414;0.942383;
371554;0.016602;0.021484;0.936523;
371695;0.015625;0.026367;0.934570;
371839;0.016602;0.024414;0.947266;
371979;0.016602;0.024414;0.943359;
372114;0.016602;0.024414;0.953125;
372245;0.017578;0.022461;0.953125;
372384;0.019531;0.026367;0.969727;
372534;0.021484;0.023438;0.973633;
372674;0.019531;0.019531;0.980469;
372814;0.020508;0.020508;0.987305;
372964;0.020508;0.022461;0.994141;
373115;0.022461;0.025391;1.017578;
373254;0.022461;0.024414;1.014648;
373405;0.022461;0.024414;1.025391;
373554;0.021484;0.022461;1.036133;
373694;0.022461;0.019531;1.039062;
373834;0.023438;0.024414;1.033203;
373969;0.021484;0.024414;1.035156;
374109;0.024414;0.025391;1.039062;
374249;0.022461;0.026367;1.033203;
374389;0.021484;0.023438;1.030273;
374514;0.023438;0.023438;1.034180;
374669;0.022461;0.025391;1.029297;
374809;0.022461;0.026367;1.036133;
374949;0.021484;0.027344;1.030273;
375089;0.021484;0.027344;1.019531;
375224;0.021484;0.020508;1.026367;
375369;0.020508;0.024414;1.020508;
375515;0.020508;0.022461;1.013672;
375644;0.024414;0.023438;1.024414;
375784;0.020508;0.023438;1.012695;
375934;0.023438;0.022461;1.022461;
376064;0.021484;0.022461;1.022461;
376215;0.022461;0.023438;1.021484;
376354;0.020508;0.023438;1.029297;
376504;0.021484;0.022461;1.019531;
376654;0.020508;0.020508;1.010742;
376784;0.021484;0.021484;1.005859;
376914;0.022461;0.024414;1.010742;
377055;0.019531;0.021484;1.015625;
377194;0.020508;0.021484;1.017578;
377346;0.022461;0.019531;1.022461;
377484;0.023438;0.022461;1.026367;
377629;0.022461;0.019531;1.027344;
377769;0.023438;0.025391;1.019531;
377909;0.019531;0.021484;1.029297;
378044;0.020508;0.022461;1.026367;
378185;0.020508;0.021484;1.026367;
378339;0.021484;0.022461;1.027344;
378489;0.018555;0.024414;1.030273;
378629;0.018555;0.023438;1.022461;
378764;0.021484;0.024414;1.029297;
378909;0.019531;0.023438;1.022461;
379054;0.019531;0.023438;1.024414;
379209;0.022461;0.021484;1.023438;
379345;0.021484;0.022461;1.034180;
379474;0.018555;0.021484;1.026367;
379604;0.021484;0.023438;1.023438;
379754;0.019531;0.022461;1.027344;
379904;0.021484;0.021484;1.035156;
380054;0.021484;0.020508;1.041016;
380198;0.021484;0.025391;1.031250;
380335;0.022461;0.020508;1.033203;
380464;0.024414;0.018555;1.043945;
380614;0.023438;0.016602;1.040039;
380745;0.024414;0.019531;1.043945;
380884;0.024414;0.023438;1.044922;
381034;0.024414;0.020508;1.045898;
381175;0.026367;0.025391;1.060547;
381304;0.024414;0.020508;1.057617;
381449;0.026367;0.024414;1.059570;
381589;0.024414;0.025391;1.057617;
381739;0.023438;0.020508;1.062500;
381874;0.023438;0.021484;1.061523;
382014;0.027344;0.028320;1.068359;
382147;0.025391;0.025391;1.060547;
382289;0.024414;0.031250;1.056641;
382429;0.022461;0.028320;1.063477;
382569;0.024414;0.030273;1.064453;
382709;0.021484;0.027344;1.060547;
382844;0.024414;0.031250;1.060547;
382974;0.023438;0.030273;1.058594;
383104;0.023438;0.032227;1.051758;
383254;0.021484;0.034180;1.056641;
383384;0.021484;0.031250;1.059570;
383534;0.021484;0.031250;1.057617;
383674;0.021484;0.028320;1.049805;
383824;0.020508;0.025391;1.054688;
383969;0.023438;0.032227;1.048828;
384104;0.025391;0.031250;1.051758;
384254;0.023438;0.032227;1.049805;
384394;0.024414;0.028320;1.047852;
384534;0.024414;0.028320;1.050781;
384684;0.023438;0.030273;1.048828;
384819;0.023438;0.032227;1.060547;
384954;0.021484;0.026367;1.049805;
385099;0.023438;0.029297;1.052734;
385245;0.025391;0.028320;1.060547;
385379;0.022461;0.031250;1.051758;
385529;0.023438;0.029297;1.028320;
385669;0.020508;0.026367;1.025391;
385809;0.022461;0.030273;1.017578;
385934;0.019531;0.028320;1.020508;
386079;0.020508;0.029297;1.028320;
386219;0.016602;0.034180;1.020508;
386359;0.020508;0.032227;1.029297;
386509;0.024414;0.032227;1.033203;
386635;0.022461;0.033203;1.036133;
386769;0.022461;0.033203;1.040039;
386909;0.021484;0.028320;1.040039;
387044;0.023438;0.028320;1.037109;
387195;0.022461;0.027344;1.045898;
387344;0.021484;0.031250;1.051758;
387484;0.025391;0.029297;1.048828;
387624;0.023438;0.037109;1.058594;
387759;0.023438;0.034180;1.060547;
387909;0.022461;0.036133;1.074219;
388039;0.025391;0.034180;1.068359;
388164;0.022461;0.034180;1.056641;
388304;0.025391;0.034180;1.070312;
388444;0.025391;0.035156;1.083008;
388595;0.026367;0.039062;1.099609;
388734;0.027344;0.036133;1.117188;
388885;0.028320;0.038086;1.136719;
389034;0.028320;0.036133;1.143555;
389174;0.030273;0.033203;1.150391;
389314;0.033203;0.036133;1.164062;
389469;0.031250;0.032227;1.158203;
389609;0.030273;0.032227;1.152344;
389749;0.030273;0.027344;1.150391;
389889;0.033203;0.026367;1.155273;
390024;0.029297;0.026367;1.144531;
390156;0.032227;0.029297;1.155273;
390299;0.032227;0.021484;1.158203;
390439;0.032227;0.025391;1.163086;
390579;0.032227;0.025391;1.166992;
390714;0.034180;0.023438;1.161133;
390859;0.035156;0.024414;1.164062;
390984;0.032227;0.022461;1.161133;
391115;0.032227;0.022461;1.166016;
391244;0.032227;0.029297;1.180664;
391385;0.035156;0.030273;1.203125;
391524;0.037109;0.028320;1.220703;
391665;0.038086;0.031250;1.246094;
391816;0.041016;0.034180;1.274414;
391964;0.042969;0.033203;1.293945;
392115;0.046875;0.033203;1.309570;
392264;0.045898;0.032227;1.318359;
392414;0.046875;0.037109;1.335938;
392568;0.048828;0.031250;1.342773;
392709;0.048828;0.037109;1.350586;
392848;0.048828;0.035156;1.348633;
392999;0.050781;0.038086;1.348633;
393139;0.050781;0.032227;1.351562;
393279;0.050781;0.028320;1.348633;
393414;0.050781;0.030273;1.354492;
393549;0.047852;0.031250;1.327148;
393689;0.048828;0.027344;1.315430;
393829;0.048828;0.023438;1.305664;
393969;0.045898;0.028320;1.303711;
394104;0.045898;0.028320;1.300781;
394234;0.042969;0.026367;1.295898;
394365;0.042969;0.024414;1.291992;
394504;0.042969;0.025391;1.279297;
394644;0.042969;0.026367;1.284180;
394788;0.040039;0.028320;1.263672;
394934;0.040039;0.023438;1.258789;
395074;0.041016;0.029297;1.258789;
395224;0.038086;0.025391;1.251953;
395365;0.041016;0.030273;1.261719;
395496;0.041016;0.029297;1.273438;
395635;0.041992;0.033203;1.263672;
395785;0.040039;0.034180;1.256836;
395934;0.038086;0.033203;1.233398;
396064;0.037109;0.029297;1.205078;
396214;0.036133;0.033203;1.185547;
396346;0.028320;0.034180;1.149414;
396489;0.031250;0.034180;1.130859;
396629;0.029297;0.033203;1.110352;
396755;0.025391;0.037109;1.104492;
396889;0.026367;0.038086;1.099609;
397029;0.022461;0.036133;1.094727;
397169;0.022461;0.038086;1.072266;
397309;0.023438;0.032227;1.082031;
397444;0.022461;0.030273;1.075195;
397589;0.021484;0.029297;1.081055;
397729;0.023438;0.031250;1.084961;
397869;0.024414;0.025391;1.093750;
398009;0.027344;0.028320;1.114258;
398144;0.027344;0.027344;1.133789;
398290;0.033203;0.023438;1.166992;
398424;0.033203;0.027344;1.195312;
398564;0.038086;0.027344;1.210938;
398714;0.037109;0.027344;1.228516;
398845;0.036133;0.028320;1.243164;
398995;0.040039;0.030273;1.268555;
399124;0.042969;0.030273;1.285156;
399264;0.044922;0.028320;1.295898;
399414;0.043945;0.032227;1.301758;
399554;0.045898;0.027344;1.321289;
399694;0.043945;0.032227;1.314453;
399834;0.048828;0.030273;1.327148;
399989;0.045898;0.033203;1.332031;
400129;0.045898;0.031250;1.317383;
400279;0.043945;0.037109;1.300781;
400414;0.041016;0.035156;1.299805;
400564;0.041992;0.038086;1.275391;
400709;0.041992;0.035156;1.270508;
400849;0.039062;0.030273;1.246094;
400989;0.038086;0.030273;1.226562;
401129;0.036133;0.031250;1.215820;
401274;0.034180;0.029297;1.194336;
401414;0.034180;0.025391;1.186523;
401545;0.035156;0.030273;1.175781;
401694;0.032227;0.029297;1.161133;
401824;0.029297;0.031250;1.152344;
401964;0.027344;0.032227;1.143555;
402096;0.028320;0.032227;1.135742;
402234;0.026367;0.028320;1.120117;
402384;0.025391;0.033203;1.103516;
402534;0.026367;0.035156;1.098633;
402664;0.023438;0.031250;1.076172;
402814;0.023438;0.028320;1.076172;
402964;0.021484;0.032227;1.059570;
403104;0.022461;0.027344;1.061523;
403254;0.022461;0.032227;1.071289;
403399;0.019531;0.029297;1.068359;
403534;0.024414;0.032227;1.084961;
403679;0.023438;0.031250;1.092773;
403819;0.025391;0.036133;1.097656;
403959;0.026367;0.031250;1.118164;
404094;0.027344;0.034180;1.117188;
404234;0.026367;0.033203;1.116211;
404379;0.025391;0.028320;1.107422;
404519;0.026367;0.034180;1.111328;
404659;0.026367;0.032227;1.121094;
404795;0.025391;0.034180;1.118164;
404925;0.026367;0.033203;1.122070;
405064;0.027344;0.029297;1.129883;
405214;0.024414;0.026367;1.122070;
405368;0.026367;0.030273;1.131836;
405504;0.025391;0.025391;1.124023;
405636;0.028320;0.026367;1.134766;
405764;0.029297;0.025391;1.141602;
405906;0.030273;0.032227;1.164062;
406045;0.032227;0.035156;1.185547;
406184;0.030273;0.028320;1.190430;
406314;0.032227;0.030273;1.198242;
406454;0.034180;0.032227;1.217773;
406604;0.038086;0.032227;1.247070;
406754;0.038086;0.031250;1.258789;
406894;0.040039;0.026367;1.273438;
407034;0.041992;0.024414;1.288086;
407179;0.045898;0.032227;1.313477;
407319;0.045898;0.031250;1.333984;
407469;0.047852;0.028320;1.349609;
407605;0.051758;0.030273;1.373047;
407749;0.050781;0.029297;1.377930;
407884;0.048828;0.031250;1.382812;
408019;0.050781;0.028320;1.384766;
408159;0.053711;0.033203;1.384766;
408299;0.052734;0.027344;1.387695;
408439;0.049805;0.026367;1.378906;
408574;0.052734;0.030273;1.383789;
408719;0.051758;0.028320;1.389648;
408855;0.053711;0.026367;1.372070;
408984;0.054688;0.029297;1.377930;
409114;0.049805;0.030273;1.356445;
409254;0.048828;0.028320;1.345703;
409385;0.048828;0.027344;1.344727;
409524;0.045898;0.032227;1.331055;
409656;0.046875;0.031250;1.333984;
409784;0.046875;0.033203;1.319336;
409925;0.045898;0.030273;1.309570;
410054;0.044922;0.033203;1.316406;
410194;0.042969;0.033203;1.301758;
410334;0.043945;0.034180;1.294922;
410484;0.042969;0.027344;1.289062;
410629;0.042969;0.032227;1.283203;
410769;0.044922;0.029297;1.270508;
410904;0.041016;0.029297;1.263672;
411039;0.038086;0.029297;1.250977;
411179;0.041992;0.035156;1.252930;
411319;0.037109;0.031250;1.243164;
411459;0.036133;0.028320;1.246094;
411604;0.038086;0.031250;1.254883;
411759;0.040039;0.032227;1.242188;
411899;0.039062;0.030273;1.227539;
412039;0.038086;0.033203;1.219727;
412174;0.036133;0.035156;1.204102;
412324;0.033203;0.039062;1.176758;
412479;0.030273;0.031250;1.153320;
412615;0.030273;0.031250;1.130859;
412755;0.028320;0.032227;1.115234;
412884;0.025391;0.036133;1.102539;
413024;0.026367;0.030273;1.096680;
413164;0.026367;0.032227;1.074219;
413314;0.024414;0.033203;1.073242;
413454;0.021484;0.032227;1.057617;
413594;0.023438;0.033203;1.046875;
413734;0.022461;0.033203;1.045898;
413864;0.022461;0.030273;1.044922;
414004;0.019531;0.032227;1.036133;
414154;0.018555;0.031250;1.029297;
414304;0.021484;0.033203;1.023438;
414439;0.020508;0.034180;1.027344;
414579;0.020508;0.032227;1.015625;
414714;0.020508;0.035156;1.010742;
414859;0.017578;0.032227;1.020508;
414994;0.018555;0.034180;1.015625;
415129;0.020508;0.036133;1.036133;
415264;0.019531;0.033203;1.031250;
415409;0.018555;0.031250;1.023438;
415549;0.017578;0.034180;1.035156;
415689;0.023438;0.030273;1.040039;
415824;0.024414;0.034180;1.046875;
415965;0.022461;0.037109;1.046875;
416109;0.022461;0.031250;1.064453;
416259;0.027344;0.033203;1.102539;
416395;0.031250;0.028320;1.144531;
416544;0.033203;0.034180;1.182617;
416684;0.036133;0.034180;1.209961;
416834;0.038086;0.031250;1.235352;
416964;0.039062;0.031250;1.250977;
417104;0.041992;0.030273;1.264648;
417244;0.044922;0.028320;1.273438;
417374;0.042969;0.029297;1.264648;
417524;0.041992;0.025391;1.257812;
417669;0.041016;0.032227;1.246094;
417804;0.038086;0.030273;1.231445;
417954;0.036133;0.031250;1.211914;
418094;0.034180;0.035156;1.188477;
418244;0.032227;0.032227;1.170898;
418375;0.031250;0.026367;1.142578;
418504;0.029297;0.030273;1.125977;
418644;0.025391;0.027344;1.109375;
418799;0.026367;0.031250;1.100586;
418949;0.026367;0.032227;1.087891;
419089;0.026367;0.033203;1.083008;
419234;0.023438;0.034180;1.090820;
419379;0.024414;0.036133;1.081055;
419519;0.023438;0.033203;1.070312;
419659;0.021484;0.031250;1.062500;
419799;0.023438;0.035156;1.081055;
419944;0.023438;0.035156;1.089844;
420079;0.028320;0.030273;1.116211;
420219;0.029297;0.033203;1.136719;
420359;0.030273;0.034180;1.164062;
420499;0.036133;0.030273;1.195312;
420624;0.035156;0.033203;1.220703;
420764;0.037109;0.031250;1.234375;
420904;0.039062;0.034180;1.257812;
421044;0.040039;0.033203;1.264648;
421184;0.041992;0.033203;1.268555;
421334;0.041992;0.032227;1.277344;
421484;0.042969;0.035156;1.285156;
421634;0.045898;0.033203;1.289062;
421784;0.043945;0.027344;1.295898;
421925;0.046875;0.034180;1.296875;
422054;0.046875;0.032227;1.307617;
422184;0.045898;0.032227;1.300781;
422334;0.041992;0.030273;1.296875;
422474;0.043945;0.034180;1.294922;
422609;0.043945;0.030273;1.286133;
422749;0.042969;0.030273;1.282227;
422889;0.042969;0.027344;1.277344;
423030;0.041992;0.032227;1.276367;
423174;0.043945;0.033203;1.270508;
423319;0.042969;0.030273;1.275391;
423459;0.042969;0.029297;1.265625;
423599;0.041992;0.032227;1.272461;
423734;0.041016;0.028320;1.266602;
423879;0.042969;0.030273;1.254883;
424019;0.040039;0.033203;1.245117;
424159;0.041016;0.031250;1.239258;
424299;0.038086;0.035156;1.229492;
424440;0.041016;0.031250;1.227539;
424584;0.038086;0.030273;1.219727;
424734;0.038086;0.029297;1.194336;
424884;0.037109;0.034180;1.193359;
425035;0.035156;0.034180;1.176758;
425184;0.031250;0.031250;1.160156;
425325;0.029297;0.032227;1.131836;
425474;0.028320;0.033203;1.121094;
425614;0.026367;0.032227;1.096680;
425755;0.027344;0.037109;1.086914;
425904;0.023438;0.034180;1.078125;
426054;0.024414;0.033203;1.069336;
426204;0.024414;0.035156;1.068359;
426354;0.022461;0.034180;1.059570;
426485;0.027344;0.031250;1.058594;
426639;0.023438;0.031250;1.055664;
426779;0.026367;0.034180;1.064453;
426919;0.023438;0.032227;1.063477;
427054;0.022461;0.029297;1.056641;
427199;0.024414;0.029297;1.056641;
427339;0.023438;0.035156;1.056641;
427479;0.024414;0.033203;1.051758;
427619;0.022461;0.030273;1.052734;
427756;0.023438;0.033203;1.051758;
427895;0.022461;0.034180;1.050781;
428034;0.024414;0.034180;1.060547;
428164;0.023438;0.028320;1.062500;
428304;0.026367;0.031250;1.062500;
428434;0.020508;0.032227;1.066406;
428579;0.022461;0.030273;1.067383;
428726;0.025391;0.030273;1.066406;
428855;0.023438;0.031250;1.077148;
428994;0.023438;0.034180;1.074219;
429134;0.022461;0.030273;1.084961;
429275;0.023438;0.036133;1.083984;
429405;0.026367;0.035156;1.084961;
429534;0.023438;0.034180;1.085938;
429674;0.026367;0.036133;1.088867;
429814;0.024414;0.035156;1.083984;
429954;0.026367;0.033203;1.095703;
430099;0.027344;0.033203;1.097656;
430239;0.028320;0.038086;1.094727;
430379;0.026367;0.037109;1.100586;
430519;0.028320;0.038086;1.101562;
430659;0.027344;0.032227;1.100586;
430795;0.027344;0.035156;1.102539;
430929;0.025391;0.033203;1.106445;
431069;0.026367;0.033203;1.113281;
431209;0.025391;0.032227;1.113281;
431349;0.025391;0.027344;1.114258;
431484;0.025391;0.027344;1.106445;
431635;0.024414;0.029297;1.095703;
431779;0.025391;0.029297;1.103516;
431919;0.028320;0.031250;1.113281;
432054;0.030273;0.032227;1.132812;
432195;0.034180;0.034180;1.167969;
432344;0.032227;0.031250;1.190430;
432484;0.035156;0.029297;1.216797;
432624;0.036133;0.034180;1.220703;
432754;0.036133;0.032227;1.230469;
432904;0.037109;0.028320;1.226562;
433035;0.040039;0.032227;1.235352;
433174;0.040039;0.033203;1.235352;
433309;0.040039;0.035156;1.238281;
433436;0.040039;0.029297;1.243164;
433574;0.037109;0.032227;1.237305;
433714;0.037109;0.031250;1.238281;
433854;0.039062;0.032227;1.227539;
433994;0.039062;0.032227;1.224609;
434124;0.036133;0.032227;1.224609;
434254;0.037109;0.031250;1.227539;
434399;0.037109;0.034180;1.218750;
434524;0.034180;0.033203;1.219727;
434669;0.035156;0.036133;1.212891;
434809;0.037109;0.031250;1.213867;
434949;0.035156;0.030273;1.205078;
435084;0.034180;0.033203;1.208008;
435219;0.036133;0.030273;1.204102;
435356;0.036133;0.035156;1.209961;
435494;0.036133;0.036133;1.210938;
435629;0.036133;0.032227;1.224609;
435769;0.033203;0.034180;1.209961;
435909;0.036133;0.033203;1.215820;
436059;0.037109;0.032227;1.217773;
436199;0.040039;0.033203;1.216797;
436334;0.037109;0.032227;1.215820;
436484;0.038086;0.032227;1.217773;
436635;0.033203;0.032227;1.208008;
436764;0.035156;0.034180;1.210938;
436906;0.035156;0.036133;1.202148;
437044;0.034180;0.029297;1.193359;
437194;0.032227;0.034180;1.195312;
437325;0.035156;0.034180;1.192383;
437474;0.032227;0.031250;1.168945;
437614;0.033203;0.032227;1.158203;
437749;0.031250;0.031250;1.157227;
437884;0.030273;0.034180;1.168945;
438025;0.033203;0.030273;1.186523;
438154;0.034180;0.033203;1.200195;
438284;0.038086;0.034180;1.219727;
438434;0.039062;0.034180;1.243164;
438574;0.037109;0.031250;1.257812;
438726;0.041016;0.033203;1.275391;
438874;0.041016;0.033203;1.283203;
439024;0.043945;0.035156;1.280273;
439164;0.041016;0.034180;1.281250;
439309;0.043945;0.028320;1.285156;
439449;0.043945;0.030273;1.279297;
439599;0.044922;0.032227;1.281250;
439734;0.042969;0.034180;1.284180;
439868;0.041016;0.032227;1.277344;
440004;0.041016;0.033203;1.272461;
440144;0.041992;0.031250;1.256836;
440289;0.039062;0.031250;1.245117;
440439;0.039062;0.033203;1.241211;
440579;0.041992;0.034180;1.242188;
440714;0.036133;0.031250;1.218750;
440859;0.035156;0.030273;1.222656;
440994;0.038086;0.032227;1.213867;
441124;0.036133;0.028320;1.212891;
441264;0.034180;0.029297;1.211914;
441406;0.033203;0.033203;1.208008;
441534;0.035156;0.032227;1.198242;
441687;0.037109;0.032227;1.194336;
441834;0.035156;0.032227;1.191406;
441984;0.036133;0.032227;1.190430;
442136;0.035156;0.035156;1.189453;
442274;0.037109;0.033203;1.196289;
442414;0.032227;0.031250;1.181641;
442554;0.034180;0.032227;1.195312;
442694;0.036133;0.033203;1.190430;
442849;0.034180;0.034180;1.179688;
442999;0.033203;0.032227;1.176758;
443149;0.033203;0.033203;1.171875;
443284;0.031250;0.034180;1.150391;
443414;0.030273;0.036133;1.135742;
443559;0.030273;0.031250;1.133789;
443699;0.029297;0.033203;1.114258;
443839;0.028320;0.028320;1.105469;
443974;0.026367;0.034180;1.097656;
444104;0.026367;0.034180;1.088867;
444246;0.025391;0.034180;1.081055;
444399;0.021484;0.033203;1.068359;
444539;0.022461;0.031250;1.056641;
444679;0.022461;0.033203;1.058594;
444814;0.022461;0.035156;1.049805;
444949;0.021484;0.032227;1.042969;
445089;0.023438;0.033203;1.049805;
445226;0.020508;0.033203;1.039062;
445375;0.020508;0.034180;1.036133;
445514;0.020508;0.036133;1.040039;
445654;0.024414;0.031250;1.029297;
445794;0.022461;0.036133;1.033203;
445934;0.020508;0.032227;1.034180;
446074;0.020508;0.032227;1.037109;
446224;0.024414;0.035156;1.041016;
446354;0.021484;0.035156;1.044922;
446484;0.022461;0.036133;1.053711;
446699;0.022461;0.035156;1.048828;
446845;0.024414;0.038086;1.051758;
446994;0.021484;0.037109;1.053711;
447134;0.023438;0.034180;1.066406;
447264;0.022461;0.037109;1.069336;
447418;0.022461;0.034180;1.084961;
447565;0.026367;0.034180;1.097656;
447704;0.029297;0.035156;1.106445;
447859;0.025391;0.035156;1.112305;
447999;0.029297;0.034180;1.112305;
448139;0.028320;0.039062;1.129883;
448279;0.028320;0.034180;1.131836;
448415;0.028320;0.032227;1.137695;
448559;0.030273;0.032227;1.144531;
448699;0.031250;0.033203;1.155273;
448839;0.029297;0.030273;1.155273;
448979;0.031250;0.032227;1.154297;
449114;0.030273;0.031250;1.153320;
449249;0.030273;0.032227;1.148438;
449374;0.030273;0.030273;1.140625;
449514;0.030273;0.036133;1.145508;
449664;0.029297;0.030273;1.147461;
449804;0.032227;0.036133;1.154297;
449944;0.031250;0.031250;1.162109;
450076;0.028320;0.032227;1.149414;
450205;0.032227;0.031250;1.151367;
450354;0.031250;0.033203;1.157227;
450504;0.032227;0.031250;1.148438;
450659;0.030273;0.033203;1.150391;
450795;0.028320;0.032227;1.147461;
450925;0.029297;0.035156;1.154297;
451064;0.029297;0.035156;1.142578;
451204;0.029297;0.032227;1.131836;
451354;0.027344;0.030273;1.134766;
451489;0.028320;0.031250;1.130859;
451629;0.028320;0.037109;1.140625;
451769;0.029297;0.036133;1.150391;
451909;0.030273;0.033203;1.149414;
452044;0.029297;0.031250;1.158203;
452189;0.030273;0.029297;1.157227;
452329;0.032227;0.031250;1.167969;
452479;0.031250;0.030273;1.165039;
452619;0.032227;0.029297;1.166016;
452754;0.034180;0.029297;1.166016;
452905;0.032227;0.030273;1.164062;
453059;0.033203;0.034180;1.175781;
453199;0.031250;0.033203;1.174805;
453349;0.031250;0.034180;1.169922;
453484;0.032227;0.035156;1.166992;
453615;0.031250;0.034180;1.166016;
453744;0.030273;0.032227;1.166992;
453895;0.033203;0.031250;1.166992;
454024;0.033203;0.035156;1.171875;
454174;0.032227;0.032227;1.175781;
454314;0.030273;0.033203;1.165039;
454464;0.032227;0.031250;1.169922;
454614;0.030273;0.031250;1.166992;
454744;0.030273;0.035156;1.163086;
454876;0.031250;0.033203;1.164062;
455014;0.029297;0.032227;1.161133;
455165;0.031250;0.038086;1.163086;
455294;0.030273;0.035156;1.159180;
455434;0.031250;0.035156;1.150391;
455574;0.029297;0.034180;1.154297;
455729;0.028320;0.033203;1.153320;
455869;0.031250;0.034180;1.170898;
456009;0.031250;0.035156;1.182617;
456149;0.035156;0.032227;1.199219;
456284;0.035156;0.032227;1.220703;
456429;0.035156;0.033203;1.230469;
456569;0.037109;0.031250;1.240234;
456709;0.035156;0.033203;1.242188;
456844;0.040039;0.033203;1.252930;
456999;0.037109;0.033203;1.255859;
457139;0.041016;0.037109;1.261719;
457289;0.039062;0.035156;1.259766;
457429;0.041016;0.036133;1.269531;
457564;0.040039;0.036133;1.263672;
457714;0.038086;0.032227;1.263672;
457864;0.041016;0.033203;1.266602;
458004;0.038086;0.030273;1.261719;
458156;0.040039;0.034180;1.265625;
458299;0.037109;0.029297;1.255859;
458435;0.036133;0.032227;1.251953;
458564;0.037109;0.029297;1.238281;
458694;0.038086;0.035156;1.232422;
458834;0.038086;0.033203;1.222656;
458984;0.037109;0.035156;1.226562;
459135;0.035156;0.035156;1.215820;
459286;0.033203;0.031250;1.202148;
459435;0.033203;0.035156;1.190430;
459584;0.032227;0.034180;1.182617;
459735;0.031250;0.037109;1.169922;
459864;0.028320;0.036133;1.161133;
460014;0.030273;0.031250;1.149414;
460164;0.027344;0.031250;1.136719;
460309;0.027344;0.035156;1.136719;
460449;0.026367;0.034180;1.118164;
460589;0.027344;0.035156;1.116211;
460739;0.025391;0.035156;1.107422;
460865;0.025391;0.030273;1.107422;
461004;0.025391;0.034180;1.108398;
461149;0.025391;0.035156;1.106445;
461289;0.026367;0.031250;1.104492;
461429;0.022461;0.032227;1.098633;
461564;0.023438;0.033203;1.091797;
461709;0.024414;0.032227;1.095703;
461849;0.026367;0.033203;1.091797;
461999;0.021484;0.035156;1.089844;
462134;0.023438;0.035156;1.089844;
462275;0.022461;0.033203;1.095703;
462414;0.023438;0.036133;1.091797;
462565;0.022461;0.031250;1.096680;
462705;0.023438;0.038086;1.094727;
462834;0.023438;0.031250;1.087891;
462976;0.022461;0.032227;1.089844;
463115;0.025391;0.031250;1.081055;
463244;0.025391;0.028320;1.085938;
463394;0.024414;0.031250;1.093750;
463534;0.025391;0.034180;1.093750;
463685;0.023438;0.033203;1.092773;
463834;0.022461;0.034180;1.103516;
463966;0.024414;0.034180;1.104492;
464107;0.021484;0.032227;1.102539;
464249;0.023438;0.035156;1.105469;
464384;0.021484;0.030273;1.093750;
464525;0.023438;0.034180;1.091797;
464679;0.022461;0.035156;1.092773;
464819;0.022461;0.033203;1.083984;
464959;0.022461;0.030273;1.086914;
465094;0.026367;0.035156;1.100586;
465229;0.024414;0.034180;1.097656;
465379;0.022461;0.036133;1.103516;
465504;0.022461;0.032227;1.097656;
465649;0.024414;0.035156;1.098633;
465789;0.021484;0.035156;1.094727;
465929;0.021484;0.034180;1.094727;
466069;0.023438;0.035156;1.095703;
466214;0.024414;0.031250;1.093750;
466354;0.024414;0.029297;1.094727;
466504;0.022461;0.036133;1.093750;
466654;0.020508;0.036133;1.090820;
466794;0.025391;0.036133;1.092773;
466934;0.022461;0.033203;1.095703;
467084;0.023438;0.035156;1.087891;
467234;0.020508;0.035156;1.092773;
467365;0.022461;0.035156;1.085938;
467494;0.018555;0.035156;1.085938;
467634;0.021484;0.037109;1.086914;
467795;0.022461;0.038086;1.089844;
467939;0.022461;0.040039;1.085938;
468074;0.021484;0.036133;1.087891;
468214;0.020508;0.037109;1.082031;
468354;0.022461;0.036133;1.097656;
468485;0.018555;0.032227;1.091797;
468614;0.022461;0.036133;1.094727;
468764;0.021484;0.035156;1.097656;
468909;0.022461;0.028320;1.085938;
469049;0.022461;0.030273;1.098633;
469189;0.020508;0.036133;1.082031;
469329;0.021484;0.030273;1.083984;
469474;0.021484;0.030273;1.094727;
469619;0.021484;0.031250;1.094727;
469769;0.024414;0.029297;1.088867;
469909;0.023438;0.038086;1.100586;
470045;0.021484;0.032227;1.108398;
470184;0.022461;0.033203;1.102539;
470314;0.022461;0.035156;1.095703;
470449;0.022461;0.037109;1.096680;
470589;0.021484;0.033203;1.098633;
470729;0.019531;0.037109;1.098633;
470869;0.020508;0.036133;1.104492;
471016;0.019531;0.034180;1.099609;
471164;0.021484;0.033203;1.096680;
471306;0.021484;0.034180;1.102539;
471434;0.021484;0.037109;1.108398;
471565;0.019531;0.030273;1.105469;
471694;0.020508;0.031250;1.099609;
471844;0.022461;0.035156;1.098633;
471994;0.019531;0.029297;1.106445;
472135;0.022461;0.028320;1.103516;
472274;0.021484;0.031250;1.103516;
472424;0.018555;0.033203;1.100586;
472574;0.018555;0.031250;1.105469;
472715;0.018555;0.033203;1.113281;
472864;0.018555;0.032227;1.104492;
473014;0.023438;0.031250;1.114258;
473144;0.020508;0.035156;1.120117;
473299;0.020508;0.030273;1.114258;
473439;0.022461;0.031250;1.112305;
473579;0.021484;0.032227;1.120117;
473714;0.020508;0.032227;1.116211;
473859;0.022461;0.029297;1.115234;
473999;0.019531;0.035156;1.122070;
474139;0.019531;0.031250;1.114258;
474279;0.019531;0.037109;1.121094;
474414;0.020508;0.034180;1.112305;
474569;0.019531;0.033203;1.115234;
474709;0.017578;0.031250;1.106445;
474859;0.017578;0.034180;1.097656;
474999;0.020508;0.033203;1.093750;
475136;0.016602;0.036133;1.080078;
475284;0.017578;0.037109;1.080078;
475424;0.015625;0.037109;1.063477;
475556;0.014648;0.033203;1.048828;
475684;0.013672;0.035156;1.045898;
475834;0.013672;0.032227;1.036133;
475974;0.013672;0.034180;1.037109;
476124;0.011719;0.033203;1.030273;
476269;0.013672;0.031250;1.021484;
476409;0.012695;0.032227;1.021484;
476549;0.013672;0.031250;1.026367;
476694;0.012695;0.032227;1.009766;
476835;0.010742;0.031250;1.000977;
476965;0.008789;0.027344;0.989258;
477114;0.008789;0.031250;0.973633;
477264;0.008789;0.037109;0.959961;
477404;0.007812;0.035156;0.935547;
477549;0.003906;0.035156;0.918945;
477689;0.004883;0.034180;0.913086;
477829;0.003906;0.034180;0.895508;
477964;0.001953;0.032227;0.876953;
478104;0.001953;0.033203;0.876953;
478249;0.002930;0.033203;0.855469;
478389;-0.000977;0.035156;0.854492;
478529;0.000977;0.028320;0.840820;
478664;-0.001953;0.032227;0.838867;
478819;-0.001953;0.032227;0.838867;
478959;-0.000977;0.032227;0.850586;
479095;-0.001953;0.033203;0.850586;
479224;0.002930;0.036133;0.896484;
479374;-0.001953;0.033203;0.905273;
479504;0.002930;0.034180;0.939453;
479654;0.004883;0.037109;0.960938;
479794;0.002930;0.031250;0.984375;
479945;0.007812;0.032227;1.004883;
480084;0.006836;0.036133;1.008789;
480227;0.010742;0.035156;1.036133;
480354;0.008789;0.034180;1.051758;
480489;0.008789;0.032227;1.055664;
480626;0.011719;0.031250;1.081055;
480764;0.013672;0.035156;1.107422;
480904;0.014648;0.034180;1.129883;
481054;0.015625;0.032227;1.141602;
481204;0.016602;0.035156;1.156250;
481344;0.017578;0.038086;1.170898;
481494;0.018555;0.033203;1.163086;
481649;0.018555;0.030273;1.156250;
481799;0.014648;0.032227;1.151367;
481939;0.015625;0.032227;1.140625;
482079;0.014648;0.032227;1.127930;
482214;0.013672;0.034180;1.112305;
482369;0.009766;0.031250;1.094727;
482509;0.008789;0.030273;1.074219;
482649;0.007812;0.036133;1.060547;
482784;0.008789;0.031250;1.034180;
482915;0.003906;0.031250;1.002930;
483059;0.003906;0.033203;0.979492;
483199;0.001953;0.032227;0.956055;
483339;0.000977;0.036133;0.930664;
483474;-0.000977;0.035156;0.920898;
483624;-0.004883;0.038086;0.910156;
483764;-0.002930;0.036133;0.891602;
483916;-0.003906;0.030273;0.875977;
484064;-0.002930;0.037109;0.874023;
484194;-0.006836;0.035156;0.860352;
484324;-0.007812;0.037109;0.857422;
484454;-0.005859;0.035156;0.855469;
484584;-0.003906;0.035156;0.846680;
484724;-0.005859;0.038086;0.845703;
484874;-0.006836;0.035156;0.837891;
485024;-0.006836;0.041016;0.861328;
485165;-0.005859;0.032227;0.867188;
485294;-0.003906;0.038086;0.875977;
485434;-0.005859;0.033203;0.901367;
485574;-0.001953;0.032227;0.924805;
485714;-0.000977;0.032227;0.952148;
485869;-0.000977;0.034180;0.989258;
486009;-0.000977;0.031250;1.010742;
486145;0.002930;0.031250;1.044922;
486289;0.005859;0.035156;1.072266;
486424;0.004883;0.034180;1.094727;
486569;0.006836;0.031250;1.117188;
486709;0.007812;0.034180;1.125977;
486849;0.008789;0.034180;1.135742;
486989;0.007812;0.031250;1.132812;
487124;0.004883;0.031250;1.127930;
487254;0.006836;0.032227;1.134766;
487399;0.003906;0.033203;1.125000;
487539;0.004883;0.032227;1.125000;
487689;0.002930;0.031250;1.113281;
487824;0.001953;0.027344;1.116211;
487964;0.005859;0.026367;1.115234;
488095;0.005859;0.030273;1.119141;
488234;0.004883;0.030273;1.111328;
488374;0.003906;0.029297;1.106445;
488514;0.000977;0.030273;1.119141;
488654;0.003906;0.029297;1.097656;
488804;0.004883;0.028320;1.101562;
488946;0.000977;0.030273;1.105469;
489084;0.000977;0.033203;1.102539;
489234;0.001953;0.028320;1.107422;
489376;0.000000;0.032227;1.097656;
489514;0.001953;0.033203;1.105469;
489656;0.000000;0.032227;1.096680;
489799;0.000977;0.034180;1.091797;
489934;0.000000;0.034180;1.103516;
490065;-0.002930;0.036133;1.087891;
490204;0.000000;0.036133;1.093750;
490359;-0.003906;0.034180;1.084961;
490499;-0.004883;0.039062;1.065430;
490639;-0.001953;0.040039;1.070312;
490779;-0.002930;0.035156;1.064453;
490905;-0.003906;0.035156;1.050781;
491034;-0.000977;0.035156;1.057617;
491189;-0.002930;0.032227;1.061523;
491329;-0.001953;0.035156;1.058594;
491469;-0.004883;0.033203;1.074219;
491604;-0.002930;0.031250;1.079102;
491739;-0.002930;0.029297;1.081055;
491879;-0.001953;0.031250;1.104492;
492019;-0.001953;0.032227;1.103516;
492154;0.001953;0.032227;1.119141;
492304;-0.000977;0.027344;1.142578;
492454;0.001953;0.033203;1.147461;
492584;0.003906;0.030273;1.156250;
492724;0.001953;0.029297;1.168945;
492855;0.000000;0.029297;1.170898;
492994;0.002930;0.033203;1.179688;
493134;0.001953;0.035156;1.177734;
493277;0.000977;0.035156;1.183594;
493414;0.000000;0.031250;1.173828;
493564;0.000000;0.030273;1.170898;
493704;-0.000977;0.031250;1.175781;
493844;-0.002930;0.034180;1.170898;
493975;0.000000;0.036133;1.179688;
494124;0.000000;0.029297;1.174805;
494274;-0.000977;0.031250;1.177734;
494429;0.000977;0.027344;1.176758;
494569;-0.000977;0.028320;1.176758;
494709;0.000000;0.029297;1.182617;
494846;0.000000;0.031250;1.184570;
494989;-0.003906;0.025391;1.174805;
495129;0.000977;0.030273;1.188477;
495279;0.000000;0.022461;1.182617;
495419;-0.001953;0.023438;1.189453;
495544;0.000000;0.026367;1.197266;
495684;0.000000;0.023438;1.187500;
495829;-0.001953;0.029297;1.192383;
495974;-0.000977;0.031250;1.194336;
496119;-0.000977;0.031250;1.200195;
496269;0.000977;0.029297;1.205078;
496404;0.000977;0.032227;1.203125;
496546;-0.000977;0.028320;1.213867;
496684;0.000000;0.028320;1.201172;
496834;-0.000977;0.035156;1.191406;
496985;0.000000;0.030273;1.186523;
497124;0.000000;0.033203;1.178711;
497274;-0.002930;0.032227;1.166016;
497414;-0.005859;0.034180;1.157227;
497544;-0.002930;0.033203;1.159180;
497674;-0.003906;0.032227;1.153320;
497819;-0.003906;0.032227;1.138672;
497954;-0.003906;0.032227;1.130859;
498105;-0.005859;0.034180;1.126953;
498254;-0.006836;0.033203;1.125977;
498394;-0.003906;0.030273;1.119141;
498524;-0.004883;0.030273;1.108398;
498669;-0.007812;0.030273;1.100586;
498809;-0.007812;0.035156;1.098633;
498934;-0.007812;0.030273;1.088867;
499074;-0.011719;0.031250;1.077148;
499226;-0.010742;0.033203;1.080078;
499374;-0.012695;0.033203;1.079102;
499514;-0.009766;0.034180;1.070312;
499659;-0.010742;0.027344;1.063477;
499809;-0.010742;0.032227;1.055664;
499944;-0.013672;0.032227;1.058594;
500084;-0.011719;0.029297;1.061523;
500214;-0.010742;0.031250;1.056641;
500369;-0.011719;0.032227;1.049805;
500509;-0.010742;0.029297;1.059570;
500649;-0.010742;0.030273;1.051758;
500789;-0.010742;0.031250;1.049805;
500924;-0.013672;0.034180;1.054688;
501074;-0.012695;0.030273;1.046875;
501219;-0.012695;0.031250;1.061523;
501359;-0.008789;0.030273;1.057617;
501499;-0.010742;0.031250;1.061523;
501644;-0.012695;0.032227;1.066406;
501784;-0.011719;0.029297;1.068359;
501934;-0.014648;0.034180;1.060547;
502074;-0.012695;0.033203;1.065430;
502218;-0.012695;0.032227;1.059570;
502359;-0.013672;0.029297;1.062500;
502494;-0.013672;0.029297;1.056641;
502634;-0.013672;0.035156;1.065430;
502774;-0.012695;0.031250;1.051758;
502914;-0.012695;0.039062;1.062500;
503064;-0.013672;0.034180;1.057617;
503205;-0.013672;0.030273;1.057617;
503344;-0.012695;0.031250;1.051758;
503499;-0.015625;0.032227;1.050781;
503639;-0.014648;0.033203;1.054688;
503774;-0.015625;0.027344;1.052734;
503919;-0.014648;0.033203;1.053711;
504059;-0.017578;0.028320;1.043945;
504199;-0.014648;0.032227;1.045898;
504344;-0.015625;0.034180;1.027344;
504489;-0.016602;0.029297;1.019531;
504639;-0.016602;0.032227;1.023438;
504779;-0.018555;0.033203;1.004883;
504919;-0.017578;0.038086;1.002930;
505059;-0.019531;0.033203;0.997070;
505195;-0.020508;0.035156;0.991211;
505339;-0.018555;0.029297;0.987305;
505475;-0.021484;0.029297;0.986328;
505624;-0.019531;0.030273;0.969727;
505775;-0.021484;0.026367;0.957031;
505915;-0.021484;0.027344;0.964844;
506054;-0.021484;0.027344;0.944336;
506184;-0.019531;0.028320;0.954102;
506316;-0.023438;0.029297;0.948242;
506444;-0.023438;0.032227;0.949219;
506588;-0.023438;0.034180;0.958008;
506734;-0.020508;0.034180;0.958984;
506884;-0.021484;0.037109;0.966797;
507014;-0.020508;0.032227;0.977539;
507155;-0.022461;0.032227;0.987305;
507284;-0.022461;0.033203;0.997070;
507434;-0.018555;0.032227;1.014648;
507565;-0.020508;0.030273;1.031250;
507707;-0.018555;0.032227;1.045898;
507846;-0.017578;0.029297;1.062500;
507989;-0.016602;0.030273;1.077148;
508114;-0.017578;0.029297;1.078125;
508254;-0.015625;0.031250;1.092773;
508389;-0.016602;0.028320;1.098633;
508529;-0.015625;0.027344;1.090820;
508679;-0.016602;0.024414;1.088867;
508819;-0.018555;0.028320;1.092773;
508945;-0.015625;0.032227;1.083008;
509074;-0.021484;0.029297;1.062500;
509224;-0.021484;0.032227;1.050781;
509364;-0.018555;0.023438;1.029297;
509514;-0.022461;0.023438;1.020508;
509664;-0.019531;0.021484;1.007812;
509794;-0.021484;0.014648;1.017578;
509945;-0.021484;0.017578;1.012695;
510084;-0.019531;0.021484;1.022461;
510224;-0.022461;0.024414;1.026367;
510354;-0.026367;0.033203;1.029297;
510504;-0.019531;0.027344;1.042969;
510644;-0.021484;0.025391;1.055664;
510784;-0.021484;0.025391;1.078125;
510924;-0.019531;0.021484;1.086914;
511055;-0.018555;0.034180;1.098633;
511189;-0.017578;0.029297;1.091797;
511329;-0.015625;0.027344;1.102539;
511469;-0.018555;0.023438;1.091797;
511609;-0.018555;0.028320;1.085938;
511737;-0.017578;0.026367;1.083984;
511889;-0.019531;0.031250;1.069336;
512014;-0.016602;0.026367;1.046875;
512149;-0.020508;0.033203;1.046875;
512274;-0.020508;0.026367;1.043945;
512419;-0.023438;0.024414;1.021484;
512559;-0.023438;0.027344;1.016602;
512699;-0.023438;0.030273;1.013672;
512844;-0.024414;0.025391;1.014648;
512974;-0.022461;0.026367;1.021484;
513115;-0.022461;0.027344;1.034180;
513244;-0.022461;0.026367;1.051758;
513384;-0.021484;0.027344;1.072266;
513534;-0.018555;0.027344;1.083008;
513684;-0.017578;0.024414;1.108398;
513825;-0.019531;0.024414;1.114258;
513964;-0.017578;0.019531;1.122070;
514114;-0.016602;0.022461;1.134766;
514254;-0.020508;0.019531;1.145508;
514405;-0.016602;0.022461;1.150391;
514539;-0.017578;0.024414;1.136719;
514674;-0.016602;0.025391;1.152344;
514804;-0.016602;0.023438;1.146484;
514934;-0.014648;0.021484;1.138672;
515074;-0.019531;0.023438;1.139648;
515214;-0.016602;0.024414;1.135742;
515365;-0.019531;0.024414;1.128906;
515509;-0.014648;0.023438;1.125000;
515649;-0.018555;0.028320;1.132812;
515789;-0.015625;0.024414;1.130859;
515914;-0.020508;0.026367;1.119141;
516059;-0.019531;0.031250;1.128906;
516199;-0.020508;0.034180;1.120117;
516349;-0.016602;0.035156;1.120117;
516484;-0.016602;0.032227;1.120117;
516629;-0.020508;0.028320;1.110352;
516769;-0.015625;0.028320;1.111328;
516909;-0.016602;0.029297;1.109375;
517049;-0.019531;0.028320;1.108398;
517184;-0.020508;0.027344;1.109375;
517324;-0.020508;0.028320;1.110352;
517455;-0.017578;0.026367;1.100586;
517584;-0.018555;0.024414;1.106445;
517724;-0.019531;0.024414;1.115234;
517864;-0.017578;0.028320;1.124023;
518014;-0.018555;0.025391;1.116211;
518144;-0.018555;0.026367;1.116211;
518284;-0.021484;0.023438;1.116211;
518415;-0.020508;0.029297;1.126953;
518564;-0.018555;0.027344;1.126953;
518714;-0.021484;0.029297;1.122070;
518864;-0.023438;0.027344;1.110352;
519014;-0.019531;0.022461;1.118164;
519149;-0.022461;0.029297;1.122070;
519284;-0.020508;0.032227;1.125000;
519414;-0.020508;0.032227;1.130859;
519554;-0.018555;0.027344;1.116211;
519689;-0.020508;0.032227;1.120117;
519829;-0.018555;0.027344;1.124023;
519969;-0.020508;0.030273;1.113281;
520109;-0.022461;0.028320;1.119141;
520234;-0.022461;0.032227;1.110352;
520379;-0.023438;0.028320;1.099609;
520519;-0.018555;0.033203;1.104492;
520659;-0.021484;0.028320;1.086914;
520799;-0.023438;0.032227;1.092773;
520934;-0.018555;0.029297;1.076172;
521075;-0.025391;0.026367;1.072266;
521204;-0.021484;0.027344;1.055664;
521354;-0.023438;0.031250;1.056641;
521489;-0.023438;0.027344;1.034180;
521635;-0.029297;0.024414;1.021484;
521774;-0.024414;0.031250;1.023438;
521924;-0.022461;0.026367;1.027344;
522064;-0.024414;0.025391;1.022461;
522196;-0.028320;0.028320;1.015625;
522344;-0.028320;0.027344;1.019531;
522494;-0.025391;0.028320;1.031250;
522624;-0.028320;0.030273;1.030273;
522755;-0.034180;0.028320;1.017578;
522894;-0.034180;0.028320;1.034180;
523039;-0.034180;0.028320;1.012695;
523179;-0.038086;0.028320;1.025391;
523319;-0.042969;0.031250;1.019531;
523459;-0.043945;0.032227;1.006836;
523599;-0.044922;0.031250;1.003906;
523735;-0.045898;0.023438;0.999023;
523889;-0.042969;0.025391;1.012695;
524029;-0.043945;0.025391;1.003906;
524169;-0.048828;0.024414;0.992188;
524309;-0.047852;0.027344;0.991211;
524445;-0.050781;0.029297;0.998047;
524574;-0.047852;0.024414;0.989258;
524705;-0.050781;0.026367;1.000977;
524845;-0.048828;0.029297;0.991211;
524984;-0.049805;0.031250;1.008789;
525136;-0.052734;0.029297;0.996094;
525274;-0.058594;0.024414;0.984375;
525409;-0.054688;0.030273;0.990234;
525534;-0.055664;0.031250;0.997070;
525674;-0.059570;0.032227;0.973633;
525814;-0.063477;0.030273;0.967773;
525964;-0.056641;0.032227;0.960938;
526114;-0.055664;0.033203;0.951172;
526264;-0.064453;0.033203;0.952148;
526406;-0.064453;0.029297;0.948242;
526545;-0.057617;0.032227;0.958984;
526689;-0.064453;0.026367;0.943359;
526834;-0.061523;0.032227;0.939453;
526969;-0.063477;0.032227;0.941406;
527104;-0.064453;0.030273;0.957031;
527244;-0.067383;0.028320;0.957031;
527385;-0.063477;0.029297;0.957031;
527515;-0.063477;0.032227;0.974609;
527654;-0.066406;0.029297;0.980469;
527794;-0.066406;0.023438;0.985352;
527939;-0.070312;0.029297;0.974609;
528089;-0.070312;0.032227;0.988281;
528224;-0.066406;0.026367;0.991211;
528379;-0.068359;0.025391;0.988281;
528519;-0.065430;0.030273;1.002930;
528659;-0.067383;0.024414;0.992188;
528799;-0.070312;0.030273;0.984375;
528934;-0.070312;0.021484;0.973633;
529074;-0.068359;0.027344;0.986328;
529229;-0.069336;0.029297;0.979492;
529369;-0.077148;0.028320;0.976562;
529509;-0.075195;0.031250;0.966797;
529649;-0.073242;0.028320;0.974609;
529784;-0.072266;0.026367;0.971680;
529915;-0.074219;0.030273;0.986328;
530044;-0.070312;0.033203;1.006836;
530174;-0.071289;0.027344;1.021484;
530305;-0.071289;0.027344;1.057617;
530454;-0.069336;0.029297;1.075195;
530604;-0.069336;0.027344;1.111328;
530746;-0.067383;0.031250;1.134766;
530894;-0.069336;0.035156;1.159180;
531025;-0.070312;0.029297;1.168945;
531164;-0.069336;0.035156;1.179688;
531294;-0.067383;0.031250;1.179688;
531424;-0.066406;0.028320;1.182617;
531564;-0.068359;0.025391;1.175781;
531704;-0.069336;0.020508;1.156250;
531844;-0.069336;0.027344;1.154297;
531989;-0.070312;0.023438;1.148438;
532129;-0.070312;0.027344;1.136719;
532279;-0.073242;0.019531;1.129883;
532414;-0.075195;0.021484;1.119141;
532566;-0.075195;0.025391;1.114258;
532709;-0.074219;0.027344;1.093750;
532849;-0.077148;0.031250;1.109375;
532999;-0.071289;0.026367;1.092773;
533139;-0.075195;0.027344;1.083008;
533284;-0.076172;0.031250;1.087891;
533414;-0.075195;0.024414;1.070312;
533544;-0.079102;0.037109;1.077148;
533679;-0.078125;0.033203;1.065430;
533826;-0.077148;0.029297;1.076172;
533954;-0.078125;0.023438;1.057617;
534084;-0.078125;0.032227;1.066406;
534225;-0.078125;0.026367;1.052734;
534364;-0.077148;0.023438;1.053711;
534514;-0.079102;0.025391;1.062500;
534645;-0.080078;0.028320;1.055664;
534779;-0.076172;0.022461;1.067383;
534904;-0.077148;0.022461;1.064453;
535044;-0.078125;0.028320;1.072266;
535184;-0.082031;0.029297;1.068359;
535324;-0.079102;0.020508;1.061523;
535464;-0.076172;0.030273;1.068359;
535614;-0.077148;0.029297;1.062500;
535759;-0.079102;0.023438;1.068359;
535909;-0.076172;0.020508;1.060547;
536049;-0.076172;0.022461;1.059570;
536190;-0.082031;0.022461;1.049805;
536334;-0.078125;0.021484;1.046875;
536479;-0.084961;0.028320;1.042969;
536619;-0.077148;0.021484;1.037109;
536759;-0.079102;0.027344;1.027344;
536904;-0.079102;0.031250;1.026367;
537049;-0.081055;0.030273;1.021484;
537179;-0.079102;0.029297;1.005859;
537319;-0.083008;0.032227;1.008789;
537459;-0.083984;0.025391;1.009766;
537606;-0.083008;0.028320;1.011719;
537734;-0.082031;0.021484;1.012695;
537874;-0.083008;0.027344;1.012695;
538014;-0.082031;0.023438;1.011719;
538155;-0.080078;0.026367;1.007812;
538285;-0.082031;0.020508;1.016602;
538414;-0.081055;0.024414;1.009766;
538555;-0.081055;0.025391;1.015625;
538694;-0.080078;0.026367;1.021484;
538839;-0.081055;0.023438;1.018555;
538984;-0.083008;0.030273;1.020508;
539134;-0.079102;0.025391;1.021484;
539275;-0.083008;0.029297;1.024414;
539414;-0.079102;0.027344;1.030273;
539564;-0.079102;0.026367;1.027344;
539704;-0.083984;0.030273;1.021484;
539854;-0.078125;0.024414;1.032227;
539999;-0.083984;0.027344;1.031250;
540139;-0.083008;0.025391;1.023438;
540279;-0.080078;0.028320;1.026367;
540419;-0.081055;0.026367;1.019531;
540556;-0.079102;0.027344;1.030273;
540699;-0.083008;0.022461;1.021484;
540834;-0.079102;0.025391;1.023438;
540969;-0.082031;0.019531;1.018555;
541109;-0.079102;0.018555;1.029297;
541249;-0.082031;0.027344;1.023438;
541390;-0.079102;0.023438;1.023438;
541534;-0.083984;0.024414;1.017578;
541674;-0.080078;0.027344;1.024414;
541814;-0.081055;0.028320;1.018555;
541954;-0.081055;0.025391;1.021484;
542105;-0.080078;0.026367;1.016602;
542239;-0.082031;0.024414;1.018555;
542374;-0.079102;0.023438;1.031250;
542514;-0.083008;0.022461;1.011719;
542654;-0.080078;0.026367;1.021484;
542786;-0.079102;0.023438;1.017578;
542934;-0.079102;0.026367;1.011719;
543074;-0.079102;0.026367;1.016602;
543224;-0.081055;0.024414;1.008789;
543364;-0.078125;0.023438;1.021484;
543495;-0.080078;0.029297;1.022461;
543625;-0.081055;0.024414;1.028320;
543774;-0.080078;0.020508;1.023438;
543924;-0.080078;0.025391;1.040039;
544064;-0.079102;0.026367;1.057617;
544209;-0.081055;0.026367;1.051758;
544349;-0.077148;0.030273;1.059570;
544499;-0.079102;0.025391;1.059570;
544634;-0.077148;0.027344;1.055664;
544779;-0.079102;0.025391;1.072266;
544919;-0.080078;0.023438;1.074219;
545059;-0.076172;0.025391;1.085938;
545199;-0.077148;0.025391;1.091797;
545334;-0.078125;0.025391;1.100586;
545489;-0.076172;0.025391;1.112305;
545629;-0.077148;0.027344;1.116211;
545769;-0.072266;0.023438;1.116211;
545904;-0.074219;0.027344;1.128906;
546049;-0.073242;0.026367;1.139648;
546184;-0.073242;0.020508;1.139648;
546324;-0.075195;0.026367;1.149414;
546455;-0.074219;0.024414;1.157227;
546594;-0.073242;0.022461;1.150391;
546739;-0.074219;0.024414;1.157227;
546869;-0.071289;0.024414;1.160156;
547004;-0.071289;0.030273;1.164062;
547154;-0.073242;0.025391;1.173828;
547296;-0.071289;0.024414;1.170898;
547425;-0.070312;0.021484;1.163086;
547564;-0.072266;0.027344;1.171875;
547704;-0.069336;0.021484;1.163086;
547844;-0.073242;0.025391;1.165039;
547994;-0.069336;0.020508;1.151367;
548144;-0.072266;0.022461;1.156250;
548284;-0.070312;0.021484;1.146484;
548434;-0.073242;0.021484;1.145508;
548564;-0.072266;0.023438;1.149414;
548719;-0.070312;0.023438;1.152344;
548859;-0.070312;0.022461;1.138672;
548999;-0.069336;0.018555;1.148438;
549134;-0.067383;0.020508;1.151367;
549274;-0.066406;0.022461;1.140625;
549414;-0.061523;0.023438;1.157227;
549554;-0.060547;0.019531;1.155273;
549709;-0.053711;0.012695;1.154297;
549849;-0.050781;0.021484;1.166016;
549989;-0.048828;0.021484;1.163086;
550124;-0.043945;0.020508;1.166016;
550269;-0.041016;0.016602;1.154297;
550409;-0.029297;0.017578;1.175781;
550544;-0.025391;0.023438;1.182617;
550694;-0.018555;0.022461;1.181641;
550825;-0.020508;0.020508;1.170898;
550955;-0.016602;0.022461;1.161133;
551084;-0.016602;0.029297;1.165039;
551234;-0.016602;0.027344;1.160156;
551385;-0.016602;0.026367;1.133789;
551535;-0.018555;0.028320;1.128906;
551684;-0.019531;0.029297;1.116211;
551826;-0.021484;0.029297;1.101562;
551974;-0.019531;0.024414;1.094727;
552125;-0.023438;0.022461;1.076172;
552266;-0.026367;0.022461;1.076172;
552404;-0.021484;0.018555;1.062500;
552554;-0.022461;0.019531;1.059570;
552684;-0.023438;0.022461;1.063477;
552826;-0.022461;0.021484;1.061523;
552959;-0.025391;0.024414;1.050781;
553099;-0.023438;0.019531;1.057617;
553239;-0.022461;0.025391;1.049805;
553379;-0.022461;0.024414;1.064453;
553514;-0.023438;0.021484;1.048828;
553669;-0.024414;0.024414;1.045898;
553809;-0.020508;0.027344;1.048828;
553959;-0.023438;0.026367;1.041992;
554094;-0.019531;0.027344;1.041992;
554229;-0.026367;0.029297;1.036133;
554369;-0.024414;0.030273;1.021484;
554509;-0.023438;0.026367;1.012695;
554654;-0.027344;0.023438;1.018555;
554784;-0.023438;0.028320;1.037109;
554914;-0.023438;0.025391;1.039062;
555055;-0.022461;0.027344;1.048828;
555194;-0.023438;0.027344;1.073242;
555345;-0.020508;0.025391;1.079102;
555494;-0.021484;0.021484;1.084961;
555644;-0.016602;0.021484;1.107422;
555789;-0.018555;0.025391;1.105469;
555924;-0.020508;0.021484;1.086914;
556064;-0.021484;0.020508;1.080078;
556214;-0.018555;0.023438;1.057617;
556354;-0.018555;0.022461;1.047852;
556508;-0.017578;0.025391;1.017578;
556656;-0.013672;0.027344;0.996094;
556794;-0.008789;0.023438;0.970703;
556939;-0.003906;0.021484;0.963867;
557064;-0.005859;0.029297;0.953125;
557209;0.000000;0.027344;0.946289;
557349;-0.001953;0.025391;0.948242;
557489;-0.000977;0.025391;0.952148;
557629;-0.003906;0.024414;0.958008;
557754;-0.002930;0.021484;0.956055;
557889;-0.008789;0.026367;0.977539;
558029;-0.010742;0.025391;0.981445;
558169;-0.010742;0.023438;0.993164;
558309;-0.011719;0.021484;0.986328;
558449;-0.011719;0.026367;0.992188;
558594;-0.013672;0.024414;0.999023;
558724;-0.012695;0.015625;0.998047;
558854;-0.011719;0.025391;1.000000;
558985;-0.008789;0.022461;0.989258;
559134;-0.006836;0.018555;0.994141;
559284;-0.007812;0.023438;0.999023;
559434;-0.008789;0.022461;1.008789;
559574;-0.007812;0.018555;1.025391;
559724;-0.006836;0.024414;1.053711;
559864;-0.010742;0.026367;1.055664;
559994;-0.006836;0.026367;1.072266;
560134;-0.005859;0.019531;1.089844;
560275;-0.004883;0.022461;1.100586;
560429;-0.005859;0.019531;1.092773;
560569;-0.002930;0.026367;1.112305;
560719;-0.003906;0.022461;1.100586;
560854;-0.004883;0.023438;1.115234;
560999;-0.003906;0.026367;1.110352;
561139;-0.002930;0.022461;1.105469;
561279;-0.000977;0.022461;1.107422;
561429;-0.003906;0.017578;1.085938;
561569;-0.003906;0.022461;1.078125;
561709;-0.007812;0.021484;1.059570;
561849;-0.006836;0.022461;1.054688;
561989;-0.005859;0.023438;1.041016;
562129;-0.007812;0.019531;1.051758;
562269;-0.006836;0.022461;1.031250;
562404;-0.006836;0.024414;1.025391;
562534;-0.009766;0.020508;1.008789;
562676;-0.009766;0.019531;1.003906;
562824;-0.009766;0.026367;0.993164;
562974;-0.012695;0.031250;0.992188;
563114;-0.007812;0.025391;0.989258;
563244;-0.008789;0.024414;0.991211;
563397;-0.007812;0.023438;0.993164;
563539;-0.011719;0.027344;0.995117;
563679;-0.012695;0.022461;0.977539;
563819;-0.012695;0.023438;0.988281;
563959;-0.011719;0.024414;0.991211;
564099;-0.012695;0.023438;0.997070;
564239;-0.010742;0.024414;1.003906;
564379;-0.010742;0.020508;0.992188;
564529;-0.011719;0.020508;0.998047;
564669;-0.007812;0.019531;0.996094;
564809;-0.009766;0.024414;1.013672;
564959;-0.008789;0.027344;1.021484;
565099;-0.010742;0.021484;1.020508;
565239;-0.007812;0.023438;1.041992;
565379;-0.009766;0.021484;1.043945;
565514;-0.003906;0.015625;1.048828;
565664;-0.004883;0.021484;1.058594;
565814;-0.002930;0.023438;1.071289;
565955;-0.007812;0.023438;1.072266;
566104;-0.008789;0.023438;1.068359;
566235;-0.009766;0.020508;1.065430;
566379;-0.007812;0.029297;1.075195;
566509;-0.007812;0.023438;1.074219;
566654;-0.006836;0.027344;1.072266;
566794;-0.002930;0.024414;1.073242;
566949;-0.006836;0.023438;1.056641;
567089;-0.006836;0.025391;1.061523;
567229;-0.008789;0.022461;1.046875;
567379;-0.008789;0.025391;1.041016;
567519;-0.006836;0.024414;1.041016;
567659;-0.004883;0.025391;1.054688;
567799;-0.005859;0.024414;1.053711;
567939;-0.008789;0.021484;1.041992;
568079;-0.006836;0.022461;1.034180;
568219;-0.009766;0.024414;1.033203;
568359;-0.009766;0.025391;1.028320;
568499;-0.012695;0.026367;1.046875;
568639;-0.007812;0.022461;1.037109;
568779;-0.004883;0.024414;1.036133;
568924;-0.005859;0.018555;1.042969;
569064;-0.008789;0.021484;1.047852;
569205;-0.007812;0.022461;1.041992;
569334;-0.007812;0.022461;1.032227;
569484;-0.004883;0.022461;1.041992;
569626;0.000977;0.023438;1.042969;
569777;0.004883;0.019531;1.049805;
569924;0.010742;0.026367;1.039062;
570059;0.017578;0.021484;1.050781;
570199;0.024414;0.018555;1.044922;
570339;0.029297;0.020508;1.050781;
570489;0.037109;0.023438;1.060547;
570629;0.036133;0.022461;1.075195;
570769;0.042969;0.022461;1.072266;
570919;0.050781;0.027344;1.101562;
571059;0.054688;0.024414;1.096680;
571199;0.063477;0.022461;1.106445;
571339;0.071289;0.023438;1.106445;
571479;0.076172;0.020508;1.099609;
571619;0.078125;0.025391;1.097656;
571759;0.089844;0.021484;1.089844;
571899;0.092773;0.017578;1.091797;
572034;0.090820;0.016602;1.083008;
572174;0.097656;0.021484;1.061523;
572316;0.097656;0.021484;1.053711;
572454;0.098633;0.019531;1.053711;
572599;0.100586;0.017578;1.013672;
572734;0.099609;0.019531;0.987305;
572867;0.096680;0.022461;0.976562;
572994;0.096680;0.023438;0.955078;
573144;0.093750;0.021484;0.952148;
573288;0.092773;0.021484;0.923828;
573434;0.094727;0.023438;0.908203;
573579;0.097656;0.023438;0.904297;
573719;0.089844;0.024414;0.886719;
573869;0.089844;0.021484;0.883789;
574009;0.090820;0.024414;0.880859;
574149;0.096680;0.029297;0.910156;
574299;0.091797;0.030273;0.914062;
574439;0.093750;0.025391;0.930664;
574589;0.096680;0.028320;0.955078;
574729;0.094727;0.027344;0.964844;
574869;0.096680;0.026367;0.984375;
575009;0.100586;0.018555;1.011719;
575149;0.099609;0.024414;1.010742;
575289;0.097656;0.020508;1.023438;
575429;0.099609;0.021484;1.024414;
575554;0.101562;0.024414;1.027344;
575685;0.099609;0.024414;1.020508;
575824;0.098633;0.022461;1.004883;
575974;0.099609;0.025391;1.015625;
576124;0.097656;0.021484;0.991211;
576255;0.096680;0.022461;0.988281;
576404;0.095703;0.023438;0.984375;
576549;0.092773;0.017578;0.970703;
576674;0.095703;0.020508;0.996094;
576814;0.090820;0.019531;0.991211;
576969;0.093750;0.020508;0.995117;
577109;0.094727;0.019531;1.023438;
577249;0.092773;0.023438;1.037109;
577389;0.095703;0.025391;1.047852;
577529;0.096680;0.024414;1.067383;
577679;0.094727;0.022461;1.074219;
577819;0.095703;0.020508;1.088867;
577959;0.098633;0.026367;1.099609;
578109;0.096680;0.022461;1.105469;
578249;0.097656;0.019531;1.131836;
578389;0.095703;0.019531;1.153320;
578529;0.099609;0.020508;1.166016;
578669;0.098633;0.023438;1.168945;
578809;0.099609;0.023438;1.163086;
578954;0.097656;0.021484;1.153320;
579105;0.097656;0.020508;1.138672;
579244;0.094727;0.020508;1.118164;
579384;0.093750;0.018555;1.109375;
579515;0.093750;0.020508;1.101562;
579654;0.092773;0.020508;1.105469;
579794;0.092773;0.025391;1.094727;
579934;0.095703;0.031250;1.068359;
580069;0.093750;0.035156;1.058594;
580209;0.091797;0.033203;1.029297;
580349;0.090820;0.029297;1.008789;
580489;0.083984;0.028320;1.008789;
580629;0.086914;0.021484;1.004883;
580769;0.090820;0.027344;1.018555;
580909;0.088867;0.027344;1.014648;
581049;0.088867;0.022461;0.987305;
581189;0.085938;0.023438;0.981445;
581329;0.087891;0.014648;0.991211;
581469;0.085938;0.019531;0.993164;
581619;0.084961;0.018555;1.001953;
581759;0.088867;0.016602;1.023438;
581899;0.087891;0.014648;1.022461;
582034;0.090820;0.022461;1.021484;
582174;0.091797;0.019531;1.010742;
582314;0.088867;0.020508;0.993164;
582465;0.085938;0.021484;0.985352;
582614;0.083008;0.021484;0.980469;
582759;0.083008;0.019531;1.008789;
582905;0.083008;0.025391;1.003906;
583049;0.085938;0.030273;1.007812;
583184;0.085938;0.025391;1.000977;
583324;0.087891;0.031250;0.995117;
583475;0.083984;0.024414;0.966797;
583604;0.082031;0.018555;0.966797;
583759;0.083008;0.026367;0.995117;
583899;0.079102;0.024414;0.991211;
584039;0.084961;0.021484;0.994141;
584179;0.087891;0.032227;0.990234;
584319;0.084961;0.023438;0.981445;
584459;0.081055;0.020508;0.959961;
584599;0.082031;0.019531;0.971680;
584739;0.081055;0.020508;0.996094;
584879;0.083984;0.017578;0.991211;
585029;0.085938;0.024414;0.985352;
585169;0.082031;0.020508;0.979492;
585309;0.079102;0.019531;0.981445;
585449;0.078125;0.018555;0.976562;
585589;0.080078;0.016602;1.018555;
585714;0.080078;0.019531;1.029297;
585865;0.081055;0.023438;1.010742;
586004;0.084961;0.017578;1.005859;
586144;0.083008;0.021484;1.018555;
586289;0.079102;0.023438;1.044922;
586425;0.084961;0.018555;1.054688;
586554;0.084961;0.020508;1.060547;
586684;0.087891;0.023438;1.039062;
586824;0.083008;0.019531;1.036133;
586974;0.079102;0.018555;1.071289;
587119;0.078125;0.020508;1.074219;
587259;0.083984;0.024414;1.102539;
587409;0.084961;0.022461;1.088867;
587549;0.082031;0.023438;1.112305;
587689;0.082031;0.019531;1.143555;
587829;0.084961;0.017578;1.218750;
587969;0.087891;0.018555;1.278320;
588109;0.088867;0.015625;1.333008;
588259;0.094727;0.016602;1.409180;
588399;0.095703;0.018555;1.458008;
588539;0.097656;0.018555;1.515625;
588679;0.103516;0.019531;1.575195;
588819;0.106445;0.015625;1.608398;
588959;0.113281;0.014648;1.623047;
589095;0.109375;0.021484;1.654297;
589244;0.110352;0.013672;1.662109;
589388;0.109375;0.018555;1.693359;
589534;0.118164;0.014648;1.745117;
589674;0.118164;0.012695;1.754883;
589814;0.116211;0.011719;1.782227;
589954;0.118164;0.014648;1.798828;
590084;0.121094;0.014648;1.833984;
590235;0.119141;0.010742;1.855469;
590365;0.123047;0.016602;1.912109;
590514;0.127930;0.010742;1.933594;
590659;0.131836;0.009766;1.960938;
590799;0.132812;0.014648;1.970703;
590939;0.132812;0.013672;1.971680;
591079;0.130859;0.013672;1.936523;
591219;0.126953;0.016602;1.911133;
591359;0.126953;0.011719;1.872070;
591499;0.127930;0.013672;1.829102;
591639;0.121094;0.015625;1.774414;
591789;0.118164;0.010742;1.750000;
591929;0.113281;0.017578;1.728516;
592069;0.114258;0.018555;1.726562;
592219;0.118164;0.018555;1.731445;
592359;0.120117;0.019531;1.743164;
592509;0.115234;0.017578;1.751953;
592645;0.119141;0.020508;1.770508;
592784;0.120117;0.016602;1.798828;
592934;0.118164;0.014648;1.823242;
593074;0.124023;0.018555;1.859375;
593214;0.126953;0.012695;1.872070;
593354;0.125977;0.015625;1.880859;
593504;0.129883;0.023438;1.900391;
593659;0.127930;0.013672;1.886719;
593799;0.127930;0.014648;1.897461;
593939;0.126953;0.016602;1.901367;
594079;0.125977;0.012695;1.896484;
594219;0.130859;0.012695;1.884766;
594359;0.128906;0.013672;1.876953;
594499;0.125977;0.017578;1.853516;
594639;0.126953;0.017578;1.870117;
594779;0.124023;0.018555;1.849609;
594919;0.127930;0.022461;1.847656;
595059;0.128906;0.016602;1.832031;
595209;0.127930;0.015625;1.833984;
595349;0.126953;0.012695;1.810547;
595489;0.126953;0.014648;1.828125;
595635;0.126953;0.025391;1.831055;
595774;0.125977;0.017578;1.834961;
595919;0.125977;0.017578;1.831055;
596059;0.130859;0.017578;1.841797;
596196;0.129883;0.021484;1.837891;
596329;0.128906;0.017578;1.834961;
596464;0.130859;0.025391;1.836914;
596604;0.130859;0.026367;1.841797;
596755;0.127930;0.030273;1.840820;
596884;0.129883;0.026367;1.828125;
597034;0.130859;0.022461;1.826172;
597174;0.131836;0.014648;1.818359;
597309;0.133789;0.016602;1.838867;
597449;0.136719;0.012695;1.845703;
597589;0.134766;0.012695;1.856445;
597729;0.136719;0.008789;1.869141;
597869;0.139648;0.012695;1.850586;
598009;0.142578;0.010742;1.869141;
598159;0.143555;0.014648;1.862305;
598299;0.144531;0.018555;1.846680;
598439;0.144531;0.015625;1.853516;
598579;0.143555;0.021484;1.854492;
598719;0.142578;0.021484;1.845703;
598869;0.143555;0.024414;1.833984;
599009;0.142578;0.025391;1.833984;
599149;0.144531;0.032227;1.845703;
599285;0.144531;0.021484;1.844727;
599416;0.147461;0.022461;1.827148;
599554;0.147461;0.020508;1.835938;
599709;0.151367;0.020508;1.848633;
599844;0.151367;0.007812;1.831055;
599984;0.151367;0.020508;1.843750;
600115;0.152344;0.015625;1.838867;
600254;0.153320;0.022461;1.838867;
600394;0.159180;0.018555;1.836914;
600544;0.157227;0.017578;1.848633;
600684;0.155273;0.014648;1.841797;
600814;0.161133;0.011719;1.840820;
600959;0.160156;0.004883;1.849609;
601099;0.162109;0.006836;1.855469;
601249;0.162109;0.006836;1.860352;
601389;0.163086;0.010742;1.863281;
601529;0.164062;0.008789;1.845703;
601679;0.167969;0.008789;1.860352;
601819;0.166992;0.014648;1.834961;
601969;0.166992;0.014648;1.812500;
602109;0.164062;0.010742;1.813477;
602249;0.164062;0.016602;1.799805;
602399;0.166016;0.019531;1.797852;
602539;0.169922;0.021484;1.801758;
602679;0.167969;0.017578;1.806641;
602819;0.170898;0.012695;1.788086;
602954;0.170898;0.010742;1.801758;
603089;0.171875;0.013672;1.789062;
603224;0.174805;0.015625;1.804688;
603354;0.174805;0.022461;1.818359;
603485;0.174805;0.020508;1.815430;
603634;0.178711;0.017578;1.820312;
603774;0.181641;0.017578;1.820312;
603914;0.184570;0.018555;1.799805;
604064;0.184570;0.014648;1.810547;
604204;0.186523;0.014648;1.785156;
604349;0.189453;0.020508;1.791016;
604489;0.190430;0.017578;1.796875;
604639;0.193359;0.016602;1.816406;
604779;0.195312;0.022461;1.810547;
604919;0.199219;0.013672;1.833008;
605069;0.198242;0.012695;1.856445;
605209;0.199219;0.015625;1.840820;
605349;0.200195;0.010742;1.815430;
605499;0.198242;0.008789;1.817383;
605639;0.199219;0.008789;1.804688;
605779;0.203125;0.006836;1.810547;
605919;0.207031;0.003906;1.809570;
606059;0.208984;0.006836;1.801758;
606199;0.209961;0.011719;1.791992;
606334;0.209961;0.010742;1.801758;
606464;0.208008;0.006836;1.799805;
606604;0.211914;0.005859;1.781250;
606744;0.212891;0.005859;1.796875;
606894;0.211914;0.013672;1.806641;
607034;0.215820;0.013672;1.788086;
607166;0.214844;0.005859;1.768555;
607294;0.212891;0.009766;1.782227;
607444;0.214844;0.015625;1.765625;
607585;0.208984;0.009766;1.747070;
607739;0.206055;0.020508;1.750977;
607889;0.200195;0.012695;1.745117;
608029;0.198242;0.004883;1.700195;
608169;0.189453;0.019531;1.673828;
608309;0.175781;0.017578;1.640625;
608449;0.166016;0.008789;1.581055;
608599;0.156250;0.012695;1.513672;
608739;0.137695;0.019531;1.430664;
608879;0.123047;0.018555;1.356445;
609019;0.099609;0.021484;1.230469;
609159;0.083984;0.020508;1.133789;
609299;0.068359;0.022461;1.002930;
609439;0.050781;0.019531;0.845703;
609579;0.038086;0.026367;0.747070;
609706;0.030273;0.024414;0.636719;
609836;0.022461;0.026367;0.511719;
609984;0.019531;0.025391;0.441406;
610115;0.014648;0.026367;0.340820;
610258;0.008789;0.026367;0.249023;
610394;0.006836;0.029297;0.181641;
610546;0.003906;0.032227;0.135742;
610674;0.007812;0.027344;0.094727;
610824;0.006836;0.028320;0.060547;
610969;0.005859;0.027344;0.033203;
611119;0.006836;0.025391;0.024414;
611259;0.006836;0.021484;0.018555;
611399;0.000977;0.024414;-0.019531;
611539;0.001953;0.027344;-0.007812;
611679;0.000977;0.023438;0.003906;
611819;0.001953;0.023438;0.004883;
611959;0.001953;0.025391;0.003906;
612099;0.000000;0.027344;0.007812;
612239;-0.003906;0.024414;0.005859;
612379;0.001953;0.024414;0.023438;
612519;-0.003906;0.028320;0.013672;
612659;0.000000;0.023438;0.028320;
612799;-0.004883;0.028320;0.024414;
612934;-0.008789;0.027344;0.033203;
613064;-0.005859;0.027344;0.032227;
613204;-0.006836;0.027344;0.037109;
613334;-0.004883;0.027344;0.032227;
613485;-0.005859;0.025391;0.034180;
613624;-0.004883;0.025391;0.031250;
613774;-0.003906;0.029297;0.019531;
613924;-0.004883;0.026367;0.021484;
614054;-0.007812;0.024414;0.023438;
614209;-0.004883;0.026367;0.016602;
614349;-0.007812;0.027344;0.007812;
614489;-0.005859;0.029297;0.005859;
614629;-0.009766;0.029297;0.000977;
614769;-0.010742;0.029297;0.009766;
614919;-0.011719;0.037109;0.003906;
615059;-0.010742;0.037109;0.012695;
615209;-0.008789;0.036133;0.001953;
615359;-0.008789;0.037109;0.000000;
615499;-0.008789;0.037109;-0.008789;
615639;-0.010742;0.040039;-0.014648;
615779;-0.012695;0.040039;-0.016602;
615919;-0.007812;0.037109;-0.013672;
616059;-0.007812;0.037109;-0.013672;
616194;-0.010742;0.038086;-0.020508;
616334;-0.012695;0.040039;-0.019531;
616474;-0.009766;0.040039;-0.014648;
616625;-0.010742;0.038086;-0.010742;
616755;-0.012695;0.041016;-0.008789;
616899;-0.014648;0.040039;0.009766;
617029;-0.014648;0.039062;0.000000;
617174;-0.011719;0.037109;0.012695;
617305;-0.014648;0.040039;0.011719;
617437;-0.013672;0.035156;0.012695;
617584;-0.017578;0.038086;0.020508;
617729;-0.012695;0.034180;0.026367;
617869;-0.011719;0.035156;0.031250;
618019;-0.013672;0.033203;0.029297;
618159;-0.013672;0.033203;0.033203;
618309;-0.013672;0.033203;0.030273;
618449;-0.015625;0.035156;0.035156;
618589;-0.015625;0.030273;0.030273;
618739;-0.015625;0.032227;0.037109;
618879;-0.017578;0.037109;0.027344;
619019;-0.020508;0.037109;0.030273;
619159;-0.017578;0.035156;0.037109;
619299;-0.016602;0.033203;0.035156;
619439;-0.013672;0.030273;0.029297;
619579;-0.014648;0.032227;0.036133;
619704;-0.014648;0.031250;0.033203;
619844;-0.011719;0.028320;0.031250;
619984;-0.012695;0.029297;0.036133;
620125;-0.016602;0.032227;0.031250;
620255;-0.015625;0.026367;0.030273;
620404;-0.014648;0.029297;0.023438;
620544;-0.014648;0.030273;0.029297;
620676;-0.014648;0.028320;0.029297;
620814;-0.012695;0.029297;0.033203;
620949;-0.014648;0.029297;0.028320;
621089;-0.016602;0.026367;0.025391;
621229;-0.016602;0.030273;0.018555;
621369;-0.014648;0.031250;0.018555;
621509;-0.014648;0.027344;0.019531;
621649;-0.016602;0.030273;0.023438;
621789;-0.016602;0.027344;0.020508;
621929;-0.015625;0.027344;0.022461;
622069;-0.017578;0.030273;0.013672;
622209;-0.016602;0.030273;0.016602;
622349;-0.015625;0.029297;0.011719;
622489;-0.018555;0.027344;0.011719;
622629;-0.017578;0.028320;0.010742;
622769;-0.018555;0.028320;0.009766;
622916;-0.016602;0.028320;0.012695;
623064;-0.016602;0.028320;0.008789;
623204;-0.014648;0.029297;0.010742;
623354;-0.018555;0.031250;0.003906;
623506;-0.014648;0.026367;0.012695;
623635;-0.015625;0.033203;0.007812;
623784;-0.015625;0.025391;0.006836;
623924;-0.015625;0.028320;0.009766;
624074;-0.017578;0.028320;0.014648;
624214;-0.015625;0.029297;0.009766;
624359;-0.018555;0.030273;0.010742;
624499;-0.017578;0.029297;0.002930;
624639;-0.020508;0.029297;0.009766;
624779;-0.019531;0.028320;0.005859;
624919;-0.019531;0.029297;0.009766;
625059;-0.020508;0.027344;0.013672;
625199;-0.019531;0.027344;0.009766;
625339;-0.019531;0.025391;0.008789;
625479;-0.017578;0.029297;0.009766;
625619;-0.018555;0.027344;0.013672;
625769;-0.020508;0.026367;0.016602;
625909;-0.019531;0.022461;0.014648;
626049;-0.019531;0.028320;0.016602;
626184;-0.019531;0.023438;0.019531;
626314;-0.018555;0.030273;0.018555;
626444;-0.019531;0.024414;0.018555;
626575;-0.018555;0.027344;0.020508;
626724;-0.018555;0.023438;0.015625;
626864;-0.019531;0.026367;0.019531;
627004;-0.023438;0.027344;0.012695;
627135;-0.011719;0.034180;0.030273;
627279;-0.022461;0.030273;0.012695;
627419;-0.023438;0.026367;0.015625;
627559;-0.021484;0.028320;0.015625;
627699;-0.022461;0.025391;0.015625;
627839;-0.022461;0.025391;0.013672;
627979;-0.022461;0.029297;0.008789;
628129;-0.023438;0.026367;0.011719;
628269;-0.024414;0.029297;0.007812;
628409;-0.025391;0.028320;0.016602;
628559;-0.023438;0.025391;0.017578;
628699;-0.022461;0.026367;0.015625;
628839;-0.023438;0.025391;0.017578;
628979;-0.024414;0.025391;0.006836;
629114;-0.021484;0.027344;0.011719;
629244;-0.028320;0.028320;0.009766;
629389;-0.025391;0.028320;0.009766;
629524;-0.028320;0.031250;0.003906;
629666;-0.029297;0.029297;0.004883;
629794;-0.026367;0.026367;0.004883;
629934;-0.029297;0.029297;0.009766;
630075;-0.026367;0.030273;0.008789;
630209;-0.024414;0.028320;0.004883;
630344;-0.028320;0.033203;-0.004883;
630495;-0.029297;0.025391;-0.013672;
630624;-0.028320;0.025391;-0.022461;
630774;-0.029297;0.026367;-0.023438;
630914;-0.028320;0.026367;-0.021484;
631059;-0.030273;0.021484;-0.016602;
631199;-0.030273;0.026367;-0.014648;
631339;-0.030273;0.024414;-0.012695;
631479;-0.032227;0.022461;-0.003906;
631619;-0.031250;0.022461;0.009766;
631749;-0.033203;0.026367;0.015625;
631889;-0.033203;0.024414;0.027344;
632029;-0.036133;0.030273;0.017578;
632180;-0.032227;0.032227;0.028320;
632329;-0.034180;0.035156;0.023438;
632469;-0.038086;0.036133;0.033203;
632609;-0.035156;0.036133;0.045898;
632749;-0.037109;0.038086;0.046875;
632889;-0.036133;0.033203;0.054688;
633024;-0.037109;0.033203;0.056641;
633156;-0.038086;0.041992;0.057617;
633294;-0.039062;0.035156;0.033203;
633444;-0.041992;0.032227;0.040039;
633594;-0.042969;0.038086;0.041016;
633724;-0.043945;0.047852;0.071289;
633854;-0.045898;0.035156;0.105469;
634004;-0.046875;0.031250;0.170898;
634159;-0.047852;0.032227;0.247070;
634289;-0.044922;0.031250;0.309570;
634429;-0.041992;0.036133;0.395508;
634569;-0.033203;0.035156;0.533203;
634709;-0.025391;0.036133;0.634766;
634849;-0.012695;0.039062;0.758789;
634989;-0.008789;0.038086;0.871094;
635129;-0.003906;0.034180;0.965820;
635269;0.004883;0.037109;1.037109;
635409;0.013672;0.030273;1.140625;
635559;0.016602;0.027344;1.215820;
635699;0.024414;0.028320;1.270508;
635839;0.035156;0.031250;1.335938;
635979;0.037109;0.027344;1.375977;
636115;0.042969;0.027344;1.423828;
636264;0.043945;0.025391;1.450195;
636414;0.051758;0.029297;1.479492;
636564;0.052734;0.036133;1.526367;
636704;0.054688;0.036133;1.548828;
636854;0.056641;0.037109;1.570312;
636984;0.054688;0.032227;1.578125;
637134;0.051758;0.031250;1.588867;
637284;0.050781;0.032227;1.616211;
637429;0.050781;0.030273;1.625000;
637569;0.049805;0.031250;1.646484;
637709;0.052734;0.032227;1.658203;
637849;0.050781;0.031250;1.657227;
637989;0.052734;0.035156;1.689453;
638139;0.051758;0.037109;1.714844;
638279;0.048828;0.030273;1.707031;
638419;0.050781;0.033203;1.731445;
638559;0.051758;0.030273;1.744141;
638699;0.051758;0.033203;1.762695;
638839;0.050781;0.039062;1.766602;
638979;0.050781;0.038086;1.794922;
639119;0.049805;0.035156;1.794922;
639259;0.047852;0.027344;1.818359;
639394;0.048828;0.027344;1.824219;
639539;0.047852;0.024414;1.828125;
639679;0.048828;0.023438;1.828125;
639814;0.043945;0.020508;1.833008;
639944;0.044922;0.021484;1.832031;
640084;0.041992;0.017578;1.843750;
640234;0.042969;0.022461;1.850586;
640385;0.041992;0.018555;1.843750;
640524;0.038086;0.019531;1.858398;
640674;0.038086;0.021484;1.857422;
640824;0.035156;0.019531;1.860352;
640964;0.034180;0.020508;1.859375;
641222;0.031250;0.029297;1.858398;
641369;0.029297;0.029297;1.866211;
641509;0.027344;0.030273;1.869141;
641649;0.028320;0.030273;1.865234;
641799;0.025391;0.031250;1.853516;
641939;0.021484;0.029297;1.861328;
642079;0.023438;0.023438;1.856445;
642229;0.023438;0.020508;1.847656;
642369;0.020508;0.019531;1.846680;
642509;0.016602;0.016602;1.835938;
642649;0.016602;0.019531;1.846680;
642789;0.016602;0.018555;1.846680;
642929;0.014648;0.018555;1.848633;
643069;0.014648;0.015625;1.845703;
643214;0.008789;0.016602;1.844727;
643344;0.008789;0.020508;1.844727;
643494;0.008789;0.021484;1.856445;
643634;0.007812;0.023438;1.857422;
643784;0.006836;0.019531;1.860352;
643935;0.005859;0.022461;1.868164;
644064;0.001953;0.024414;1.866211;
644205;0.006836;0.024414;1.870117;
644334;0.004883;0.023438;1.880859;
644489;0.003906;0.022461;1.890625;
644629;0.002930;0.016602;1.887695;
644769;0.001953;0.018555;1.888672;
644909;0.001953;0.019531;1.899414;
645049;0.002930;0.019531;1.900391;
645189;0.000977;0.019531;1.905273;
645329;-0.000977;0.014648;1.902344;
645469;0.001953;0.014648;1.910156;
645609;0.000000;0.011719;1.900391;
645749;-0.002930;0.019531;1.907227;
645889;-0.002930;0.013672;1.900391;
646029;-0.002930;0.020508;1.906250;
646169;-0.001953;0.019531;1.915039;
646309;-0.003906;0.018555;1.912109;
646445;-0.005859;0.015625;1.898438;
646574;-0.005859;0.020508;1.904297;
646724;-0.007812;0.024414;1.907227;
646864;-0.008789;0.024414;1.887695;
647014;-0.009766;0.025391;1.890625;
647164;-0.010742;0.023438;1.881836;
647314;-0.013672;0.021484;1.871094;
647454;-0.015625;0.023438;1.855469;
647609;-0.017578;0.022461;1.847656;
647759;-0.014648;0.024414;1.833984;
647899;-0.019531;0.019531;1.820312;
648039;-0.022461;0.017578;1.816406;
648189;-0.021484;0.015625;1.797852;
648329;-0.024414;0.014648;1.784180;
648469;-0.027344;0.010742;1.770508;
648609;-0.027344;0.009766;1.769531;
648749;-0.029297;0.004883;1.757812;
648899;-0.028320;0.012695;1.755859;
649039;-0.031250;0.007812;1.757812;
649179;-0.028320;0.015625;1.761719;
649319;-0.030273;0.017578;1.750977;
649459;-0.033203;0.014648;1.750977;
649594;-0.035156;0.015625;1.732422;
649734;-0.037109;0.016602;1.717773;
649865;-0.038086;0.018555;1.710938;
650014;-0.036133;0.024414;1.701172;
650154;-0.042969;0.022461;1.680664;
650294;-0.042969;0.023438;1.662109;
650425;-0.044922;0.021484;1.647461;
650564;-0.046875;0.019531;1.616211;
650694;-0.050781;0.019531;1.597656;
650844;-0.053711;0.018555;1.577148;
650974;-0.053711;0.020508;1.550781;
651129;-0.053711;0.019531;1.536133;
651269;-0.058594;0.015625;1.501953;
651419;-0.060547;0.014648;1.483398;
651559;-0.060547;0.015625;1.477539;
651699;-0.061523;0.014648;1.462891;
651849;-0.063477;0.012695;1.437500;
651989;-0.063477;0.016602;1.447266;
652129;-0.065430;0.015625;1.434570;
652279;-0.063477;0.018555;1.426758;
652419;-0.063477;0.018555;1.435547;
652559;-0.068359;0.017578;1.415039;
652699;-0.067383;0.017578;1.404297;
652839;-0.069336;0.019531;1.382812;
652979;-0.072266;0.017578;1.354492;
653104;-0.073242;0.014648;1.328125;
653244;-0.076172;0.020508;1.291016;
653394;-0.078125;0.018555;1.266602;
653534;-0.081055;0.025391;1.234375;
653676;-0.082031;0.020508;1.214844;
653814;-0.081055;0.027344;1.189453;
653959;-0.083984;0.025391;1.174805;
654108;-0.086914;0.022461;1.151367;
654239;-0.083008;0.023438;1.147461;
654389;-0.088867;0.024414;1.134766;
654529;-0.085938;0.020508;1.127930;
654669;-0.085938;0.019531;1.131836;
654819;-0.083984;0.028320;1.125977;
654959;-0.083984;0.020508;1.140625;
655099;-0.085938;0.025391;1.138672;
655239;-0.083008;0.026367;1.143555;
655379;-0.086914;0.022461;1.153320;
655519;-0.083008;0.024414;1.158203;
655659;-0.083984;0.026367;1.151367;
655799;-0.082031;0.025391;1.167969;
655949;-0.086914;0.021484;1.164062;
656089;-0.085938;0.028320;1.179688;
656224;-0.083008;0.028320;1.171875;
656364;-0.087891;0.024414;1.175781;
656505;-0.082031;0.030273;1.184570;
656654;-0.080078;0.025391;1.173828;
656794;-0.085938;0.022461;1.167969;
656944;-0.081055;0.021484;1.169922;
657084;-0.083984;0.021484;1.160156;
657229;-0.087891;0.022461;1.151367;
657364;-0.087891;0.020508;1.153320;
657505;-0.083984;0.027344;1.152344;
657659;-0.085938;0.021484;1.135742;
657809;-0.088867;0.027344;1.108398;
657949;-0.088867;0.029297;1.090820;
658089;-0.088867;0.029297;1.066406;
658229;-0.090820;0.034180;1.046875;
658369;-0.089844;0.031250;1.013672;
658509;-0.091797;0.032227;1.016602;
658649;-0.092773;0.030273;0.991211;
658789;-0.089844;0.029297;0.998047;
658929;-0.092773;0.026367;0.974609;
659069;-0.093750;0.030273;0.974609;
659209;-0.092773;0.025391;0.962891;
659349;-0.090820;0.027344;0.971680;
659489;-0.095703;0.026367;0.959961;
659625;-0.093750;0.027344;0.953125;
659754;-0.091797;0.023438;0.960938;
659899;-0.093750;0.027344;0.953125;
660034;-0.094727;0.026367;0.964844;
660185;-0.091797;0.023438;0.961914;
660314;-0.092773;0.024414;0.974609;
660454;-0.092773;0.020508;0.992188;
660584;-0.093750;0.020508;0.998047;
660724;-0.090820;0.018555;1.014648;
660874;-0.090820;0.017578;1.020508;
661029;-0.090820;0.020508;1.036133;
661169;-0.090820;0.023438;1.031250;
661309;-0.090820;0.021484;1.032227;
661449;-0.090820;0.028320;1.042969;
661589;-0.089844;0.023438;1.042969;
661739;-0.089844;0.032227;1.049805;
661879;-0.088867;0.028320;1.049805;
662019;-0.090820;0.025391;1.057617;
662159;-0.089844;0.022461;1.057617;
662299;-0.088867;0.030273;1.075195;
662449;-0.088867;0.026367;1.071289;
662589;-0.087891;0.028320;1.089844;
662729;-0.086914;0.022461;1.088867;
662869;-0.085938;0.022461;1.080078;
663005;-0.087891;0.024414;1.076172;
663136;-0.089844;0.023438;1.086914;
663284;-0.086914;0.022461;1.083008;
663435;-0.085938;0.019531;1.082031;
663584;-0.086914;0.021484;1.087891;
663736;-0.087891;0.020508;1.089844;
663869;-0.086914;0.025391;1.099609;
664004;-0.087891;0.021484;1.083984;
664134;-0.086914;0.025391;1.081055;
664285;-0.086914;0.025391;1.088867;
664414;-0.086914;0.025391;1.089844;
664569;-0.087891;0.025391;1.080078;
664719;-0.090820;0.024414;1.083008;
664859;-0.092773;0.026367;1.087891;
664999;-0.085938;0.022461;1.088867;
665139;-0.086914;0.026367;1.093750;
665279;-0.088867;0.023438;1.096680;
665419;-0.082031;0.025391;1.125977;
665559;-0.083008;0.024414;1.131836;
665699;-0.085938;0.022461;1.135742;
665839;-0.082031;0.026367;1.162109;
665979;-0.083984;0.029297;1.162109;
666119;-0.082031;0.029297;1.178711;
666259;-0.082031;0.030273;1.188477;
666399;-0.079102;0.029297;1.196289;
666534;-0.079102;0.024414;1.195312;
666675;-0.082031;0.022461;1.195312;
666814;-0.080078;0.022461;1.198242;
666956;-0.081055;0.023438;1.183594;
667096;-0.081055;0.023438;1.188477;
667224;-0.081055;0.019531;1.181641;
667355;-0.081055;0.019531;1.180664;
667504;-0.082031;0.019531;1.162109;
667644;-0.085938;0.018555;1.149414;
667799;-0.082031;0.021484;1.142578;
667939;-0.082031;0.017578;1.150391;
668079;-0.084961;0.019531;1.139648;
668229;-0.082031;0.021484;1.127930;
668369;-0.081055;0.025391;1.129883;
668509;-0.088867;0.028320;1.124023;
668659;-0.084961;0.022461;1.114258;
668799;-0.084961;0.026367;1.105469;
668939;-0.085938;0.022461;1.107422;
669089;-0.085938;0.032227;1.115234;
669229;-0.082031;0.023438;1.107422;
669369;-0.084961;0.025391;1.103516;
669509;-0.085938;0.021484;1.092773;
669649;-0.083008;0.028320;1.097656;
669774;-0.086914;0.021484;1.082031;
669915;-0.083984;0.021484;1.079102;
670054;-0.086914;0.020508;1.067383;
670204;-0.084961;0.024414;1.053711;
670355;-0.089844;0.028320;1.049805;
670504;-0.085938;0.025391;1.042969;
670654;-0.085938;0.027344;1.039062;
670809;-0.085938;0.024414;1.039062;
670949;-0.083984;0.019531;1.017578;
671089;-0.083008;0.020508;1.023438;
671229;-0.084961;0.020508;1.027344;
671369;-0.086914;0.017578;1.012695;
671509;-0.082031;0.021484;1.021484;
671649;-0.082031;0.013672;1.018555;
671789;-0.081055;0.019531;1.023438;
671929;-0.079102;0.021484;1.026367;
672079;-0.075195;0.024414;1.032227;
672219;-0.076172;0.017578;1.028320;
672359;-0.074219;0.022461;1.041016;
672499;-0.072266;0.025391;1.043945;
672639;-0.073242;0.028320;1.054688;
672774;-0.065430;0.026367;1.053711;
672905;-0.063477;0.020508;1.057617;
673034;-0.063477;0.014648;1.055664;
673176;-0.057617;0.025391;1.054688;
673304;-0.057617;0.021484;1.046875;
673444;-0.050781;0.022461;1.044922;
673584;-0.044922;0.023438;1.055664;
673714;-0.040039;0.023438;1.029297;
673864;-0.039062;0.024414;1.028320;
673996;-0.035156;0.026367;1.022461;
674149;-0.031250;0.021484;1.015625;
674289;-0.030273;0.026367;1.030273;
674419;-0.029297;0.031250;1.035156;
674559;-0.029297;0.031250;1.033203;
674699;-0.031250;0.027344;1.040039;
674839;-0.029297;0.015625;1.046875;
674984;-0.030273;0.014648;1.053711;
675129;-0.025391;0.023438;1.064453;
675269;-0.031250;0.018555;1.053711;
675409;-0.032227;0.017578;1.063477;
675550;-0.028320;0.020508;1.058594;
675694;-0.032227;0.017578;1.050781;
675839;-0.029297;0.021484;1.055664;
675979;-0.034180;0.016602;1.031250;
676124;-0.029297;0.023438;1.041016;
676269;-0.031250;0.020508;1.025391;
676404;-0.029297;0.025391;1.058594;
676544;-0.030273;0.015625;1.028320;
676696;-0.037109;0.023438;1.041992;
676844;-0.030273;0.026367;1.017578;
676994;-0.033203;0.030273;1.033203;
677144;-0.034180;0.022461;1.036133;
677274;-0.033203;0.017578;1.003906;
677414;-0.032227;0.022461;1.038086;
677554;-0.031250;0.018555;1.024414;
677684;-0.036133;0.019531;1.021484;
677834;-0.035156;0.022461;1.026367;
677974;-0.034180;0.030273;1.031250;
678124;-0.033203;0.019531;1.060547;
678265;-0.032227;0.022461;1.049805;
678395;-0.032227;0.017578;1.067383;
678524;-0.030273;0.016602;1.083984;
678654;-0.025391;0.015625;1.085938;
678784;-0.034180;0.023438;1.102539;
678924;-0.027344;0.016602;1.123047;
679074;-0.030273;0.016602;1.108398;
679229;-0.026367;0.025391;1.121094;
679369;-0.031250;0.021484;1.115234;
679509;-0.029297;0.020508;1.135742;
679656;-0.029297;0.026367;1.122070;
679784;-0.028320;0.027344;1.143555;
679929;-0.026367;0.028320;1.138672;
680069;-0.032227;0.020508;1.127930;
680204;-0.024414;0.024414;1.138672;
680334;-0.030273;0.020508;1.118164;
680485;-0.026367;0.020508;1.111328;
680634;-0.025391;0.012695;1.114258;
680784;-0.030273;0.021484;1.113281;
680934;-0.025391;0.018555;1.116211;
681064;-0.037109;0.023438;1.096680;
681204;-0.025391;0.027344;1.125977;
681334;-0.033203;0.021484;1.093750;
681484;-0.028320;0.022461;1.116211;
681634;-0.030273;0.021484;1.113281;
681784;-0.024414;0.020508;1.125000;
681928;-0.029297;0.024414;1.151367;
682064;-0.024414;0.013672;1.163086;
682214;-0.024414;0.017578;1.180664;
682354;-0.025391;0.026367;1.185547;
682489;-0.024414;0.022461;1.175781;
682629;-0.022461;0.019531;1.193359;
682769;-0.017578;0.031250;1.214844;
682920;-0.016602;0.022461;1.222656;
683064;-0.016602;0.022461;1.224609;
683219;-0.010742;0.021484;1.208008;
683354;-0.005859;0.025391;1.198242;
683489;-0.000977;0.018555;1.224609;
683639;-0.003906;0.021484;1.210938;
683774;0.002930;0.018555;1.195312;
683925;0.005859;0.010742;1.224609;
684074;0.006836;0.009766;1.227539;
684214;0.004883;0.024414;1.209961;
684364;0.005859;0.015625;1.219727;
684514;0.000977;0.012695;1.199219;
684645;-0.002930;0.019531;1.194336;
684794;-0.000977;0.023438;1.204102;
684934;-0.004883;0.020508;1.181641;
685084;-0.009766;0.026367;1.173828;
685224;-0.003906;0.022461;1.166016;
685364;-0.003906;0.028320;1.153320;
685514;-0.008789;0.023438;1.133789;
685645;-0.008789;0.027344;1.103516;
685774;-0.005859;0.023438;1.093750;
685914;-0.011719;0.040039;1.092773;
686059;-0.012695;0.031250;1.072266;
686199;-0.011719;0.034180;1.039062;
686334;-0.014648;0.016602;1.033203;
686467;-0.014648;0.026367;1.009766;
686609;-0.010742;0.016602;1.000977;
686749;-0.016602;0.014648;0.988281;
686889;-0.012695;0.028320;0.983398;
687029;-0.014648;0.027344;0.974609;
687178;-0.014648;0.002930;0.967773;
687315;-0.013672;0.024414;0.962891;
687444;-0.012695;0.019531;0.958984;
687579;-0.014648;0.018555;0.981445;
687714;-0.015625;0.024414;0.993164;
687859;-0.017578;0.031250;0.988281;
688010;-0.012695;0.022461;0.987305;
688154;-0.018555;0.022461;0.982422;
688294;-0.017578;0.031250;0.996094;
688444;-0.011719;0.025391;1.000977;
688594;-0.016602;0.035156;0.988281;
688734;-0.020508;0.033203;0.957031;
688896;-0.015625;0.019531;0.970703;
689044;-0.016602;0.014648;0.988281;
689195;-0.011719;0.021484;0.995117;
689334;-0.014648;0.018555;0.997070;
689484;-0.013672;0.025391;1.009766;
689624;-0.011719;0.027344;1.001953;
689764;-0.013672;0.016602;1.020508;
689915;-0.010742;0.018555;1.014648;
690064;-0.013672;0.020508;1.032227;
690194;-0.013672;0.021484;1.002930;
690329;-0.015625;0.023438;0.994141;
690479;-0.011719;0.020508;1.009766;
690614;-0.012695;0.019531;0.989258;
690759;-0.014648;0.026367;0.981445;
690899;-0.011719;0.034180;0.984375;
691039;-0.013672;0.021484;1.000977;
691174;-0.011719;0.012695;0.991211;
691304;-0.017578;0.034180;0.995117;
691449;-0.018555;0.023438;0.987305;
691589;-0.014648;0.018555;0.992188;
691729;-0.013672;0.021484;0.993164;
691874;-0.016602;0.029297;0.992188;
692014;-0.017578;0.014648;0.969727;
692149;-0.014648;0.020508;0.979492;
692294;-0.012695;0.012695;0.986328;
692425;-0.016602;0.011719;0.985352;
692555;-0.016602;0.015625;0.966797;
692704;-0.011719;0.023438;0.986328;
692844;-0.018555;0.027344;1.013672;
692985;-0.013672;0.028320;1.026367;
693134;-0.006836;0.023438;1.034180;
693285;-0.009766;0.022461;1.049805;
693434;-0.007812;0.024414;1.065430;
693584;-0.010742;0.008789;1.081055;
693724;-0.008789;0.015625;1.068359;
693865;-0.004883;0.025391;1.082031;
693994;-0.016602;0.032227;1.090820;
694124;-0.005859;0.012695;1.088867;
694264;-0.006836;0.020508;1.088867;
694405;-0.008789;0.026367;1.108398;
694534;-0.011719;0.032227;1.099609;
694689;-0.007812;0.033203;1.081055;
694829;-0.010742;0.028320;1.100586;
694969;-0.008789;0.024414;1.095703;
695109;-0.007812;0.024414;1.078125;
695244;-0.008789;0.029297;1.094727;
695384;-0.011719;0.021484;1.093750;
695526;-0.011719;0.019531;1.089844;
695674;-0.005859;0.023438;1.083008;
695819;-0.010742;0.023438;1.079102;
695959;-0.010742;0.020508;1.087891;
696099;-0.007812;0.030273;1.079102;
696244;-0.011719;0.030273;1.067383;
696394;-0.013672;0.021484;1.062500;
696544;-0.015625;0.032227;1.061523;
696694;-0.009766;0.027344;1.052734;
696824;-0.011719;0.024414;1.054688;
696954;-0.010742;0.026367;1.056641;
697094;-0.009766;0.027344;1.050781;
697234;-0.012695;0.021484;1.056641;
697384;-0.015625;0.026367;1.041016;
697534;-0.012695;0.028320;1.043945;
697689;-0.010742;0.019531;1.041992;
697824;-0.013672;0.025391;1.056641;
697954;-0.012695;0.022461;1.049805;
698095;-0.011719;0.017578;1.044922;
698234;-0.009766;0.020508;1.055664;
698384;-0.012695;0.017578;1.052734;
698525;-0.010742;0.019531;1.043945;
698674;-0.007812;0.018555;1.040039;
698824;-0.012695;0.022461;1.035156;
698964;-0.009766;0.019531;1.044922;
699104;-0.011719;0.020508;1.041016;
699254;-0.009766;0.018555;1.041992;
699384;-0.010742;0.018555;1.041016;
699529;-0.011719;0.029297;1.043945;
699669;-0.011719;0.020508;1.042969;
699809;-0.012695;0.018555;1.050781;
699949;-0.011719;0.015625;1.065430;
700084;-0.008789;0.017578;1.066406;
700229;-0.011719;0.017578;1.065430;
700369;-0.009766;0.015625;1.071289;
700509;-0.004883;0.015625;1.086914;
700644;-0.009766;0.019531;1.074219;
700784;-0.009766;0.016602;1.079102;
700929;-0.010742;0.023438;1.073242;
701068;-0.011719;0.026367;1.083984;
701214;-0.007812;0.025391;1.087891;
701365;-0.006836;0.022461;1.084961;
701494;-0.007812;0.026367;1.092773;
701644;-0.008789;0.018555;1.080078;
701784;-0.008789;0.022461;1.088867;
701924;-0.005859;0.017578;1.086914;
702065;-0.009766;0.022461;1.088867;
702195;-0.006836;0.016602;1.083008;
702334;-0.011719;0.020508;1.088867;
702485;-0.006836;0.014648;1.090820;
702624;-0.010742;0.017578;1.078125;
702774;-0.010742;0.020508;1.088867;
702924;-0.010742;0.021484;1.081055;
703079;-0.008789;0.019531;1.080078;
703214;-0.009766;0.017578;1.068359;
703354;-0.007812;0.018555;1.055664;
703489;-0.010742;0.024414;1.065430;
703624;-0.009766;0.023438;1.052734;
703769;-0.009766;0.018555;1.056641;
703919;-0.010742;0.019531;1.043945;
704059;-0.007812;0.018555;1.041992;
704194;-0.008789;0.024414;1.044922;
704344;-0.010742;0.024414;1.038086;
704489;-0.013672;0.017578;1.040039;
704639;-0.013672;0.022461;1.030273;
704779;-0.009766;0.020508;1.024414;
704914;-0.013672;0.029297;1.022461;
705045;-0.013672;0.016602;1.016602;
705184;-0.009766;0.023438;1.011719;
705334;-0.013672;0.017578;1.010742;
705464;-0.014648;0.024414;0.996094;
705614;-0.011719;0.018555;0.998047;
705754;-0.014648;0.020508;0.992188;
705884;-0.014648;0.018555;0.982422;
706024;-0.012695;0.027344;0.985352;
706166;-0.013672;0.022461;0.975586;
706294;-0.011719;0.020508;0.973633;
706435;-0.016602;0.024414;0.980469;
706584;-0.012695;0.024414;0.971680;
706725;-0.013672;0.021484;0.980469;
706866;-0.010742;0.021484;0.971680;
707004;-0.017578;0.025391;0.973633;
707144;-0.015625;0.022461;0.976562;
707294;-0.013672;0.023438;0.988281;
707434;-0.015625;0.021484;0.987305;
707569;-0.015625;0.021484;0.985352;
707709;-0.012695;0.021484;1.000000;
707849;-0.015625;0.016602;0.996094;
707989;-0.012695;0.022461;0.996094;
708114;-0.009766;0.022461;1.013672;
708244;-0.010742;0.024414;1.018555;
708375;-0.007812;0.021484;1.025391;
708509;-0.013672;0.019531;1.020508;
708649;-0.011719;0.022461;1.027344;
708789;-0.010742;0.025391;1.024414;
708930;-0.010742;0.023438;1.034180;
709084;-0.012695;0.028320;1.025391;
709234;-0.011719;0.018555;1.036133;
709374;-0.012695;0.022461;1.025391;
709515;-0.011719;0.016602;1.039062;
709654;-0.007812;0.022461;1.034180;
709804;-0.007812;0.023438;1.035156;
709954;0.001953;0.021484;1.036133;
710104;0.000000;0.021484;1.029297;
710244;0.000977;0.018555;1.022461;
710394;0.003906;0.023438;1.026367;
710534;0.004883;0.023438;1.034180;
710674;0.001953;0.020508;1.031250;
710824;0.000000;0.032227;1.022461;
710969;-0.000977;0.026367;1.042969;
711109;0.000000;0.022461;1.037109;
711244;-0.001953;0.026367;1.040039;
711385;-0.002930;0.018555;1.038086;
711539;-0.000977;0.014648;1.036133;
711679;-0.000977;0.013672;1.033203;
711829;0.000977;0.016602;1.037109;
711969;-0.002930;0.015625;1.033203;
712094;-0.002930;0.016602;1.032227;
712229;0.000977;0.020508;1.037109;
712369;-0.000977;0.023438;1.025391;
712509;0.001953;0.014648;1.029297;
712649;-0.003906;0.027344;1.028320;
712774;0.000000;0.026367;1.017578;
712914;-0.000977;0.022461;1.007812;
713054;-0.006836;0.021484;1.011719;
713204;-0.004883;0.022461;1.023438;
713335;0.000000;0.021484;1.024414;
713474;0.001953;0.014648;1.027344;
713614;0.000977;0.021484;1.032227;
713755;-0.004883;0.020508;1.027344;
713894;0.000977;0.029297;1.044922;
714044;-0.000977;0.024414;1.050781;
714184;0.000000;0.016602;1.038086;
714324;-0.002930;0.016602;1.034180;
714454;0.000977;0.022461;1.038086;
714594;-0.001953;0.024414;1.042969;
714735;-0.001953;0.027344;1.041016;
714875;0.000977;0.025391;1.032227;
715019;0.000977;0.022461;1.043945;
715169;-0.003906;0.015625;1.039062;
715309;0.000977;0.020508;1.037109;
715444;0.000000;0.020508;1.029297;
715584;-0.001953;0.026367;1.034180;
715714;0.001953;0.019531;1.036133;
715845;0.000977;0.020508;1.031250;
715994;-0.001953;0.016602;1.035156;
716144;-0.000977;0.018555;1.041016;
716284;-0.000977;0.022461;1.035156;
716434;0.001953;0.014648;1.032227;
716584;-0.002930;0.021484;1.039062;
716735;0.000000;0.023438;1.040039;
716874;-0.002930;0.025391;1.044922;
717024;0.000977;0.019531;1.050781;
717164;0.000000;0.018555;1.040039;
717304;0.000977;0.018555;1.041992;
717444;-0.003906;0.023438;1.036133;
717589;-0.004883;0.022461;1.041992;
717739;-0.000977;0.025391;1.033203;
717874;0.000977;0.022461;1.024414;
718014;-0.001953;0.019531;1.028320;
718154;-0.000977;0.016602;1.019531;
718296;0.000000;0.023438;1.037109;
718434;-0.000977;0.022461;1.021484;
718586;-0.001953;0.020508;1.026367;
718739;0.000000;0.013672;1.025391;
718885;0.000977;0.021484;1.027344;
719014;-0.003906;0.023438;1.024414;
719149;-0.000977;0.019531;1.029297;
719299;0.000000;0.020508;1.016602;
719439;-0.000977;0.018555;1.022461;
719579;-0.000977;0.018555;1.026367;
719714;0.000000;0.021484;1.032227;
719854;-0.001953;0.025391;1.022461;
719994;0.000000;0.025391;1.028320;
720149;-0.005859;0.020508;1.011719;
720289;-0.002930;0.020508;1.012695;
720439;-0.006836;0.021484;1.023438;
720574;-0.000977;0.021484;1.010742;
720724;-0.001953;0.022461;0.997070;
720865;-0.002930;0.020508;0.987305;
721009;-0.005859;0.018555;1.009766;
721146;-0.001953;0.014648;0.998047;
721274;-0.003906;0.015625;1.003906;
721414;-0.001953;0.018555;0.998047;
721564;-0.004883;0.023438;0.991211;
721704;-0.002930;0.024414;1.000000;
721845;-0.005859;0.019531;1.000000;
721994;-0.000977;0.017578;1.011719;
722124;-0.003906;0.023438;1.003906;
722274;-0.002930;0.025391;1.024414;
722406;-0.003906;0.026367;1.003906;
722554;-0.000977;0.019531;1.011719;
722704;-0.005859;0.015625;1.003906;
722844;-0.000977;0.019531;1.014648;
722985;-0.001953;0.024414;0.999023;
723114;-0.003906;0.022461;1.013672;
723254;-0.001953;0.018555;0.999023;
723384;-0.005859;0.024414;0.998047;
723516;-0.002930;0.020508;1.004883;
723654;-0.000977;0.018555;1.018555;
723794;-0.006836;0.020508;1.005859;
723929;-0.002930;0.022461;1.020508;
724069;-0.004883;0.021484;1.007812;
724209;-0.002930;0.019531;1.003906;
724349;-0.003906;0.027344;0.999023;
724475;-0.004883;0.021484;1.025391;
724609;-0.003906;0.025391;1.013672;
724749;-0.003906;0.018555;1.006836;
724889;-0.004883;0.027344;1.025391;
725029;-0.006836;0.019531;1.015625;
725175;-0.001953;0.026367;1.040039;
725309;-0.002930;0.019531;1.024414;
725459;0.000000;0.016602;1.032227;
725599;-0.003906;0.014648;1.030273;
725740;-0.000977;0.011719;1.040039;
725885;0.000000;0.014648;1.039062;
726015;-0.001953;0.014648;1.034180;
726154;0.000000;0.030273;1.042969;
726294;-0.002930;0.017578;1.035156;
726444;-0.006836;0.026367;1.035156;
726584;-0.003906;0.021484;1.027344;
726734;-0.000977;0.020508;1.031250;
726875;-0.006836;0.015625;1.036133;
727014;-0.004883;0.027344;1.043945;
727164;-0.001953;0.016602;1.027344;
727304;-0.001953;0.021484;1.040039;
727445;-0.001953;0.014648;1.041016;
727589;-0.000977;0.024414;1.043945;
727734;-0.000977;0.020508;1.043945;
727875;-0.002930;0.023438;1.065430;
728014;-0.004883;0.025391;1.041992;
728165;-0.001953;0.021484;1.046875;
728304;-0.004883;0.019531;1.049805;
728449;0.000000;0.027344;1.050781;
728589;-0.005859;0.020508;1.036133;
728727;0.000977;0.022461;1.062500;
728864;-0.003906;0.024414;1.063477;
729009;-0.002930;0.015625;1.066406;
729149;-0.000977;0.018555;1.061523;
729289;0.000000;0.018555;1.078125;
729429;-0.000977;0.017578;1.058594;
729564;0.000000;0.013672;1.076172;
729704;0.000000;0.013672;1.063477;
729849;-0.001953;0.014648;1.063477;
729999;-0.000977;0.021484;1.070312;
730139;0.000000;0.025391;1.053711;
730277;-0.003906;0.029297;1.060547;
730416;-0.000977;0.017578;1.076172;
730564;-0.003906;0.021484;1.049805;
730704;0.000000;0.018555;1.043945;
730846;-0.002930;0.023438;1.055664;
730984;-0.004883;0.017578;1.043945;
731135;0.001953;0.021484;1.059570;
731265;-0.000977;0.018555;1.044922;
731414;-0.006836;0.022461;1.041992;
731554;-0.004883;0.023438;1.052734;
731684;-0.002930;0.026367;1.044922;
731817;-0.002930;0.017578;1.038086;
731969;-0.001953;0.020508;1.048828;
732104;-0.002930;0.024414;1.043945;
732239;-0.001953;0.025391;1.046875;
732374;-0.006836;0.024414;1.010742;
732514;-0.004883;0.023438;1.034180;
732654;-0.003906;0.008789;1.047852;
732809;-0.002930;0.014648;1.032227;
732949;-0.000977;0.020508;1.029297;
733089;-0.000977;0.023438;1.037109;
733229;-0.004883;0.015625;1.024414;
733365;-0.004883;0.027344;1.029297;
733504;0.000977;0.024414;1.045898;
733649;-0.001953;0.034180;1.026367;
733799;-0.005859;0.029297;1.012695;
733934;-0.004883;0.022461;1.022461;
734084;0.000000;0.013672;1.020508;
734224;-0.007812;0.027344;1.006836;
734364;-0.004883;0.022461;1.016602;
734514;-0.003906;0.019531;1.008789;
734654;-0.005859;0.015625;1.037109;
734804;-0.005859;0.016602;1.040039;
734934;-0.004883;0.019531;1.024414;
735066;-0.003906;0.021484;1.029297;
735204;-0.004883;0.024414;1.037109;
735355;-0.004883;0.028320;1.017578;
735499;-0.002930;0.028320;1.013672;
735629;-0.005859;0.015625;1.024414;
735767;-0.005859;0.016602;1.026367;
735916;-0.000977;0.017578;1.016602;
736055;-0.001953;0.023438;1.023438;
736194;-0.006836;0.022461;1.024414;
736349;-0.000977;0.022461;1.008789;
736489;-0.007812;0.032227;1.025391;
736629;-0.003906;0.025391;1.030273;
736764;-0.003906;0.016602;1.027344;
736905;0.000977;0.007812;1.034180;
737044;-0.004883;0.011719;1.022461;
737179;-0.003906;0.019531;1.022461;
737314;-0.004883;0.023438;1.016602;
737464;-0.001953;0.016602;1.030273;
737604;-0.008789;0.026367;1.017578;
737734;0.000977;0.025391;1.024414;
737874;-0.002930;0.020508;1.025391;
738024;-0.003906;0.015625;1.021484;
738165;-0.000977;0.017578;1.022461;
738304;-0.005859;0.017578;1.011719;
738446;-0.002930;0.022461;1.004883;
738575;-0.003906;0.012695;1.003906;
738714;-0.003906;0.016602;1.005859;
738854;-0.007812;0.027344;0.999023;
739004;-0.002930;0.028320;0.995117;
739139;-0.002930;0.027344;1.024414;
739284;-0.007812;0.020508;1.006836;
739424;-0.002930;0.013672;1.010742;
739569;-0.001953;0.021484;1.011719;
739705;-0.007812;0.024414;1.002930;
739849;-0.005859;0.026367;0.995117;
739999;-0.005859;0.017578;0.993164;
740139;-0.006836;0.030273;0.990234;
740279;-0.003906;0.023438;0.993164;
740415;-0.005859;0.022461;0.998047;
740564;-0.003906;0.015625;0.989258;
740699;-0.006836;0.025391;0.983398;
740839;-0.002930;0.017578;0.988281;
740979;-0.008789;0.017578;0.987305;
741119;-0.003906;0.026367;0.991211;
741259;-0.005859;0.032227;0.984375;
741399;-0.006836;0.015625;0.972656;
741534;-0.006836;0.019531;0.989258;
741666;-0.005859;0.023438;0.993164;
741795;-0.006836;0.021484;1.005859;
741944;-0.006836;0.014648;1.014648;
742089;-0.008789;0.011719;0.994141;
742225;0.001953;0.010742;1.013672;
742354;-0.003906;0.013672;1.014648;
742484;-0.006836;0.024414;1.033203;
742624;-0.004883;0.029297;1.032227;
742764;-0.008789;0.032227;1.010742;
742914;0.000977;0.032227;1.015625;
743055;-0.011719;0.032227;1.004883;
743184;-0.008789;0.022461;1.008789;
743339;-0.001953;0.021484;1.014648;
743479;-0.007812;0.014648;1.020508;
743619;0.000000;0.021484;1.001953;
743759;-0.005859;0.015625;1.013672;
743904;-0.008789;0.015625;1.025391;
744045;0.000977;0.016602;1.041992;
744189;-0.001953;0.021484;1.026367;
744329;-0.007812;0.020508;1.020508;
744469;-0.008789;0.026367;1.026367;
744604;-0.000977;0.017578;1.022461;
744749;-0.003906;0.024414;1.021484;
744889;-0.004883;0.029297;1.007812;
745029;-0.007812;0.024414;1.016602;
745166;-0.008789;0.022461;1.024414;
745304;-0.000977;0.015625;1.004883;
745456;0.000000;0.020508;1.013672;
745604;-0.006836;0.018555;1.027344;
745744;-0.006836;0.023438;1.024414;
745894;-0.004883;0.029297;1.019531;
746045;-0.003906;0.019531;1.039062;
746194;-0.003906;0.033203;1.029297;
746326;-0.002930;0.020508;1.038086;
746464;-0.003906;0.025391;1.038086;
746594;0.004883;0.015625;1.061523;
746739;-0.000977;0.017578;1.071289;
746879;0.000000;0.016602;1.041992;
747019;0.003906;0.026367;1.052734;
747159;0.000977;0.012695;1.059570;
747299;0.003906;0.017578;1.057617;
747439;0.015625;0.019531;1.052734;
747579;0.013672;0.018555;1.043945;
747719;0.018555;0.024414;1.062500;
747869;0.022461;0.024414;1.060547;
748009;0.031250;0.022461;1.055664;
748149;0.034180;0.012695;1.054688;
748289;0.041016;0.006836;1.086914;
748429;0.047852;0.017578;1.083984;
748579;0.045898;0.012695;1.056641;
748706;0.045898;0.019531;1.080078;
748835;0.046875;0.019531;1.074219;
748974;0.053711;0.025391;1.059570;
749118;0.051758;0.036133;1.070312;
749254;0.058594;0.037109;1.075195;
749394;0.061523;0.029297;1.063477;
749544;0.068359;0.035156;1.064453;
749694;0.074219;0.026367;1.066406;
749835;0.077148;0.018555;1.054688;
749979;0.080078;0.026367;1.059570;
750129;0.083008;0.015625;1.040039;
750269;0.083008;0.023438;1.019531;
750409;0.087891;0.017578;1.006836;
750549;0.095703;0.025391;1.006836;
750689;0.091797;0.014648;0.993164;
750829;0.090820;0.016602;0.957031;
750969;0.095703;0.021484;0.951172;
751109;0.087891;0.017578;0.955078;
751249;0.095703;0.019531;0.991211;
751389;0.092773;0.023438;0.985352;
751539;0.091797;0.022461;0.984375;
751679;0.098633;0.023438;1.010742;
751819;0.095703;0.023438;1.009766;
751946;0.097656;0.033203;1.003906;
752074;0.097656;0.028320;0.996094;
752215;0.096680;0.015625;1.004883;
752354;0.097656;0.021484;1.016602;
752484;0.093750;0.025391;1.004883;
752634;0.100586;0.025391;1.024414;
752767;0.097656;0.017578;1.052734;
752909;0.096680;0.020508;1.071289;
753045;0.099609;0.012695;1.108398;
753199;0.100586;0.021484;1.125977;
753339;0.101562;0.019531;1.118164;
753479;0.100586;0.027344;1.125000;
753619;0.104492;0.018555;1.138672;
753759;0.102539;0.020508;1.150391;
753899;0.104492;0.022461;1.142578;
754039;0.102539;0.023438;1.147461;
754179;0.097656;0.021484;1.148438;
754319;0.100586;0.025391;1.174805;
754459;0.102539;0.027344;1.141602;
754599;0.095703;0.019531;1.125000;
754749;0.099609;0.016602;1.130859;
754889;0.100586;0.010742;1.102539;
755029;0.096680;0.011719;1.077148;
755164;0.097656;0.008789;1.075195;
755294;0.095703;0.011719;1.061523;
755424;0.093750;0.005859;1.044922;
755569;0.092773;0.014648;1.020508;
755719;0.093750;0.016602;0.994141;
755864;0.090820;0.018555;0.965820;
756006;0.094727;0.018555;0.953125;
756144;0.090820;0.027344;0.932617;
756294;0.087891;0.030273;0.941406;
756447;0.086914;0.023438;0.957031;
756599;0.090820;0.033203;0.973633;
756739;0.084961;0.022461;0.979492;
756889;0.089844;0.034180;1.001953;
757029;0.090820;0.025391;1.006836;
757169;0.087891;0.021484;0.981445;
757309;0.090820;0.027344;0.994141;
757449;0.091797;0.015625;1.007812;
757589;0.086914;0.021484;1.029297;
757729;0.091797;0.023438;1.043945;
757869;0.090820;0.025391;1.052734;
758009;0.090820;0.021484;1.041016;
758159;0.094727;0.021484;1.023438;
758299;0.090820;0.021484;0.999023;
758439;0.088867;0.014648;0.994141;
758576;0.087891;0.019531;0.980469;
758716;0.085938;0.018555;0.986328;
758854;0.083984;0.017578;0.985352;
759004;0.089844;0.018555;1.002930;
759155;0.088867;0.030273;0.986328;
759284;0.090820;0.028320;1.006836;
759434;0.087891;0.031250;0.996094;
759569;0.084961;0.014648;1.004883;
759709;0.083984;0.021484;1.015625;
759845;0.090820;0.019531;1.030273;
759994;0.087891;0.026367;1.045898;
760139;0.090820;0.020508;1.043945;
760289;0.088867;0.026367;1.055664;
760429;0.085938;0.021484;1.039062;
760569;0.086914;0.019531;1.049805;
760709;0.086914;0.016602;1.067383;
760849;0.085938;0.020508;1.067383;
760999;0.085938;0.018555;1.084961;
761139;0.087891;0.025391;1.043945;
761279;0.086914;0.019531;1.035156;
761419;0.085938;0.018555;1.055664;
761559;0.086914;0.012695;1.047852;
761709;0.081055;0.022461;1.041992;
761849;0.086914;0.013672;1.060547;
761989;0.083008;0.023438;1.066406;
762134;0.083984;0.016602;1.035156;
762269;0.085938;0.023438;1.035156;
762414;0.081055;0.025391;1.038086;
762555;0.085938;0.025391;1.050781;
762704;0.081055;0.021484;1.042969;
762854;0.088867;0.026367;1.046875;
762984;0.085938;0.023438;1.016602;
763135;0.083008;0.012695;1.009766;
763264;0.083984;0.016602;1.020508;
763419;0.083008;0.018555;1.036133;
763569;0.078125;0.016602;1.044922;
763709;0.083008;0.022461;1.042969;
763859;0.084961;0.021484;1.045898;
763999;0.083008;0.019531;1.002930;
764139;0.084961;0.024414;1.011719;
764279;0.080078;0.021484;1.052734;
764419;0.078125;0.017578;1.043945;
764559;0.082031;0.021484;1.021484;
764699;0.080078;0.018555;1.009766;
764839;0.081055;0.023438;0.995117;
764979;0.076172;0.019531;1.003906;
765119;0.082031;0.014648;1.063477;
765259;0.079102;0.014648;1.135742;
765394;0.083984;0.024414;1.188477;
765534;0.086914;0.021484;1.290039;
765675;0.090820;0.020508;1.337891;
765804;0.097656;0.013672;1.430664;
765954;0.099609;0.018555;1.495117;
766099;0.105469;0.020508;1.558594;
766234;0.106445;0.015625;1.583008;
766378;0.108398;0.014648;1.631836;
766529;0.109375;0.015625;1.661133;
766664;0.116211;0.017578;1.707031;
766804;0.118164;0.011719;1.730469;
766949;0.117188;0.013672;1.743164;
767089;0.117188;0.018555;1.768555;
767239;0.117188;0.013672;1.783203;
767379;0.116211;0.013672;1.798828;
767519;0.119141;0.013672;1.819336;
767669;0.119141;0.015625;1.829102;
767809;0.122070;0.013672;1.833008;
767949;0.121094;0.013672;1.836914;
768099;0.123047;0.011719;1.836914;
768239;0.120117;0.013672;1.845703;
768379;0.123047;0.011719;1.845703;
768519;0.121094;0.016602;1.842773;
768659;0.124023;0.014648;1.858398;
768799;0.123047;0.014648;1.853516;
768949;0.122070;0.012695;1.868164;
769084;0.123047;0.011719;1.874023;
769228;0.127930;0.012695;1.877930;
769374;0.125000;0.013672;1.864258;
769514;0.125977;0.015625;1.868164;
769674;0.130859;0.015625;1.876953;
769815;0.124023;0.016602;1.875000;
769954;0.125977;0.010742;1.875000;
770094;0.126953;0.015625;1.880859;
770244;0.125977;0.013672;1.861328;
770385;0.125000;0.010742;1.860352;
770519;0.122070;0.014648;1.833984;
770659;0.125977;0.006836;1.832031;
770794;0.124023;0.014648;1.840820;
770924;0.125000;0.011719;1.827148;
771055;0.128906;0.016602;1.839844;
771189;0.128906;0.017578;1.854492;
771329;0.124023;0.017578;1.864258;
771469;0.126953;0.016602;1.871094;
771609;0.128906;0.016602;1.882812;
771759;0.130859;0.014648;1.859375;
771899;0.131836;0.011719;1.862305;
772039;0.128906;0.018555;1.870117;
772179;0.129883;0.013672;1.870117;
772319;0.131836;0.009766;1.866211;
772469;0.126953;0.016602;1.861328;
772609;0.126953;0.016602;1.846680;
772749;0.127930;0.011719;1.833984;
772889;0.126953;0.009766;1.821289;
773029;0.128906;0.011719;1.817383;
773165;0.128906;0.017578;1.801758;
773305;0.124023;0.018555;1.819336;
773444;0.130859;0.020508;1.798828;
773594;0.131836;0.023438;1.808594;
773735;0.132812;0.013672;1.812500;
773868;0.135742;0.022461;1.803711;
774006;0.135742;0.018555;1.812500;
774134;0.133789;0.018555;1.856445;
774264;0.135742;0.015625;1.851562;
774395;0.137695;0.010742;1.849609;
774549;0.141602;0.007812;1.857422;
774699;0.142578;0.012695;1.871094;
774839;0.146484;0.018555;1.865234;
774979;0.146484;0.011719;1.869141;
775119;0.145508;0.012695;1.859375;
775259;0.146484;0.010742;1.871094;
775399;0.146484;0.011719;1.875977;
775539;0.144531;0.017578;1.868164;
775679;0.146484;0.018555;1.884766;
775819;0.147461;0.018555;1.875977;
775959;0.152344;0.020508;1.868164;
776099;0.150391;0.018555;1.865234;
776239;0.151367;0.015625;1.854492;
776379;0.149414;0.008789;1.854492;
776514;0.153320;0.011719;1.861328;
776644;0.152344;0.003906;1.859375;
776794;0.153320;0.006836;1.846680;
776944;0.154297;0.003906;1.849609;
777085;0.154297;0.010742;1.850586;
777216;0.152344;0.011719;1.849609;
777356;0.158203;0.006836;1.827148;
777489;0.157227;0.008789;1.833984;
777629;0.159180;0.009766;1.813477;
777769;0.159180;0.008789;1.807617;
777909;0.158203;0.016602;1.809570;
778049;0.160156;0.017578;1.804688;
778189;0.162109;0.015625;1.793945;
778329;0.163086;0.017578;1.813477;
778469;0.162109;0.014648;1.806641;
778609;0.165039;0.013672;1.809570;
778759;0.166992;0.009766;1.806641;
778899;0.165039;0.012695;1.788086;
779039;0.168945;-0.000977;1.792969;
779189;0.170898;0.004883;1.807617;
779329;0.171875;0.004883;1.823242;
779464;0.175781;0.005859;1.829102;
779606;0.178711;0.005859;1.843750;
779745;0.176758;0.013672;1.848633;
779887;0.181641;0.010742;1.864258;
780034;0.182617;0.012695;1.890625;
780184;0.185547;0.018555;1.892578;
780314;0.185547;0.030273;1.903320;
780454;0.187500;0.032227;1.893555;
780594;0.185547;0.026367;1.886719;
780735;0.187500;0.028320;1.856445;
780879;0.188477;0.032227;1.857422;
781019;0.188477;0.028320;1.845703;
781159;0.187500;0.021484;1.854492;
781299;0.184570;0.021484;1.830078;
781439;0.186523;0.022461;1.832031;
781579;0.188477;0.019531;1.805664;
781719;0.191406;0.010742;1.826172;
781869;0.188477;0.012695;1.806641;
782009;0.191406;0.004883;1.812500;
782149;0.195312;0.000977;1.798828;
782289;0.195312;0.006836;1.835938;
782429;0.195312;0.011719;1.815430;
782569;0.199219;0.003906;1.802734;
782709;0.201172;0.002930;1.791016;
782844;0.197266;0.010742;1.798828;
782984;0.199219;0.005859;1.771484;
783124;0.203125;0.004883;1.763672;
783259;0.202148;0.004883;1.753906;
783399;0.203125;0.002930;1.724609;
783535;0.204102;0.002930;1.717773;
783674;0.201172;0.001953;1.707031;
783814;0.200195;0.004883;1.721680;
783965;0.200195;0.005859;1.680664;
784114;0.203125;0.000977;1.679688;
784259;0.201172;0.005859;1.663086;
784399;0.203125;0.009766;1.663086;
784539;0.205078;0.009766;1.642578;
784679;0.204102;0.013672;1.643555;
784819;0.210938;0.011719;1.656250;
784969;0.207031;0.018555;1.675781;
785109;0.204102;0.007812;1.667969;
785249;0.201172;0.013672;1.672852;
785399;0.198242;0.010742;1.660156;
785539;0.192383;0.008789;1.645508;
785679;0.184570;0.019531;1.633789;
785819;0.179688;0.018555;1.642578;
785959;0.171875;0.015625;1.572266;
786099;0.160156;0.021484;1.527344;
786234;0.142578;0.017578;1.440430;
786369;0.127930;0.016602;1.368164;
786504;0.114258;0.013672;1.291016;
786644;0.089844;0.017578;1.137695;
786794;0.074219;0.013672;1.037109;
786944;0.055664;0.016602;0.893555;
787094;0.047852;0.018555;0.798828;
787244;0.034180;0.019531;0.665039;
787385;0.021484;0.027344;0.539062;
787535;0.019531;0.029297;0.478516;
787669;0.017578;0.028320;0.379883;
787819;0.012695;0.023438;0.319336;
787959;0.010742;0.024414;0.253906;
788099;0.010742;0.022461;0.197266;
788249;0.007812;0.022461;0.159180;
788389;0.008789;0.020508;0.109375;
788529;0.005859;0.021484;0.088867;
788669;0.003906;0.021484;0.059570;
788809;0.000977;0.021484;0.041992;
788949;0.002930;0.019531;0.034180;
789089;0.001953;0.020508;0.025391;
789229;0.000000;0.022461;0.029297;
789369;0.000977;0.025391;0.041016;
789509;0.000000;0.028320;0.045898;
789644;-0.003906;0.033203;0.040039;
789774;-0.000977;0.034180;0.047852;
789914;-0.002930;0.035156;0.037109;
790044;-0.005859;0.035156;0.035156;
790174;-0.003906;0.037109;0.026367;
790324;-0.002930;0.034180;0.019531;
790474;-0.009766;0.035156;0.004883;
790605;-0.007812;0.035156;0.013672;
790744;-0.007812;0.035156;0.027344;
790874;-0.005859;0.035156;0.035156;
791019;-0.005859;0.032227;0.024414;
791159;-0.004883;0.030273;0.023438;
791309;-0.008789;0.030273;0.010742;
791449;-0.006836;0.029297;0.017578;
791589;-0.008789;0.030273;0.013672;
791729;-0.007812;0.032227;0.023438;
791869;-0.006836;0.037109;0.028320;
792009;-0.007812;0.034180;0.030273;
792149;-0.006836;0.028320;0.030273;
792299;-0.008789;0.032227;0.023438;
792459;-0.011719;0.029297;0.013672;
792775;-0.007812;0.029297;-0.000977;
792949;-0.005859;0.031250;0.000977;
793099;-0.007812;0.031250;-0.005859;
793353;-0.012695;0.041992;-0.005859;
793554;-0.015625;0.042969;-0.011719;
793756;-0.014648;0.039062;-0.003906;
794159;-0.007812;0.039062;0.001953;
795204;-0.014648;0.036133;0.024414;
795465;-0.014648;0.033203;0.019531;
795624;-0.011719;0.037109;0.056641;
795774;-0.013672;0.038086;0.042969;
795914;-0.014648;0.033203;0.036133;
796044;-0.004883;0.030273;0.056641;
796179;-0.013672;0.032227;0.037109;
796384;-0.014648;0.036133;0.045898;
796594;-0.015625;0.035156;0.037109;
796819;-0.015625;0.031250;0.043945;
797029;-0.013672;0.032227;0.045898;
797249;-0.016602;0.039062;0.041016;
797469;-0.016602;0.039062;0.031250;
797689;-0.015625;0.031250;0.043945;
797909;-0.016602;0.028320;0.036133;
798129;-0.017578;0.032227;0.026367;
798349;-0.015625;0.033203;0.015625;
798569;-0.015625;0.030273;0.024414;
798789;-0.015625;0.028320;0.015625;
798999;-0.018555;0.032227;0.014648;
799219;-0.014648;0.028320;0.005859;
799439;-0.017578;0.026367;0.003906;
799659;-0.015625;0.028320;0.001953;
799876;-0.014648;0.028320;0.000977;
800094;-0.014648;0.030273;0.007812;
800308;-0.014648;0.023438;-0.001953;
800524;-0.019531;0.029297;0.007812;
800744;-0.016602;0.024414;-0.002930;
800979;-0.020508;0.022461;-0.000977;
801199;-0.017578;0.023438;0.001953;
801414;-0.014648;0.021484;0.000977;
801649;-0.016602;0.025391;0.003906;
801869;-0.018555;0.029297;-0.001953;
802089;-0.019531;0.029297;-0.002930;
802309;-0.016602;0.025391;-0.001953;
802524;-0.017578;0.027344;0.006836;
802739;-0.016602;0.031250;0.004883;
802959;-0.021484;0.029297;0.010742;
803174;-0.020508;0.024414;0.008789;
803399;-0.019531;0.024414;0.012695;
803619;-0.019531;0.029297;0.014648;
803835;-0.021484;0.028320;0.014648;
804044;-0.021484;0.027344;0.019531;
804264;-0.022461;0.021484;0.015625;
804484;-0.022461;0.024414;0.022461;
804714;-0.021484;0.026367;0.026367;
804949;-0.019531;0.024414;0.031250;
805169;-0.024414;0.023438;0.021484;
805389;-0.024414;0.025391;0.030273;
805609;-0.023438;0.024414;0.025391;
805829;-0.024414;0.020508;0.028320;
806049;-0.023438;0.024414;0.023438;
806269;-0.023438;0.022461;0.014648;
806489;-0.024414;0.026367;0.019531;
806709;-0.027344;0.021484;0.013672;
806929;-0.024414;0.021484;0.018555;
807149;-0.023438;0.028320;0.005859;
807379;-0.028320;0.022461;0.004883;
807599;-0.029297;0.024414;-0.004883;
807814;-0.027344;0.024414;-0.013672;
808034;-0.029297;0.028320;-0.016602;
808254;-0.030273;0.026367;-0.015625;
808474;-0.030273;0.021484;-0.010742;
808694;-0.030273;0.029297;-0.010742;
808919;-0.032227;0.030273;0.023438;
809139;-0.030273;0.027344;0.034180;
809344;-0.030273;0.029297;0.053711;
809569;-0.032227;0.026367;0.076172;
809789;-0.036133;0.030273;0.077148;
810008;-0.033203;0.028320;0.081055;
810219;-0.034180;0.023438;0.069336;
810439;-0.034180;0.024414;0.072266;
810654;-0.037109;0.027344;0.082031;
810879;-0.038086;0.034180;0.064453;
811099;-0.041992;0.033203;0.072266;
811304;-0.042969;0.031250;0.088867;
811519;-0.042969;0.026367;0.162109;
811734;-0.044922;0.033203;0.221680;
811954;-0.044922;0.033203;0.334961;
812186;-0.037109;0.040039;0.478516;
812414;-0.036133;0.037109;0.574219;
812624;-0.027344;0.039062;0.725586;
812839;-0.014648;0.032227;0.834961;
813059;-0.006836;0.035156;0.963867;
813279;0.009766;0.032227;1.077148;
813489;0.007812;0.030273;1.163086;
813709;0.022461;0.033203;1.250977;
813929;0.027344;0.036133;1.329102;
814149;0.035156;0.033203;1.399414;
814369;0.039062;0.033203;1.449219;
814589;0.041992;0.032227;1.490234;
814804;0.042969;0.033203;1.512695;
815029;0.043945;0.032227;1.546875;
815249;0.042969;0.029297;1.564453;
815469;0.038086;0.032227;1.570312;
815689;0.037109;0.028320;1.580078;
815894;0.037109;0.030273;1.606445;
816114;0.036133;0.031250;1.619141;
816349;0.034180;0.035156;1.653320;
816554;0.039062;0.037109;1.701172;
816769;0.036133;0.032227;1.707031;
816974;0.036133;0.034180;1.732422;
817194;0.035156;0.035156;1.743164;
817429;0.033203;0.033203;1.743164;
817649;0.040039;0.035156;1.836914;
817869;0.029297;0.029297;1.778320;
818079;0.027344;0.030273;1.784180;
818299;0.028320;0.031250;1.803711;
818519;0.026367;0.025391;1.814453;
818739;0.024414;0.019531;1.821289;
818959;0.027344;0.021484;1.848633;
819179;0.024414;0.019531;1.854492;
819399;0.022461;0.024414;1.868164;
819619;0.020508;0.017578;1.891602;
819839;0.021484;0.018555;1.908203;
820059;0.022461;0.021484;1.934570;
820274;0.021484;0.020508;1.952148;
820484;0.022461;0.021484;1.973633;
820699;0.018555;0.014648;1.976562;
820919;0.020508;0.018555;1.989258;
821134;0.020508;0.015625;2.001953;
821345;0.019531;0.006836;1.999023;
821554;0.016602;0.009766;2.004883;
821775;0.016602;0.009766;2.004883;
821999;0.013672;0.017578;2.015625;
822219;0.011719;0.019531;2.021484;
822439;0.007812;0.026367;2.023438;
822659;0.004883;0.027344;2.022461;
822879;0.005859;0.021484;2.023438;
823099;0.003906;0.019531;2.020508;
823319;0.000977;0.019531;2.013672;
823539;0.000000;0.012695;2.015625;
823759;0.000000;0.012695;2.012695;
823979;0.001953;0.010742;2.026367;
824199;-0.000977;0.018555;2.035156;
824419;-0.004883;0.020508;2.037109;
824639;-0.004883;0.018555;2.042969;
824849;-0.003906;0.013672;2.043945;
825054;-0.006836;0.018555;2.032227;
825264;-0.009766;0.019531;2.010742;
825496;-0.011719;0.015625;1.986328;
825704;-0.014648;0.014648;1.967773;
825939;-0.018555;0.013672;1.928711;
826159;-0.023438;0.012695;1.882812;
826379;-0.030273;0.010742;1.837891;
826599;-0.034180;0.009766;1.789062;
826819;-0.040039;0.009766;1.750000;
827039;-0.042969;0.008789;1.718750;
827259;-0.045898;0.013672;1.686523;
827479;-0.047852;0.016602;1.666992;
827699;-0.049805;0.024414;1.650391;
827919;-0.049805;0.017578;1.637695;
828139;-0.056641;0.019531;1.622070;
828359;-0.055664;0.013672;1.585938;
828579;-0.057617;0.013672;1.547852;
828799;-0.061523;0.015625;1.527344;
829014;-0.063477;0.015625;1.485352;
829234;-0.063477;0.014648;1.452148;
829454;-0.071289;0.022461;1.415039;
829684;-0.075195;0.018555;1.370117;
829919;-0.076172;0.021484;1.340820;
830139;-0.081055;0.018555;1.314453;
830359;-0.078125;0.019531;1.293945;
830579;-0.080078;0.018555;1.275391;
830799;-0.079102;0.012695;1.267578;
831019;-0.084961;0.016602;1.250977;
831239;-0.083008;0.017578;1.253906;
831459;-0.085938;0.015625;1.241211;
831679;-0.081055;0.022461;1.248047;
831899;-0.080078;0.023438;1.239258;
832119;-0.083008;0.023438;1.246094;
832339;-0.082031;0.025391;1.233398;
832559;-0.086914;0.023438;1.208984;
832779;-0.083984;0.019531;1.187500;
832994;-0.087891;0.021484;1.151367;
833225;-0.089844;0.017578;1.113281;
833444;-0.093750;0.018555;1.088867;
833664;-0.093750;0.017578;1.055664;
833879;-0.092773;0.020508;1.048828;
834099;-0.093750;0.024414;1.041992;
834319;-0.095703;0.022461;1.046875;
834539;-0.091797;0.022461;1.059570;
834759;-0.090820;0.022461;1.069336;
834979;-0.091797;0.027344;1.089844;
835199;-0.090820;0.025391;1.099609;
835419;-0.091797;0.025391;1.102539;
835629;-0.092773;0.021484;1.086914;
835849;-0.092773;0.027344;1.077148;
836069;-0.097656;0.021484;1.057617;
836289;-0.092773;0.024414;1.039062;
836509;-0.096680;0.025391;1.021484;
836729;-0.096680;0.021484;1.000000;
836944;-0.096680;0.020508;0.993164;
837164;-0.094727;0.027344;1.011719;
837374;-0.096680;0.025391;1.015625;
837594;-0.096680;0.028320;1.029297;
837829;-0.094727;0.023438;1.038086;
838049;-0.090820;0.018555;1.057617;
838259;-0.094727;0.022461;1.042969;
838479;-0.094727;0.029297;1.052734;
838689;-0.090820;0.028320;1.059570;
838909;-0.094727;0.031250;1.058594;
839129;-0.094727;0.025391;1.061523;
839349;-0.092773;0.026367;1.060547;
839569;-0.093750;0.026367;1.052734;
839789;-0.091797;0.019531;1.064453;
840009;-0.095703;0.019531;1.053711;
840229;-0.094727;0.025391;1.078125;
840449;-0.092773;0.025391;1.081055;
840669;-0.092773;0.026367;1.096680;
840884;-0.093750;0.028320;1.119141;
841095;-0.090820;0.026367;1.128906;
841316;-0.089844;0.025391;1.162109;
841524;-0.088867;0.025391;1.181641;
841755;-0.087891;0.019531;1.194336;
841969;-0.085938;0.023438;1.222656;
842189;-0.080078;0.020508;1.252930;
842409;-0.081055;0.024414;1.276367;
842629;-0.081055;0.021484;1.294922;
842849;-0.081055;0.016602;1.298828;
843069;-0.080078;0.015625;1.295898;
843289;-0.078125;0.022461;1.291992;
843509;-0.081055;0.021484;1.283203;
843729;-0.082031;0.027344;1.284180;
843949;-0.083008;0.028320;1.283203;
844169;-0.081055;0.031250;1.299805;
844389;-0.079102;0.023438;1.301758;
844609;-0.078125;0.021484;1.309570;
844830;-0.079102;0.021484;1.334961;
845054;-0.075195;0.024414;1.349609;
845274;-0.074219;0.031250;1.366211;
845484;-0.076172;0.026367;1.379883;
845694;-0.072266;0.018555;1.382812;
845919;-0.073242;0.019531;1.374023;
846139;-0.075195;0.022461;1.366211;
846359;-0.075195;0.020508;1.345703;
846579;-0.075195;0.019531;1.316406;
846799;-0.074219;0.018555;1.290039;
847019;-0.077148;0.021484;1.253906;
847239;-0.083008;0.019531;1.195312;
847459;-0.086914;0.020508;1.127930;
847679;-0.087891;0.024414;1.105469;
