Time;acc_x;acc_y;acc_z;

1025924;-0.087891;0.026367;1.018555;
1026148;-0.083984;0.017578;1.054688;
1026298;-0.081055;0.019531;1.080078;
1026438;-0.080078;0.025391;1.110352;
1026578;-0.078125;0.024414;1.143555;
1026718;-0.072266;0.025391;1.179688;
1026858;-0.067383;0.030273;1.204102;
1026998;-0.065430;0.021484;1.237305;
1027138;-0.061523;0.022461;1.276367;
1027278;-0.057617;0.022461;1.294922;
1027418;-0.053711;0.019531;1.334961;
1027558;-0.051758;0.015625;1.345703;
1027698;-0.047852;0.021484;1.374023;
1027838;-0.044922;0.020508;1.388672;
1027978;-0.046875;0.016602;1.398438;
1028118;-0.042969;0.022461;1.409180;
1028258;-0.043945;0.019531;1.405273;
1028398;-0.046875;0.020508;1.390625;
1028533;-0.043945;0.025391;1.390625;
1028683;-0.043945;0.019531;1.371094;
1028834;-0.045898;0.017578;1.366211;
1028974;-0.043945;0.024414;1.372070;
1029123;-0.045898;0.025391;1.366211;
1029263;-0.048828;0.026367;1.366211;
1029403;-0.049805;0.023438;1.352539;
1029548;-0.049805;0.017578;1.352539;
1029683;-0.047852;0.015625;1.364258;
1029838;-0.046875;0.025391;1.381836;
1029978;-0.048828;0.025391;1.382812;
1030118;-0.045898;0.022461;1.396484;
1030258;-0.045898;0.024414;1.399414;
1030398;-0.045898;0.022461;1.411133;
1030538;-0.046875;0.025391;1.412109;
1030678;-0.046875;0.023438;1.413086;
1030818;-0.050781;0.022461;1.412109;
1030958;-0.051758;0.019531;1.387695;
1031098;-0.052734;0.020508;1.375977;
1031238;-0.058594;0.021484;1.334961;
1031378;-0.054688;0.024414;1.321289;
1031513;-0.061523;0.024414;1.281250;
1031653;-0.063477;0.021484;1.264648;
1031783;-0.063477;0.020508;1.231445;
1031928;-0.062500;0.026367;1.211914;
1032063;-0.066406;0.025391;1.185547;
1032198;-0.070312;0.019531;1.164062;
1032343;-0.068359;0.026367;1.161133;
1032493;-0.070312;0.025391;1.146484;
1032633;-0.073242;0.023438;1.128906;
1032788;-0.075195;0.026367;1.126953;
1032928;-0.071289;0.026367;1.113281;
1033068;-0.072266;0.023438;1.107422;
1033218;-0.070312;0.021484;1.106445;
1033358;-0.073242;0.028320;1.102539;
1033498;-0.073242;0.027344;1.116211;
1033638;-0.077148;0.021484;1.102539;
1033778;-0.073242;0.026367;1.107422;
1033918;-0.076172;0.022461;1.097656;
1034058;-0.075195;0.025391;1.114258;
1034198;-0.073242;0.026367;1.105469;
1034338;-0.075195;0.027344;1.099609;
1034488;-0.078125;0.024414;1.081055;
1034628;-0.072266;0.027344;1.073242;
1034758;-0.082031;0.025391;1.060547;
1034898;-0.077148;0.022461;1.042969;
1035043;-0.078125;0.019531;1.023438;
1035188;-0.081055;0.020508;1.004883;
1035323;-0.081055;0.021484;1.007812;
1035463;-0.079102;0.023438;0.988281;
1035603;-0.080078;0.025391;0.982422;
1035753;-0.082031;0.025391;0.966797;
1035883;-0.083008;0.028320;0.953125;
1036048;-0.082031;0.030273;0.942383;
1036198;-0.080078;0.030273;0.948242;
1036338;-0.080078;0.027344;0.926758;
1036478;-0.076172;0.026367;0.924805;
1036628;-0.075195;0.028320;0.919922;
1036768;-0.075195;0.025391;0.914062;
1036918;-0.071289;0.021484;0.914062;
1037058;-0.071289;0.022461;0.921875;
1037198;-0.065430;0.021484;0.925781;
1037348;-0.059570;0.018555;0.942383;
1037488;-0.057617;0.025391;0.965820;
1037628;-0.052734;0.025391;0.967773;
1037778;-0.046875;0.026367;0.956055;
1037918;-0.041016;0.023438;0.977539;
1038063;-0.032227;0.025391;1.002930;
1038214;-0.026367;0.025391;0.991211;
1038353;-0.016602;0.027344;1.021484;
1038503;-0.011719;0.025391;1.023438;
1038643;-0.009766;0.024414;1.030273;
1038783;-0.006836;0.026367;1.057617;
1038938;-0.003906;0.029297;1.062500;
1039088;-0.008789;0.025391;1.069336;
1039228;-0.006836;0.028320;1.079102;
1039368;-0.003906;0.022461;1.093750;
1039508;-0.006836;0.022461;1.099609;
1039648;-0.005859;0.019531;1.098633;
1039788;-0.002930;0.019531;1.113281;
1039928;-0.004883;0.017578;1.115234;
1040068;-0.003906;0.022461;1.120117;
1040218;-0.003906;0.017578;1.114258;
1040358;-0.005859;0.021484;1.117188;
1040498;-0.000977;0.021484;1.115234;
1040648;-0.002930;0.021484;1.111328;
1040788;-0.003906;0.023438;1.102539;
1040924;-0.007812;0.021484;1.092773;
1041063;-0.005859;0.024414;1.083008;
1041213;-0.004883;0.022461;1.077148;
1041353;-0.007812;0.018555;1.071289;
1041483;-0.008789;0.022461;1.076172;
1041633;-0.004883;0.020508;1.074219;
1041768;-0.005859;0.020508;1.074219;
1041918;-0.002930;0.025391;1.066406;
1042058;-0.005859;0.021484;1.064453;
1042198;-0.004883;0.022461;1.053711;
1042338;-0.006836;0.018555;1.052734;
1042478;-0.003906;0.014648;1.036133;
1042618;-0.007812;0.021484;1.019531;
1042758;-0.007812;0.020508;1.004883;
1042898;-0.005859;0.023438;1.006836;
1043038;-0.007812;0.022461;1.001953;
1043178;-0.009766;0.021484;0.981445;
1043318;-0.008789;0.022461;0.990234;
1043458;-0.013672;0.021484;0.969727;
1043598;-0.010742;0.025391;0.969727;
1043738;-0.009766;0.025391;0.967773;
1043878;-0.006836;0.024414;0.963867;
1044013;-0.009766;0.024414;0.971680;
1044143;-0.010742;0.024414;0.969727;
1044273;-0.011719;0.025391;0.958984;
1044413;-0.009766;0.023438;0.965820;
1044553;-0.008789;0.021484;0.956055;
1044693;-0.012695;0.020508;0.958008;
1044833;-0.009766;0.022461;0.958984;
1044978;-0.009766;0.020508;0.966797;
1045118;-0.010742;0.022461;0.978516;
1045268;-0.006836;0.026367;0.969727;
1045408;-0.007812;0.020508;0.975586;
1045548;-0.006836;0.022461;0.975586;
1045688;-0.016602;0.019531;0.958984;
1045828;-0.011719;0.018555;0.957031;
1045968;-0.013672;0.022461;0.970703;
1046108;-0.013672;0.022461;0.957031;
1046248;-0.005859;0.023438;0.970703;
1046388;-0.006836;0.023438;0.975586;
1046538;-0.007812;0.021484;0.965820;
1046678;-0.007812;0.021484;0.983398;
1046818;-0.009766;0.019531;0.972656;
1046943;-0.015625;0.024414;0.967773;
1047083;-0.011719;0.020508;0.976562;
1047213;-0.013672;0.019531;0.981445;
1047353;-0.009766;0.022461;0.997070;
1047484;-0.006836;0.020508;1.012695;
1047623;-0.005859;0.017578;1.022461;
1047778;-0.004883;0.021484;1.028320;
1047918;-0.007812;0.022461;1.035156;
1048058;-0.006836;0.019531;1.048828;
1048198;-0.010742;0.022461;1.060547;
1048338;-0.006836;0.019531;1.072266;
1048478;0.000000;0.023438;1.084961;
1048618;-0.002930;0.021484;1.071289;
1048758;-0.005859;0.026367;1.089844;
1048898;-0.004883;0.026367;1.087891;
1049038;-0.009766;0.020508;1.077148;
1049178;-0.005859;0.029297;1.084961;
1049318;-0.007812;0.019531;1.074219;
1049458;-0.004883;0.024414;1.090820;
1049598;-0.005859;0.019531;1.076172;
1049743;-0.001953;0.019531;1.069336;
1049893;-0.003906;0.021484;1.080078;
1050043;-0.001953;0.018555;1.062500;
1050194;-0.003906;0.019531;1.075195;
1050343;-0.008789;0.017578;1.051758;
1050483;-0.004883;0.019531;1.050781;
1050623;-0.005859;0.012695;1.050781;
1050758;-0.009766;0.020508;1.050781;
1050898;-0.007812;0.023438;1.063477;
1051038;-0.005859;0.021484;1.061523;
1051188;-0.007812;0.019531;1.045898;
1051328;-0.003906;0.025391;1.060547;
1051468;-0.005859;0.023438;1.051758;
1051618;-0.007812;0.021484;1.050781;
1051758;-0.006836;0.020508;1.050781;
1051908;-0.008789;0.020508;1.055664;
1052048;-0.009766;0.017578;1.041992;
1052188;-0.007812;0.023438;1.043945;
1052338;-0.010742;0.021484;1.043945;
1052478;-0.005859;0.020508;1.057617;
1052618;-0.005859;0.019531;1.045898;
1052756;-0.007812;0.017578;1.040039;
1052893;-0.007812;0.022461;1.035156;
1053045;-0.009766;0.018555;1.014648;
1053183;-0.008789;0.024414;1.011719;
1053333;-0.011719;0.019531;1.008789;
1053484;-0.010742;0.019531;1.007812;
1053625;-0.010742;0.023438;1.003906;
1053753;-0.007812;0.023438;0.993164;
1053893;-0.008789;0.021484;1.000000;
1054038;-0.008789;0.028320;0.996094;
1054178;-0.013672;0.027344;0.991211;
1054318;-0.011719;0.023438;0.983398;
1054458;-0.011719;0.024414;0.973633;
1054598;-0.014648;0.032227;0.973633;
1054738;-0.013672;0.025391;0.985352;
1054878;-0.008789;0.027344;0.986328;
1055018;-0.007812;0.023438;0.986328;
1055158;-0.006836;0.024414;0.981445;
1055298;-0.009766;0.018555;0.981445;
1055438;-0.010742;0.022461;0.982422;
1055578;-0.010742;0.017578;0.980469;
1055718;-0.012695;0.021484;0.977539;
1055858;-0.011719;0.018555;0.980469;
1055993;-0.012695;0.019531;0.972656;
1056145;-0.012695;0.021484;0.978516;
1056273;-0.009766;0.021484;0.991211;
1056413;-0.008789;0.019531;0.985352;
1056553;-0.006836;0.019531;0.995117;
1056693;-0.013672;0.018555;0.990234;
1056823;-0.009766;0.022461;0.995117;
1056953;-0.012695;0.025391;1.002930;
1057093;-0.007812;0.022461;1.019531;
1057238;-0.008789;0.024414;1.047852;
1057378;-0.006836;0.020508;1.050781;
1057518;-0.004883;0.023438;1.079102;
1057658;-0.007812;0.020508;1.076172;
1057798;-0.008789;0.018555;1.087891;
1057938;-0.009766;0.021484;1.103516;
1058078;-0.005859;0.019531;1.118164;
1058218;-0.002930;0.015625;1.122070;
1058358;-0.001953;0.015625;1.144531;
1058498;-0.000977;0.017578;1.138672;
1058638;-0.002930;0.018555;1.154297;
1058778;-0.001953;0.017578;1.153320;
1058928;-0.004883;0.020508;1.151367;
1059068;-0.000977;0.019531;1.147461;
1059203;-0.004883;0.020508;1.153320;
1059353;-0.006836;0.031250;1.138672;
1059503;-0.005859;0.029297;1.140625;
1059654;-0.005859;0.023438;1.128906;
1059804;-0.002930;0.023438;1.136719;
1059943;-0.003906;0.021484;1.142578;
1060093;-0.003906;0.018555;1.133789;
1060248;-0.002930;0.019531;1.125000;
1060388;-0.004883;0.022461;1.140625;
1060528;-0.002930;0.018555;1.123047;
1060668;-0.002930;0.016602;1.131836;
1060808;-0.000977;0.016602;1.121094;
1060958;-0.002930;0.014648;1.122070;
1061098;-0.004883;0.020508;1.114258;
1061248;-0.006836;0.019531;1.108398;
1061388;-0.004883;0.021484;1.106445;
1061528;-0.004883;0.018555;1.093750;
1061678;-0.005859;0.019531;1.092773;
1061818;-0.002930;0.016602;1.084961;
1061958;-0.004883;0.021484;1.071289;
1062109;-0.005859;0.019531;1.053711;
1062243;-0.007812;0.021484;1.036133;
1062383;-0.009766;0.018555;1.031250;
1062513;-0.011719;0.019531;1.020508;
1062663;-0.009766;0.020508;1.019531;
1062803;-0.009766;0.017578;1.016602;
1062943;-0.003906;0.022461;1.022461;
1063088;-0.009766;0.021484;1.009766;
1063228;-0.009766;0.020508;1.001953;
1063378;-0.011719;0.023438;1.003906;
1063518;-0.011719;0.016602;0.998047;
1063658;-0.010742;0.025391;1.000000;
1063798;-0.011719;0.020508;0.990234;
1063938;-0.008789;0.023438;1.010742;
1064078;-0.008789;0.015625;1.022461;
1064218;-0.004883;0.019531;1.016602;
1064358;-0.004883;0.019531;1.011719;
1064498;-0.009766;0.017578;1.000977;
1064638;-0.010742;0.018555;1.001953;
1064788;-0.009766;0.021484;0.999023;
1064928;-0.011719;0.023438;0.993164;
1065063;-0.009766;0.019531;0.996094;
1065213;-0.014648;0.017578;0.996094;
1065353;-0.008789;0.023438;1.008789;
1065504;-0.007812;0.024414;1.005859;
1065653;-0.009766;0.019531;1.002930;
1065793;-0.005859;0.021484;1.005859;
1065923;-0.009766;0.022461;1.008789;
1066058;-0.009766;0.020508;1.004883;
1066198;-0.010742;0.023438;1.001953;
1066338;-0.010742;0.017578;1.001953;
1066478;-0.007812;0.019531;1.019531;
1066618;-0.011719;0.019531;1.005859;
1066768;-0.008789;0.022461;1.020508;
1066908;-0.004883;0.017578;1.018555;
1067048;-0.006836;0.016602;1.020508;
1067188;-0.006836;0.016602;1.024414;
1067328;-0.005859;0.018555;1.036133;
1067478;-0.009766;0.022461;1.016602;
1067618;-0.010742;0.020508;1.012695;
1067758;-0.009766;0.018555;1.024414;
1067898;-0.007812;0.019531;1.026367;
1068033;-0.009766;0.018555;1.023438;
1068178;-0.006836;0.020508;1.025391;
1068313;-0.009766;0.024414;1.028320;
1068463;-0.005859;0.021484;1.007812;
1068614;-0.006836;0.022461;1.010742;
1068768;-0.005859;0.021484;1.013672;
1068903;-0.010742;0.023438;0.996094;
1069048;-0.010742;0.021484;0.991211;
1069194;-0.013672;0.022461;1.000977;
1069343;-0.012695;0.022461;0.993164;
1069483;-0.008789;0.022461;1.003906;
1069638;-0.008789;0.020508;0.997070;
1069778;-0.003906;0.021484;1.009766;
1069918;-0.004883;0.023438;1.005859;
1070058;-0.002930;0.024414;0.999023;
1070198;-0.005859;0.019531;0.986328;
1070348;-0.001953;0.021484;0.996094;
1070488;-0.000977;0.023438;1.005859;
1070628;-0.001953;0.019531;1.003906;
1070778;-0.003906;0.016602;1.000000;
1070918;-0.005859;0.020508;1.005859;
1071058;-0.000977;0.021484;1.024414;
1071198;0.000977;0.019531;1.025391;
1071338;-0.005859;0.016602;1.032227;
1071478;-0.004883;0.026367;1.039062;
1071615;-0.006836;0.021484;1.049805;
1071764;-0.003906;0.020508;1.055664;
1071908;-0.003906;0.021484;1.066406;
1072053;-0.002930;0.020508;1.064453;
1072193;-0.000977;0.016602;1.077148;
1072343;0.000977;0.024414;1.086914;
1072493;-0.000977;0.020508;1.086914;
1072643;-0.004883;0.022461;1.082031;
1072783;-0.008789;0.019531;1.072266;
1072938;-0.003906;0.019531;1.067383;
1073078;-0.002930;0.020508;1.085938;
1073218;-0.000977;0.024414;1.088867;
1073358;-0.005859;0.021484;1.074219;
1073498;-0.002930;0.025391;1.073242;
1073648;-0.002930;0.023438;1.074219;
1073788;-0.007812;0.022461;1.056641;
1073928;-0.001953;0.021484;1.060547;
1074078;-0.004883;0.015625;1.075195;
1074218;-0.003906;0.018555;1.085938;
1074358;-0.004883;0.018555;1.069336;
1074498;-0.005859;0.018555;1.057617;
1074638;-0.006836;0.018555;1.068359;
1074778;-0.003906;0.012695;1.072266;
1074913;-0.002930;0.013672;1.066406;
1075058;-0.004883;0.014648;1.055664;
1075193;-0.006836;0.012695;1.052734;
1075343;-0.005859;0.014648;1.059570;
1075483;-0.007812;0.013672;1.045898;
1075624;-0.001953;0.013672;1.049805;
1075763;-0.002930;0.011719;1.063477;
1075913;-0.000977;0.023438;1.057617;
1076063;-0.003906;0.012695;1.051758;
1076208;-0.000977;0.016602;1.047852;
1076348;-0.005859;0.020508;1.047852;
1076488;-0.003906;0.023438;1.053711;
1076628;-0.007812;0.022461;1.042969;
1076768;-0.001953;0.023438;1.045898;
1076908;-0.002930;0.030273;1.050781;
1077058;-0.008789;0.017578;1.041016;
1077198;-0.008789;0.028320;1.033203;
1077338;-0.005859;0.024414;1.039062;
1077478;-0.005859;0.027344;1.029297;
1077618;-0.003906;0.021484;1.029297;
1077758;-0.003906;0.025391;1.019531;
1077898;-0.005859;0.015625;1.012695;
1078038;-0.009766;0.022461;0.990234;
1078173;-0.005859;0.016602;0.989258;
1078313;-0.007812;0.021484;0.984375;
1078463;-0.007812;0.018555;0.987305;
1078605;-0.003906;0.022461;1.000000;
1078738;-0.008789;0.013672;0.992188;
1078873;-0.010742;0.017578;0.979492;
1079014;-0.008789;0.021484;0.978516;
1079143;-0.008789;0.021484;0.987305;
1079273;-0.004883;0.020508;0.999023;
1079428;-0.008789;0.019531;0.992188;
1079568;-0.008789;0.018555;1.002930;
1079708;-0.009766;0.019531;0.993164;
1079848;-0.007812;0.027344;1.001953;
1079988;-0.007812;0.023438;1.006836;
1080128;-0.007812;0.018555;1.008789;
1080278;-0.005859;0.019531;1.029297;
1080418;-0.003906;0.022461;1.027344;
1080558;-0.007812;0.018555;1.017578;
1080698;-0.006836;0.023438;1.017578;
1080838;-0.009766;0.023438;1.021484;
1080978;-0.003906;0.020508;1.035156;
1081128;-0.000977;0.023438;1.029297;
1081268;-0.004883;0.016602;1.033203;
1081403;-0.008789;0.019531;1.029297;
1081548;-0.008789;0.020508;1.025391;
1081688;-0.005859;0.024414;1.016602;
1081814;-0.006836;0.016602;1.033203;
1081954;-0.002930;0.021484;1.034180;
1082095;-0.008789;0.023438;1.027344;
1082223;-0.007812;0.020508;1.021484;
1082368;-0.007812;0.025391;1.028320;
1082503;-0.002930;0.019531;1.026367;
1082643;-0.004883;0.021484;1.032227;
1082783;-0.003906;0.017578;1.034180;
1082923;-0.007812;0.018555;1.025391;
1083074;-0.007812;0.019531;1.035156;
1083218;-0.005859;0.014648;1.025391;
1083358;-0.007812;0.016602;1.032227;
1083508;-0.004883;0.020508;1.044922;
1083648;-0.003906;0.020508;1.048828;
1083788;-0.002930;0.024414;1.052734;
1083938;-0.007812;0.018555;1.043945;
1084078;-0.007812;0.021484;1.046875;
1084218;-0.003906;0.021484;1.055664;
1084358;-0.004883;0.022461;1.046875;
1084498;-0.004883;0.013672;1.052734;
1084648;-0.003906;0.024414;1.068359;
1084788;-0.004883;0.019531;1.065430;
1084928;-0.006836;0.026367;1.055664;
1085068;-0.005859;0.019531;1.051758;
1085203;-0.005859;0.025391;1.058594;
1085343;0.000000;0.017578;1.069336;
1085478;-0.001953;0.018555;1.057617;
1085613;-0.005859;0.018555;1.067383;
1085763;-0.006836;0.019531;1.052734;
1085903;-0.003906;0.015625;1.054688;
1086053;-0.003906;0.024414;1.049805;
1086194;-0.005859;0.022461;1.056641;
1086333;-0.000977;0.028320;1.065430;
1086478;-0.005859;0.019531;1.057617;
1086618;-0.002930;0.021484;1.057617;
1086758;-0.004883;0.018555;1.046875;
1086898;-0.005859;0.023438;1.042969;
1087038;-0.005859;0.023438;1.049805;
1087178;-0.003906;0.024414;1.048828;
1087318;-0.004883;0.024414;1.055664;
1087458;-0.004883;0.026367;1.061523;
1087598;-0.005859;0.022461;1.059570;
1087748;-0.003906;0.025391;1.058594;
1087888;-0.006836;0.023438;1.046875;
1088028;-0.002930;0.022461;1.058594;
1088168;-0.005859;0.025391;1.062500;
1088308;-0.003906;0.022461;1.048828;
1088443;-0.002930;0.019531;1.045898;
1088593;-0.004883;0.018555;1.048828;
1088743;-0.004883;0.018555;1.050781;
1088873;-0.002930;0.018555;1.050781;
1089013;-0.003906;0.015625;1.054688;
1089153;-0.004883;0.018555;1.048828;
1089293;-0.002930;0.016602;1.044922;
1089438;-0.005859;0.019531;1.036133;
1089578;-0.003906;0.018555;1.041992;
1089718;-0.005859;0.021484;1.042969;
1089858;-0.003906;0.018555;1.048828;
1089998;-0.005859;0.021484;1.045898;
1090138;-0.007812;0.025391;1.035156;
1090278;-0.005859;0.025391;1.041016;
1090428;-0.003906;0.026367;1.043945;
1090568;-0.006836;0.027344;1.043945;
1090708;-0.004883;0.026367;1.040039;
1090848;-0.006836;0.025391;1.029297;
1090988;-0.005859;0.028320;1.031250;
1091128;-0.008789;0.019531;1.021484;
1091268;-0.007812;0.023438;1.005859;
1091403;-0.004883;0.021484;1.021484;
1091533;-0.005859;0.023438;1.015625;
1091663;-0.004883;0.016602;1.000977;
1091805;-0.007812;0.021484;0.996094;
1091933;-0.008789;0.017578;1.008789;
1092083;-0.001953;0.021484;1.018555;
1092213;-0.003906;0.021484;1.032227;
1092368;-0.006836;0.024414;1.033203;
1092503;-0.005859;0.022461;1.030273;
1092633;-0.008789;0.020508;1.024414;
1092778;-0.005859;0.016602;1.017578;
1092918;-0.005859;0.019531;1.028320;
1093058;-0.003906;0.021484;1.030273;
1093198;-0.007812;0.021484;1.035156;
1093338;-0.004883;0.015625;1.044922;
1093478;-0.006836;0.019531;1.033203;
1093618;-0.003906;0.023438;1.040039;
1093758;-0.006836;0.014648;1.039062;
1093898;-0.001953;0.015625;1.031250;
1094048;-0.000977;0.021484;1.027344;
1094188;-0.007812;0.023438;1.022461;
1094328;-0.006836;0.021484;1.020508;
1094478;-0.004883;0.024414;1.025391;
1094618;-0.006836;0.018555;1.011719;
1094753;-0.006836;0.020508;1.010742;
1094895;-0.006836;0.023438;1.024414;
1095043;-0.004883;0.023438;1.027344;
1095193;-0.003906;0.024414;1.023438;
1095328;-0.008789;0.022461;1.027344;
1095463;-0.007812;0.020508;1.019531;
1095603;-0.005859;0.019531;1.017578;
1095753;-0.004883;0.019531;1.017578;
1095883;-0.006836;0.018555;1.025391;
1096018;-0.004883;0.020508;1.019531;
1096158;-0.005859;0.019531;1.010742;
1096308;-0.010742;0.024414;1.012695;
1096448;-0.006836;0.023438;1.018555;
1096588;-0.006836;0.018555;1.022461;
1096738;-0.004883;0.016602;1.030273;
1096878;-0.001953;0.021484;1.038086;
1097028;-0.005859;0.011719;1.041016;
1097168;-0.008789;0.018555;1.034180;
1097308;-0.008789;0.019531;1.037109;
1097448;-0.006836;0.022461;1.050781;
1097588;-0.006836;0.024414;1.050781;
1097738;-0.000977;0.027344;1.053711;
1097878;-0.003906;0.025391;1.057617;
1098018;-0.004883;0.027344;1.041992;
1098153;-0.006836;0.023438;1.028320;
1098283;-0.004883;0.024414;1.029297;
1098413;-0.003906;0.020508;1.017578;
1098543;-0.005859;0.020508;1.041992;
1098673;-0.007812;0.015625;1.031250;
1098813;-0.006836;0.019531;1.015625;
1098963;-0.005859;0.020508;1.028320;
1099093;-0.007812;0.022461;1.031250;
1099233;-0.002930;0.014648;1.031250;
1099363;-0.006836;0.021484;1.029297;
1099498;-0.007812;0.017578;1.014648;
1099638;-0.007812;0.020508;1.018555;
1099778;-0.001953;0.023438;1.017578;
1099918;-0.005859;0.021484;1.022461;
1100058;-0.002930;0.015625;1.031250;
1100198;-0.009766;0.019531;1.018555;
1100338;-0.006836;0.024414;1.020508;
1100478;-0.006836;0.023438;1.021484;
1100618;-0.005859;0.021484;1.023438;
1100758;-0.007812;0.019531;1.018555;
1100908;-0.001953;0.021484;1.046875;
1101048;-0.000977;0.021484;1.030273;
1101198;-0.002930;0.023438;1.032227;
1101338;-0.009766;0.029297;1.012695;
1101473;-0.006836;0.034180;1.030273;
1101615;-0.004883;0.019531;1.025391;
1101744;-0.006836;0.021484;1.039062;
1101883;-0.003906;0.013672;1.033203;
1102034;-0.002930;0.020508;1.041016;
1102186;-0.008789;0.020508;1.022461;
1102328;-0.005859;0.015625;1.032227;
1102468;-0.006836;0.017578;1.035156;
1102603;-0.005859;0.022461;1.041016;
1102743;-0.004883;0.021484;1.045898;
1102893;-0.000977;0.017578;1.060547;
1103033;-0.001953;0.026367;1.059570;
1103178;-0.004883;0.025391;1.067383;
1103318;-0.003906;0.026367;1.055664;
1103458;-0.004883;0.023438;1.047852;
1103598;-0.004883;0.022461;1.053711;
1103748;-0.003906;0.021484;1.063477;
1103888;-0.004883;0.019531;1.047852;
1104028;-0.005859;0.009766;1.039062;
1104168;-0.003906;0.005859;1.030273;
1104308;-0.007812;0.016602;1.041992;
1104458;-0.004883;0.026367;1.039062;
1104598;-0.001953;0.019531;1.047852;
1104738;-0.005859;0.035156;1.047852;
1104888;-0.007812;0.023438;1.035156;
1105028;-0.005859;0.026367;1.036133;
1105163;-0.006836;0.028320;1.028320;
1105293;-0.004883;0.030273;1.034180;
1105433;-0.002930;0.023438;1.041016;
1105573;-0.005859;0.020508;1.031250;
1105724;-0.005859;0.022461;1.022461;
1105855;-0.002930;0.023438;1.034180;
1106003;-0.009766;0.016602;1.022461;
1106143;-0.004883;0.022461;1.009766;
1106273;-0.003906;0.016602;1.012695;
1106418;-0.003906;0.021484;1.025391;
1106558;-0.006836;0.018555;1.011719;
1106698;-0.007812;0.015625;1.012695;
1106838;-0.003906;0.014648;1.018555;
1106978;-0.008789;0.024414;1.039062;
1107118;-0.006836;0.021484;1.028320;
1107258;-0.000977;0.022461;1.036133;
1107398;-0.005859;0.032227;1.048828;
1107538;-0.007812;0.022461;1.029297;
1107678;-0.005859;0.017578;1.037109;
1107828;-0.008789;0.020508;1.034180;
1107968;-0.006836;0.023438;1.033203;
1108108;-0.004883;0.025391;1.043945;
1108248;-0.008789;0.024414;1.041016;
1108383;-0.004883;0.025391;1.031250;
1108518;-0.008789;0.014648;1.033203;
1108653;-0.004883;0.020508;1.032227;
1108788;-0.002930;0.019531;1.050781;
1108924;0.000000;0.017578;1.051758;
1109053;-0.002930;0.017578;1.048828;
1109193;-0.000977;0.013672;1.025391;
1109343;0.002930;0.017578;1.041016;
1109483;0.013672;0.017578;1.045898;
1109623;0.016602;0.025391;1.047852;
1109763;0.021484;0.022461;1.057617;
1109908;0.031250;0.020508;1.052734;
1110048;0.040039;0.015625;1.062500;
1110188;0.046875;0.014648;1.057617;
1110328;0.054688;0.018555;1.066406;
1110468;0.061523;0.019531;1.081055;
1110608;0.064453;0.018555;1.083008;
1110748;0.069336;0.019531;1.081055;
1110888;0.073242;0.018555;1.082031;
1111028;0.074219;0.018555;1.083008;
1111168;0.080078;0.017578;1.067383;
1111308;0.085938;0.026367;1.066406;
1111448;0.087891;0.026367;1.049805;
1111588;0.092773;0.027344;1.051758;
1111728;0.089844;0.023438;1.009766;
1111868;0.098633;0.019531;1.004883;
1112004;0.098633;0.013672;1.030273;
1112143;0.106445;0.015625;1.012695;
1112293;0.104492;0.020508;1.005859;
1112443;0.105469;0.018555;1.000977;
1112576;0.100586;0.015625;0.997070;
1112723;0.103516;0.023438;0.999023;
1112854;0.102539;0.021484;0.997070;
1112983;0.099609;0.019531;0.984375;
1113133;0.100586;0.028320;0.995117;
1113268;0.097656;0.021484;1.006836;
1113394;0.098633;0.022461;1.030273;
1113538;0.099609;0.021484;1.018555;
1113678;0.098633;0.022461;1.033203;
1113828;0.103516;0.026367;1.016602;
1113968;0.104492;0.024414;1.018555;
1114108;0.100586;0.017578;1.000977;
1114248;0.100586;0.019531;1.006836;
1114388;0.100586;0.021484;1.005859;
1114528;0.097656;0.025391;1.005859;
1114678;0.096680;0.022461;1.003906;
1114818;0.096680;0.018555;1.022461;
1114958;0.099609;0.022461;1.024414;
1115108;0.099609;0.023438;1.023438;
1115248;0.094727;0.017578;1.033203;
1115388;0.099609;0.016602;1.031250;
1115523;0.097656;0.019531;1.024414;
1115653;0.101562;0.021484;1.003906;
1115783;0.099609;0.026367;1.006836;
1115933;0.096680;0.025391;1.012695;
1116073;0.096680;0.018555;1.011719;
1116223;0.094727;0.018555;1.005859;
1116363;0.096680;0.026367;1.033203;
1116503;0.095703;0.024414;1.023438;
1116648;0.098633;0.023438;1.029297;
1116783;0.095703;0.026367;1.045898;
1116924;0.097656;0.026367;1.016602;
1117068;0.097656;0.018555;1.002930;
1117208;0.096680;0.013672;1.006836;
1117348;0.099609;0.014648;1.011719;
1117488;0.093750;0.019531;1.028320;
1117628;0.092773;0.013672;1.026367;
1117768;0.097656;0.024414;1.044922;
1117908;0.093750;0.019531;1.037109;
1118048;0.098633;0.021484;1.015625;
1118188;0.095703;0.021484;1.002930;
1118338;0.096680;0.026367;1.002930;
1118478;0.092773;0.019531;1.008789;
1118618;0.091797;0.024414;0.988281;
1118758;0.092773;0.024414;1.016602;
1118898;0.093750;0.023438;1.013672;
1119033;0.093750;0.022461;1.013672;
1119173;0.090820;0.024414;1.021484;
1119323;0.092773;0.026367;1.021484;
1119473;0.093750;0.027344;1.001953;
1119605;0.095703;0.029297;0.999023;
1119748;0.088867;0.022461;0.990234;
1119893;0.090820;0.020508;0.979492;
1120033;0.087891;0.027344;1.016602;
1120173;0.091797;0.016602;1.025391;
1120313;0.091797;0.018555;1.033203;
1120458;0.093750;0.022461;1.041016;
1120598;0.093750;0.014648;1.052734;
1120738;0.092773;0.022461;1.026367;
1120878;0.094727;0.018555;1.036133;
1121018;0.092773;0.016602;1.032227;
1121158;0.087891;0.016602;1.028320;
1121298;0.091797;0.018555;1.056641;
1121438;0.094727;0.021484;1.064453;
1121578;0.090820;0.015625;1.050781;
1121718;0.091797;0.018555;1.056641;
1121858;0.086914;0.018555;1.018555;
1121998;0.089844;0.020508;1.023438;
1122138;0.085938;0.021484;1.048828;
1122278;0.087891;0.019531;1.043945;
1122424;0.090820;0.024414;1.043945;
1122566;0.090820;0.019531;1.041016;
1122703;0.092773;0.024414;1.043945;
1122834;0.089844;0.019531;1.019531;
1122963;0.086914;0.022461;1.019531;
1123103;0.087891;0.022461;1.027344;
1123243;0.087891;0.019531;1.030273;
1123373;0.088867;0.018555;1.024414;
1123503;0.088867;0.021484;1.001953;
1123653;0.089844;0.014648;1.009766;
1123804;0.088867;0.015625;1.005859;
1123958;0.083984;0.024414;1.012695;
1124098;0.083984;0.021484;1.021484;
1124248;0.082031;0.019531;1.033203;
1124388;0.087891;0.017578;1.028320;
1124528;0.085938;0.022461;1.008789;
1124668;0.089844;0.021484;1.010742;
1124808;0.089844;0.019531;1.011719;
1124958;0.084961;0.025391;1.038086;
1125098;0.084961;0.020508;1.054688;
1125238;0.085938;0.019531;1.061523;
1125378;0.088867;0.022461;1.061523;
1125518;0.086914;0.020508;1.058594;
1125658;0.088867;0.014648;1.057617;
1125808;0.086914;0.016602;1.065430;
1125944;0.083008;0.027344;1.099609;
1126078;0.084961;0.021484;1.096680;
1126208;0.084961;0.018555;1.101562;
1126344;0.083008;0.018555;1.069336;
1126493;0.083008;0.017578;1.073242;
1126623;0.085938;0.022461;1.098633;
1126753;0.088867;0.020508;1.099609;
1126893;0.090820;0.020508;1.096680;
1127043;0.083984;0.021484;1.082031;
1127184;0.084961;0.018555;1.075195;
1127323;0.083008;0.018555;1.084961;
1127478;0.081055;0.017578;1.094727;
1127618;0.084961;0.021484;1.118164;
1127758;0.083008;0.011719;1.114258;
1127898;0.085938;0.015625;1.135742;
1128038;0.084961;0.019531;1.188477;
1128178;0.087891;0.021484;1.247070;
1128318;0.091797;0.022461;1.331055;
1128458;0.091797;0.014648;1.383789;
1128598;0.097656;0.022461;1.451172;
1128748;0.107422;0.020508;1.526367;
1128888;0.104492;0.016602;1.579102;
1129028;0.112305;0.010742;1.628906;
1129178;0.114258;0.017578;1.687500;
1129318;0.114258;0.008789;1.721680;
1129453;0.116211;0.011719;1.735352;
1129593;0.118164;0.014648;1.760742;
1129735;0.117188;0.014648;1.796875;
1129863;0.121094;0.010742;1.796875;
1130013;0.122070;0.010742;1.803711;
1130158;0.120117;0.009766;1.802734;
1130298;0.124023;0.010742;1.801758;
1130433;0.120117;0.009766;1.799805;
1130563;0.122070;0.017578;1.821289;
1130706;0.119141;0.010742;1.830078;
1130853;0.123047;0.010742;1.837891;
1130998;0.122070;0.013672;1.831055;
1131138;0.122070;0.008789;1.832031;
1131278;0.123047;0.012695;1.852539;
1131418;0.126953;0.011719;1.856445;
1131558;0.125977;0.015625;1.879883;
1131698;0.129883;0.008789;1.886719;
1131848;0.128906;0.022461;1.884766;
1131988;0.127930;0.014648;1.881836;
1132128;0.128906;0.009766;1.894531;
1132278;0.127930;0.014648;1.896484;
1132418;0.126953;0.013672;1.895508;
1132558;0.128906;0.008789;1.882812;
1132698;0.130859;0.012695;1.890625;
1132838;0.126953;0.018555;1.888672;
1132973;0.127930;0.013672;1.874023;
1133103;0.125977;0.016602;1.895508;
1133233;0.130859;0.016602;1.885742;
1133364;0.127930;0.012695;1.874023;
1133503;0.127930;0.013672;1.865234;
1133633;0.125977;0.011719;1.875000;
1133763;0.125977;0.014648;1.885742;
1133893;0.127930;0.011719;1.865234;
1134023;0.126953;0.014648;1.865234;
1134163;0.128906;0.013672;1.851562;
1134318;0.127930;0.009766;1.847656;
1134468;0.130859;0.017578;1.851562;
1134608;0.131836;0.014648;1.858398;
1134748;0.132812;0.009766;1.858398;
1134888;0.134766;0.008789;1.856445;
1135028;0.136719;0.006836;1.856445;
1135168;0.133789;0.005859;1.861328;
1135308;0.137695;0.009766;1.871094;
1135448;0.138672;0.017578;1.864258;
1135588;0.135742;0.004883;1.862305;
1135728;0.135742;0.002930;1.862305;
1135868;0.138672;0.002930;1.874023;
1136008;0.139648;0.017578;1.868164;
1136148;0.141602;0.011719;1.861328;
1136293;0.135742;0.018555;1.868164;
1136428;0.139648;0.020508;1.865234;
1136563;0.139648;0.015625;1.873047;
1136703;0.142578;0.018555;1.886719;
1136853;0.139648;0.015625;1.896484;
1136998;0.140625;0.008789;1.871094;
1137138;0.144531;0.002930;1.863281;
1137274;0.147461;0.005859;1.870117;
1137413;0.145508;0.009766;1.879883;
1137564;0.144531;0.006836;1.886719;
1137693;0.148438;0.018555;1.890625;
1137834;0.144531;0.010742;1.885742;
1137964;0.146484;0.009766;1.875977;
1138093;0.148438;0.012695;1.871094;
1138238;0.151367;0.012695;1.858398;
1138378;0.148438;0.001953;1.854492;
1138528;0.148438;0.011719;1.855469;
1138668;0.149414;0.014648;1.850586;
1138808;0.150391;0.011719;1.839844;
1138948;0.151367;0.016602;1.865234;
1139088;0.145508;0.018555;1.854492;
1139228;0.152344;0.011719;1.861328;
1139368;0.149414;0.010742;1.857422;
1139518;0.150391;0.013672;1.857422;
1139658;0.151367;0.004883;1.854492;
1139798;0.155273;0.002930;1.853516;
1139948;0.156250;0.006836;1.848633;
1140088;0.158203;0.006836;1.858398;
1140223;0.158203;0.000000;1.848633;
1140356;0.158203;0.007812;1.852539;
1140493;0.159180;0.013672;1.842773;
1140633;0.161133;0.014648;1.841797;
1140788;0.160156;0.023438;1.866211;
1140923;0.160156;0.027344;1.842773;
1141073;0.163086;0.017578;1.824219;
1141208;0.164062;0.020508;1.833008;
1141348;0.163086;0.021484;1.822266;
1141483;0.163086;0.013672;1.821289;
1141613;0.166016;0.012695;1.809570;
1141753;0.164062;0.008789;1.809570;
1141893;0.167969;0.004883;1.816406;
1142028;0.168945;0.000977;1.814453;
1142168;0.169922;0.003906;1.826172;
1142308;0.170898;0.001953;1.839844;
1142448;0.175781;-0.000977;1.859375;
1142588;0.174805;0.002930;1.868164;
1142728;0.179688;0.010742;1.880859;
1142868;0.183594;0.007812;1.908203;
1143008;0.181641;0.014648;1.893555;
1143148;0.184570;0.025391;1.894531;
1143288;0.184570;0.019531;1.887695;
1143428;0.181641;0.026367;1.893555;
1143568;0.186523;0.032227;1.875000;
1143708;0.183594;0.021484;1.851562;
1143848;0.183594;0.027344;1.849609;
1143988;0.185547;0.027344;1.832031;
1144123;0.185547;0.017578;1.829102;
1144263;0.186523;0.008789;1.811523;
1144395;0.186523;0.015625;1.796875;
1144533;0.186523;0.015625;1.757812;
1144683;0.191406;0.015625;1.777344;
1144826;0.187500;0.013672;1.789062;
1144964;0.193359;0.011719;1.788086;
1145113;0.197266;0.015625;1.802734;
1145258;0.200195;0.010742;1.806641;
1145403;0.200195;0.008789;1.811523;
1145538;0.202148;0.001953;1.799805;
1145678;0.200195;0.006836;1.777344;
1145818;0.204102;0.008789;1.772461;
1145958;0.207031;0.018555;1.801758;
1146108;0.207031;0.019531;1.788086;
1146248;0.207031;0.017578;1.800781;
1146388;0.210938;0.020508;1.796875;
1146528;0.212891;0.024414;1.797852;
1146668;0.210938;0.022461;1.811523;
1146808;0.212891;0.022461;1.796875;
1146948;0.212891;0.023438;1.783203;
1147088;0.216797;0.026367;1.758789;
1147238;0.214844;0.020508;1.759766;
1147378;0.211914;0.022461;1.750000;
1147513;0.205078;0.028320;1.745117;
1147653;0.203125;0.024414;1.724609;
1147784;0.194336;0.014648;1.709961;
1147933;0.194336;0.013672;1.709961;
1148068;0.182617;0.010742;1.676758;
1148203;0.174805;0.009766;1.656250;
1148348;0.163086;0.020508;1.591797;
1148498;0.151367;0.017578;1.521484;
1148623;0.133789;0.015625;1.428711;
1148773;0.118164;0.018555;1.346680;
1148923;0.101562;0.018555;1.219727;
1149073;0.079102;0.014648;1.106445;
1149228;0.059570;0.016602;0.962891;
1149368;0.050781;0.019531;0.868164;
1149508;0.035156;0.018555;0.713867;
1149648;0.029297;0.023438;0.622070;
1149788;0.020508;0.031250;0.509766;
1149928;0.016602;0.020508;0.410156;
1150068;0.010742;0.024414;0.318359;
1150218;0.007812;0.026367;0.241211;
1150358;0.004883;0.029297;0.178711;
1150498;0.006836;0.026367;0.143555;
1150638;0.005859;0.028320;0.102539;
1150778;0.007812;0.034180;0.063477;
1150928;0.004883;0.033203;0.041992;
1151068;0.004883;0.032227;0.019531;
1151203;0.001953;0.037109;0.009766;
1151344;0.002930;0.035156;0.015625;
1151483;0.002930;0.033203;-0.004883;
1151628;-0.000977;0.032227;-0.010742;
1151768;0.002930;0.031250;0.000000;
1151903;0.005859;0.027344;0.000977;
1152038;0.001953;0.028320;-0.005859;
1152174;0.004883;0.034180;0.000977;
1152303;0.000977;0.033203;-0.012695;
1152443;0.000977;0.030273;-0.000977;
1152593;-0.000977;0.030273;-0.007812;
1152733;0.000000;0.032227;0.004883;
1152863;-0.004883;0.028320;0.002930;
1153013;0.000000;0.030273;0.020508;
1153168;0.000000;0.030273;0.021484;
1153308;-0.005859;0.033203;0.011719;
1153448;-0.007812;0.030273;0.009766;
1153598;-0.009766;0.030273;0.001953;
1153738;-0.003906;0.030273;0.005859;
1153878;-0.003906;0.027344;0.016602;
1154028;-0.005859;0.021484;0.014648;
1154168;-0.005859;0.026367;0.027344;
1154308;-0.001953;0.016602;0.026367;
1154448;-0.006836;0.016602;0.031250;
1154588;-0.007812;0.019531;0.023438;
1154738;-0.009766;0.021484;0.028320;
1154878;-0.008789;0.024414;0.030273;
1155028;-0.009766;0.025391;0.023438;
1155174;-0.008789;0.027344;0.035156;
1155303;-0.012695;0.025391;0.029297;
1155443;-0.010742;0.029297;0.032227;
1155574;-0.011719;0.031250;0.026367;
1155713;-0.013672;0.034180;0.034180;
1155868;-0.012695;0.032227;0.030273;
1155993;-0.009766;0.031250;0.029297;
1156123;-0.010742;0.030273;0.032227;
1156263;-0.014648;0.031250;0.029297;
1156413;-0.011719;0.030273;0.027344;
1156558;-0.012695;0.032227;0.026367;
1156698;-0.013672;0.032227;0.027344;
1156848;-0.015625;0.035156;0.020508;
1156988;-0.015625;0.030273;0.021484;
1157128;-0.013672;0.034180;0.012695;
1157278;-0.016602;0.034180;0.020508;
1157418;-0.010742;0.036133;0.020508;
1157558;-0.015625;0.035156;0.015625;
1157698;-0.011719;0.034180;0.014648;
1157838;-0.013672;0.035156;0.017578;
1157978;-0.011719;0.031250;0.016602;
1158128;-0.010742;0.029297;0.016602;
1158268;-0.015625;0.033203;0.016602;
1158408;-0.013672;0.033203;0.018555;
1158558;-0.013672;0.034180;0.012695;
1158688;-0.014648;0.036133;0.020508;
1158823;-0.015625;0.034180;0.019531;
1158953;-0.017578;0.035156;0.026367;
1159083;-0.014648;0.032227;0.029297;
1159223;-0.013672;0.034180;0.028320;
1159375;-0.014648;0.035156;0.026367;
1159523;-0.015625;0.036133;0.029297;
1159673;-0.016602;0.037109;0.021484;
1159823;-0.014648;0.034180;0.025391;
1159953;-0.014648;0.034180;0.034180;
1160098;-0.014648;0.034180;0.025391;
1160238;-0.016602;0.034180;0.024414;
1160388;-0.015625;0.037109;0.030273;
1160528;-0.013672;0.029297;0.027344;
1160668;-0.015625;0.028320;0.028320;
1160818;-0.016602;0.035156;0.024414;
1160958;-0.016602;0.032227;0.029297;
1161098;-0.016602;0.033203;0.033203;
1161238;-0.017578;0.032227;0.022461;
1161378;-0.015625;0.031250;0.027344;
1161518;-0.016602;0.033203;0.026367;
1161658;-0.018555;0.033203;0.021484;
1161798;-0.015625;0.032227;0.021484;
1161938;-0.018555;0.031250;0.027344;
1162074;-0.015625;0.033203;0.026367;
1162203;-0.018555;0.033203;0.020508;
1162333;-0.015625;0.029297;0.022461;
1162473;-0.017578;0.030273;0.024414;
1162605;-0.017578;0.031250;0.024414;
1162733;-0.015625;0.029297;0.017578;
1162886;-0.015625;0.032227;0.022461;
1163018;-0.017578;0.032227;0.023438;
1163153;-0.016602;0.029297;0.026367;
1163284;-0.018555;0.033203;0.017578;
1163423;-0.018555;0.030273;0.021484;
1163568;-0.019531;0.030273;0.019531;
1163708;-0.017578;0.028320;0.018555;
1163848;-0.019531;0.031250;0.018555;
1163988;-0.017578;0.029297;0.021484;
1164128;-0.021484;0.028320;0.019531;
1164268;-0.018555;0.030273;0.017578;
1164408;-0.021484;0.029297;0.016602;
1164548;-0.018555;0.027344;0.017578;
1164688;-0.019531;0.027344;0.020508;
1164828;-0.020508;0.030273;0.018555;
1164968;-0.017578;0.030273;0.016602;
1165108;-0.018555;0.030273;0.013672;
1165248;-0.020508;0.029297;0.016602;
1165388;-0.021484;0.028320;0.013672;
1165523;-0.018555;0.031250;0.008789;
1165673;-0.021484;0.026367;0.008789;
1165813;-0.019531;0.027344;0.005859;
1165948;-0.019531;0.028320;0.000977;
1166088;-0.020508;0.029297;0.002930;
1166213;-0.019531;0.030273;0.007812;
1166354;-0.019531;0.027344;-0.000977;
1166483;-0.020508;0.027344;-0.003906;
1166623;-0.023438;0.028320;-0.006836;
1166768;-0.021484;0.030273;-0.005859;
1166903;-0.023438;0.030273;-0.005859;
1167033;-0.023438;0.028320;-0.007812;
1167173;-0.023438;0.028320;-0.011719;
1167313;-0.022461;0.026367;-0.006836;
1167458;-0.024414;0.025391;-0.004883;
1167598;-0.025391;0.023438;0.000977;
1167738;-0.025391;0.026367;0.000000;
1167878;-0.022461;0.025391;-0.000977;
1168028;-0.024414;0.024414;-0.000977;
1168168;-0.023438;0.026367;0.008789;
1168308;-0.025391;0.025391;0.008789;
1168448;-0.025391;0.027344;0.014648;
1168588;-0.027344;0.026367;0.012695;
1168728;-0.023438;0.026367;0.016602;
1168868;-0.025391;0.025391;0.015625;
1169008;-0.024414;0.023438;0.019531;
1169148;-0.028320;0.024414;0.021484;
1169288;-0.026367;0.025391;0.024414;
1169423;-0.027344;0.027344;0.023438;
1169573;-0.028320;0.023438;0.027344;
1169703;-0.027344;0.024414;0.026367;
1169848;-0.027344;0.026367;0.031250;
1169984;-0.029297;0.027344;0.028320;
1170124;-0.028320;0.025391;0.029297;
1170273;-0.028320;0.027344;0.034180;
1170405;-0.030273;0.026367;0.039062;
1170544;-0.031250;0.024414;0.036133;
1170683;-0.032227;0.022461;0.043945;
1170833;-0.030273;0.025391;0.034180;
1170978;-0.031250;0.028320;0.040039;
1171128;-0.032227;0.030273;0.038086;
1171268;-0.034180;0.028320;0.034180;
1171408;-0.031250;0.031250;0.039062;
1171558;-0.033203;0.028320;0.026367;
1171698;-0.033203;0.027344;0.030273;
1171838;-0.033203;0.033203;0.037109;
1171988;-0.035156;0.039062;0.033203;
1172128;-0.033203;0.041992;0.028320;
1172268;-0.033203;0.036133;0.029297;
1172408;-0.036133;0.041992;0.021484;
1172548;-0.037109;0.036133;0.006836;
1172688;-0.035156;0.034180;-0.008789;
1172828;-0.034180;0.029297;-0.012695;
1172963;-0.034180;0.031250;-0.022461;
1173098;-0.037109;0.031250;-0.040039;
1173233;-0.036133;0.026367;-0.036133;
1173384;-0.037109;0.023438;-0.039062;
1173523;-0.039062;0.026367;-0.051758;
1173653;-0.037109;0.021484;-0.038086;
1173794;-0.041016;0.029297;-0.015625;
1173943;-0.043945;0.024414;-0.011719;
1174093;-0.046875;0.030273;0.011719;
1174233;-0.049805;0.027344;0.058594;
1174388;-0.048828;0.025391;0.152344;
1174528;-0.048828;0.026367;0.238281;
1174668;-0.047852;0.023438;0.358398;
1174818;-0.037109;0.025391;0.485352;
1174958;-0.032227;0.026367;0.578125;
1175098;-0.027344;0.019531;0.692383;
1175248;-0.015625;0.028320;0.812500;
1175388;-0.014648;0.027344;0.919922;
1175528;-0.002930;0.027344;1.003906;
1175668;0.002930;0.030273;1.108398;
1175808;0.010742;0.029297;1.188477;
1175948;0.021484;0.025391;1.274414;
1176088;0.026367;0.026367;1.353516;
1176228;0.033203;0.022461;1.407227;
1176368;0.044922;0.020508;1.473633;
1176508;0.049805;0.023438;1.518555;
1176643;0.055664;0.028320;1.565430;
1176798;0.054688;0.021484;1.587891;
1176923;0.057617;0.020508;1.621094;
1177063;0.061523;0.021484;1.643555;
1177203;0.056641;0.017578;1.661133;
1177353;0.055664;0.023438;1.682617;
1177493;0.054688;0.027344;1.690430;
1177646;0.053711;0.036133;1.709961;
1177773;0.050781;0.029297;1.712891;
1177913;0.050781;0.029297;1.726562;
1178058;0.052734;0.024414;1.733398;
1178198;0.055664;0.024414;1.761719;
1178348;0.047852;0.028320;1.768555;
1178488;0.052734;0.025391;1.764648;
1178638;0.047852;0.024414;1.795898;
1178778;0.052734;0.020508;1.797852;
1178918;0.049805;0.023438;1.811523;
1179068;0.047852;0.021484;1.818359;
1179208;0.047852;0.020508;1.810547;
1179348;0.050781;0.021484;1.825195;
1179498;0.047852;0.026367;1.848633;
1179638;0.047852;0.025391;1.857422;
1179778;0.048828;0.028320;1.889648;
1179918;0.050781;0.024414;1.901367;
1180053;0.049805;0.022461;1.899414;
1180193;0.044922;0.025391;1.913086;
1180343;0.044922;0.024414;1.913086;
1180474;0.045898;0.026367;1.915039;
1180613;0.043945;0.031250;1.941406;
1180746;0.041016;0.029297;1.937500;
1180888;0.042969;0.035156;1.945312;
1181023;0.041016;0.031250;1.947266;
1181164;0.041992;0.028320;1.937500;
1181318;0.037109;0.025391;1.940430;
1181468;0.034180;0.020508;1.924805;
1181618;0.032227;0.019531;1.925781;
1181758;0.032227;0.017578;1.919922;
1181898;0.026367;0.017578;1.893555;
1182038;0.022461;0.015625;1.878906;
1182178;0.021484;0.015625;1.855469;
1182318;0.014648;0.014648;1.846680;
1182458;0.011719;0.015625;1.822266;
1182598;0.010742;0.015625;1.822266;
1182738;0.007812;0.016602;1.801758;
1182888;0.002930;0.017578;1.798828;
1183028;0.001953;0.015625;1.793945;
1183168;0.002930;0.017578;1.800781;
1183313;-0.000977;0.018555;1.797852;
1183454;0.001953;0.015625;1.798828;
1183593;0.000000;0.016602;1.806641;
1183728;-0.003906;0.017578;1.809570;
1183863;-0.001953;0.017578;1.813477;
1183993;0.000000;0.016602;1.815430;
1184133;-0.003906;0.019531;1.821289;
1184273;-0.001953;0.017578;1.826172;
1184424;-0.004883;0.025391;1.830078;
1184573;-0.004883;0.028320;1.835938;
1184713;-0.007812;0.033203;1.836914;
1184868;-0.008789;0.027344;1.834961;
1185008;-0.009766;0.026367;1.830078;
1185148;-0.008789;0.020508;1.826172;
1185288;-0.009766;0.017578;1.820312;
1185428;-0.012695;0.020508;1.822266;
1185568;-0.013672;0.018555;1.813477;
1185708;-0.013672;0.011719;1.820312;
1185858;-0.016602;0.020508;1.817383;
1185998;-0.013672;0.012695;1.813477;
1186138;-0.014648;0.018555;1.816406;
1186278;-0.015625;0.018555;1.822266;
1186418;-0.013672;0.018555;1.821289;
1186558;-0.019531;0.012695;1.819336;
1186708;-0.021484;0.014648;1.827148;
1186844;-0.018555;0.014648;1.830078;
1186974;-0.019531;0.014648;1.830078;
1187116;-0.021484;0.015625;1.833008;
1187248;-0.021484;0.018555;1.833984;
1187383;-0.021484;0.021484;1.841797;
1187518;-0.024414;0.021484;1.833008;
1187653;-0.024414;0.023438;1.835938;
1187803;-0.024414;0.021484;1.821289;
1187943;-0.027344;0.026367;1.814453;
1188093;-0.028320;0.020508;1.798828;
1188233;-0.030273;0.022461;1.797852;
1188373;-0.030273;0.017578;1.773438;
1188513;-0.031250;0.016602;1.753906;
1188658;-0.033203;0.018555;1.750977;
1188798;-0.032227;0.020508;1.735352;
1188938;-0.037109;0.018555;1.719727;
1189078;-0.039062;0.020508;1.706055;
1189218;-0.041992;0.022461;1.685547;
1189358;-0.042969;0.022461;1.681641;
1189498;-0.045898;0.022461;1.661133;
1189638;-0.044922;0.024414;1.650391;
1189778;-0.046875;0.017578;1.637695;
1189928;-0.047852;0.024414;1.619141;
1190068;-0.051758;0.024414;1.605469;
1190208;-0.053711;0.030273;1.595703;
1190358;-0.054688;0.024414;1.570312;
1190498;-0.056641;0.025391;1.558594;
1190634;-0.057617;0.026367;1.557617;
1190783;-0.056641;0.026367;1.536133;
1190933;-0.065430;0.024414;1.517578;
1191073;-0.061523;0.027344;1.522461;
1191205;-0.062500;0.019531;1.499023;
1191353;-0.061523;0.020508;1.494141;
1191493;-0.067383;0.019531;1.492188;
1191643;-0.062500;0.018555;1.470703;
1191798;-0.063477;0.019531;1.472656;
1191938;-0.067383;0.025391;1.470703;
1192078;-0.067383;0.024414;1.454102;
1192218;-0.067383;0.021484;1.443359;
1192358;-0.069336;0.024414;1.433594;
1192508;-0.070312;0.019531;1.422852;
1192648;-0.073242;0.021484;1.407227;
1192788;-0.073242;0.025391;1.389648;
1192928;-0.073242;0.025391;1.376953;
1193068;-0.076172;0.019531;1.330078;
1193208;-0.077148;0.025391;1.311523;
1193348;-0.083984;0.023438;1.291016;
1193488;-0.080078;0.024414;1.262695;
1193628;-0.083984;0.020508;1.248047;
1193763;-0.086914;0.026367;1.230469;
1193903;-0.083008;0.022461;1.206055;
1194054;-0.084961;0.019531;1.200195;
1194203;-0.085938;0.025391;1.191406;
1194333;-0.085938;0.022461;1.182617;
1194483;-0.087891;0.025391;1.180664;
1194633;-0.087891;0.027344;1.184570;
1194784;-0.088867;0.025391;1.179688;
1194933;-0.085938;0.027344;1.187500;
1195088;-0.087891;0.027344;1.181641;
1195228;-0.085938;0.023438;1.177734;
1195368;-0.091797;0.029297;1.178711;
1195508;-0.089844;0.030273;1.164062;
1195648;-0.088867;0.022461;1.142578;
1195788;-0.093750;0.019531;1.124023;
1195928;-0.095703;0.025391;1.100586;
1196068;-0.091797;0.030273;1.099609;
1196208;-0.095703;0.025391;1.073242;
1196348;-0.093750;0.024414;1.052734;
1196488;-0.096680;0.023438;1.033203;
1196628;-0.096680;0.021484;1.016602;
1196768;-0.098633;0.022461;1.002930;
1196908;-0.099609;0.025391;0.993164;
1197044;-0.095703;0.024414;1.001953;
1197183;-0.099609;0.023438;0.987305;
1197323;-0.097656;0.023438;0.983398;
1197464;-0.099609;0.020508;0.992188;
1197593;-0.095703;0.020508;0.994141;
1197743;-0.094727;0.027344;1.002930;
1197873;-0.100586;0.024414;1.003906;
1198023;-0.099609;0.032227;1.014648;
1198158;-0.097656;0.022461;1.008789;
1198298;-0.099609;0.023438;1.012695;
1198438;-0.095703;0.026367;1.016602;
1198578;-0.099609;0.023438;1.009766;
1198718;-0.097656;0.027344;1.027344;
1198858;-0.098633;0.032227;1.024414;
1198998;-0.097656;0.029297;1.031250;
1199138;-0.100586;0.032227;1.036133;
1199278;-0.097656;0.026367;1.029297;
1199418;-0.099609;0.023438;1.027344;
1199558;-0.095703;0.020508;1.031250;
1199698;-0.096680;0.020508;1.036133;
1199838;-0.097656;0.017578;1.038086;
1199978;-0.096680;0.019531;1.032227;
1200123;-0.103516;0.019531;1.032227;
1200253;-0.098633;0.016602;1.041992;
1200384;-0.098633;0.012695;1.038086;
1200523;-0.096680;0.014648;1.044922;
1200663;-0.097656;0.014648;1.049805;
1200803;-0.101562;0.020508;1.041016;
1200948;-0.098633;0.015625;1.043945;
1201083;-0.094727;0.019531;1.066406;
1201224;-0.097656;0.021484;1.076172;
1201363;-0.097656;0.027344;1.075195;
1201503;-0.098633;0.024414;1.093750;
1201643;-0.096680;0.031250;1.102539;
1201798;-0.093750;0.030273;1.128906;
1201938;-0.094727;0.029297;1.139648;
1202078;-0.092773;0.025391;1.163086;
1202218;-0.090820;0.029297;1.193359;
1202368;-0.092773;0.022461;1.199219;
1202508;-0.084961;0.024414;1.219727;
1202648;-0.086914;0.019531;1.250977;
1202788;-0.088867;0.018555;1.270508;
1202928;-0.083008;0.017578;1.291992;
1203078;-0.082031;0.020508;1.324219;
1203218;-0.083984;0.016602;1.369141;
1203358;-0.080078;0.018555;1.399414;
1203498;-0.078125;0.019531;1.426758;
1203638;-0.073242;0.016602;1.460938;
1203773;-0.074219;0.016602;1.488281;
1203913;-0.071289;0.016602;1.501953;
1204058;-0.071289;0.022461;1.512695;
1204207;-0.071289;0.025391;1.528320;
1204343;-0.066406;0.023438;1.539062;
1204488;-0.069336;0.020508;1.534180;
1204613;-0.067383;0.018555;1.534180;
1204743;-0.069336;0.019531;1.525391;
1204885;-0.070312;0.020508;1.540039;
1205034;-0.069336;0.022461;1.525391;
1205183;-0.071289;0.019531;1.515625;
1205328;-0.068359;0.013672;1.511719;
1205468;-0.070312;0.017578;1.513672;
1205608;-0.069336;0.018555;1.510742;
1205748;-0.071289;0.017578;1.500977;
1205888;-0.072266;0.018555;1.501953;
1206028;-0.070312;0.017578;1.500000;
1206178;-0.071289;0.013672;1.491211;
1206318;-0.074219;0.020508;1.487305;
1206468;-0.072266;0.020508;1.476562;
1206608;-0.070312;0.019531;1.465820;
1206748;-0.070312;0.023438;1.461914;
1206898;-0.074219;0.018555;1.452148;
1207038;-0.070312;0.021484;1.452148;
1207178;-0.068359;0.019531;1.449219;
1207303;-0.070312;0.023438;1.435547;
1207448;-0.070312;0.020508;1.435547;
1207583;-0.074219;0.020508;1.416992;
1207723;-0.072266;0.017578;1.410156;
1207858;-0.068359;0.020508;1.397461;
1208003;-0.069336;0.025391;1.393555;
1208135;-0.069336;0.019531;1.369141;
1208283;-0.071289;0.019531;1.361328;
1208413;-0.066406;0.025391;1.345703;
1208563;-0.067383;0.019531;1.344727;
1208703;-0.068359;0.020508;1.314453;
1208843;-0.064453;0.022461;1.276367;
1208988;-0.068359;0.022461;1.249023;
1209128;-0.061523;0.021484;1.223633;
1209278;-0.061523;0.023438;1.200195;
1209418;-0.060547;0.021484;1.172852;
1209558;-0.055664;0.021484;1.161133;
1209698;-0.054688;0.019531;1.145508;
1209838;-0.047852;0.029297;1.137695;
1209978;-0.044922;0.024414;1.118164;
1210118;-0.041016;0.025391;1.100586;
1210258;-0.041016;0.030273;1.120117;
1210398;-0.039062;0.025391;1.111328;
1210538;-0.034180;0.022461;1.121094;
1210678;-0.036133;0.025391;1.101562;
1210818;-0.035156;0.022461;1.098633;
1210953;-0.027344;0.027344;1.099609;
1211083;-0.029297;0.026367;1.091797;
1211224;-0.027344;0.027344;1.065430;
1211353;-0.030273;0.028320;1.059570;
1211503;-0.032227;0.028320;1.037109;
1211633;-0.027344;0.028320;1.022461;
1211784;-0.033203;0.022461;1.005859;
1211935;-0.032227;0.025391;0.993164;
1212173;-0.035156;0.019531;0.968750;
1212338;-0.035156;0.022461;0.940430;
1212488;-0.034180;0.024414;0.932617;
1212628;-0.034180;0.019531;0.910156;
1212768;-0.036133;0.025391;0.907227;
1212908;-0.035156;0.030273;0.890625;
1213048;-0.039062;0.028320;0.887695;
1213188;-0.038086;0.025391;0.875000;
1213328;-0.034180;0.027344;0.878906;
1213468;-0.038086;0.030273;0.885742;
1213608;-0.037109;0.022461;0.900391;
1213748;-0.033203;0.023438;0.909180;
1213898;-0.035156;0.024414;0.926758;
1214038;-0.036133;0.021484;0.929688;
1214178;-0.036133;0.019531;0.943359;
1214313;-0.035156;0.020508;0.957031;
1214455;-0.031250;0.019531;0.971680;
1214603;-0.033203;0.022461;0.974609;
1214743;-0.035156;0.024414;0.987305;
1214893;-0.035156;0.018555;0.979492;
1215043;-0.031250;0.022461;0.998047;
1215183;-0.034180;0.025391;1.010742;
1215314;-0.032227;0.022461;1.001953;
1215454;-0.029297;0.021484;1.010742;
1215588;-0.029297;0.015625;1.007812;
1215728;-0.030273;0.018555;1.010742;
1215868;-0.029297;0.022461;1.012695;
1216008;-0.022461;0.019531;1.008789;
1216158;-0.020508;0.029297;1.011719;
1216298;-0.015625;0.027344;1.008789;
1216438;-0.006836;0.025391;1.003906;
1216588;-0.006836;0.024414;1.007812;
1216728;-0.002930;0.029297;1.016602;
1216868;-0.006836;0.021484;1.010742;
1217008;-0.008789;0.020508;1.015625;
1217148;-0.004883;0.017578;1.025391;
1217288;-0.013672;0.019531;1.007812;
1217428;-0.012695;0.014648;0.999023;
1217564;-0.011719;0.020508;0.996094;
1217713;-0.016602;0.020508;0.977539;
1217843;-0.014648;0.017578;0.983398;
1217983;-0.014648;0.025391;0.953125;
1218138;-0.016602;0.015625;0.944336;
1218275;-0.015625;0.013672;0.923828;
1218418;-0.012695;0.021484;0.921875;
1218558;-0.017578;0.024414;0.917969;
1218693;-0.016602;0.020508;0.912109;
1218823;-0.014648;0.027344;0.926758;
1218953;-0.018555;0.026367;0.931641;
1219103;-0.014648;0.020508;0.940430;
1219254;-0.014648;0.020508;0.945312;
1219394;-0.015625;0.028320;0.952148;
1219546;-0.015625;0.026367;0.964844;
1219698;-0.014648;0.023438;0.963867;
1219838;-0.012695;0.025391;0.980469;
1219978;-0.013672;0.023438;0.995117;
1220118;-0.014648;0.020508;0.993164;
1220258;-0.013672;0.021484;0.999023;
1220408;-0.013672;0.021484;1.004883;
1220548;-0.012695;0.024414;1.017578;
1220688;-0.012695;0.025391;1.036133;
1220828;-0.011719;0.020508;1.055664;
1220968;-0.010742;0.019531;1.075195;
1221118;-0.010742;0.021484;1.094727;
1221258;-0.008789;0.024414;1.103516;
1221398;-0.006836;0.019531;1.114258;
1221538;-0.008789;0.026367;1.130859;
1221678;-0.011719;0.020508;1.118164;
1221803;-0.008789;0.020508;1.129883;
1221953;-0.007812;0.023438;1.117188;
1222094;-0.009766;0.022461;1.113281;
1222244;-0.009766;0.020508;1.107422;
1222393;-0.009766;0.023438;1.090820;
1222533;-0.008789;0.022461;1.084961;
1222683;-0.006836;0.016602;1.076172;
1222828;-0.010742;0.020508;1.065430;
1222953;-0.009766;0.021484;1.052734;
1223083;-0.009766;0.016602;1.043945;
1223223;-0.010742;0.018555;1.041016;
1223368;-0.012695;0.020508;1.023438;
1223508;-0.011719;0.022461;1.030273;
1223648;-0.011719;0.017578;1.030273;
1223788;-0.012695;0.022461;1.024414;
1223928;-0.012695;0.023438;1.024414;
1224078;-0.011719;0.025391;1.020508;
1224218;-0.011719;0.024414;1.014648;
1224358;-0.012695;0.030273;1.021484;
1224508;-0.012695;0.025391;1.025391;
1224648;-0.013672;0.029297;1.007812;
1224788;-0.011719;0.025391;1.011719;
1224928;-0.014648;0.027344;1.012695;
1225068;-0.011719;0.025391;1.014648;
1225208;-0.011719;0.024414;1.013672;
1225343;-0.009766;0.025391;1.019531;
1225493;-0.010742;0.019531;1.021484;
1225633;-0.011719;0.020508;1.021484;
1225773;-0.012695;0.016602;1.009766;
1225903;-0.011719;0.020508;1.018555;
1226053;-0.011719;0.018555;1.017578;
1226194;-0.012695;0.024414;1.027344;
1226333;-0.014648;0.023438;1.019531;
1226468;-0.014648;0.017578;1.016602;
1226593;-0.010742;0.025391;1.025391;
1226733;-0.010742;0.024414;1.033203;
1226878;-0.011719;0.024414;1.029297;
1227018;-0.011719;0.017578;1.023438;
1227158;-0.012695;0.021484;1.014648;
1227298;-0.011719;0.021484;1.009766;
1227438;-0.014648;0.027344;1.016602;
1227578;-0.014648;0.023438;1.020508;
1227728;-0.013672;0.017578;1.023438;
1227868;-0.008789;0.022461;1.033203;
1228008;-0.010742;0.019531;1.030273;
1228148;-0.009766;0.019531;1.032227;
1228288;-0.011719;0.022461;1.028320;
1228438;-0.014648;0.021484;1.026367;
1228578;-0.013672;0.020508;1.039062;
1228718;-0.011719;0.019531;1.035156;
1228854;-0.015625;0.018555;1.017578;
1229004;-0.013672;0.023438;1.024414;
1229143;-0.013672;0.016602;1.037109;
1229273;-0.007812;0.021484;1.042969;
1229404;-0.009766;0.020508;1.037109;
1229543;-0.012695;0.021484;1.025391;
1229683;-0.010742;0.023438;1.033203;
1229823;-0.014648;0.021484;1.020508;
1229973;-0.012695;0.021484;1.025391;
1230113;-0.014648;0.019531;1.023438;
1230268;-0.013672;0.016602;1.037109;
1230408;-0.014648;0.025391;1.032227;
1230548;-0.013672;0.026367;1.043945;
1230688;-0.015625;0.024414;1.041992;
1230828;-0.010742;0.021484;1.047852;
1230968;-0.012695;0.020508;1.049805;
1231108;-0.012695;0.022461;1.048828;
1231248;-0.010742;0.021484;1.054688;
1231388;-0.007812;0.022461;1.065430;
1231528;-0.016602;0.025391;1.048828;
1231668;-0.013672;0.022461;1.053711;
1231808;-0.011719;0.022461;1.054688;
1231948;-0.010742;0.022461;1.052734;
1232088;-0.011719;0.022461;1.059570;
1232228;-0.011719;0.023438;1.065430;
1232353;-0.010742;0.025391;1.083984;
1232503;-0.010742;0.020508;1.091797;
1232654;-0.010742;0.017578;1.081055;
1232793;-0.007812;0.024414;1.107422;
1232943;-0.009766;0.022461;1.114258;
1233093;-0.009766;0.026367;1.127930;
1233243;-0.009766;0.027344;1.127930;
1233393;-0.009766;0.025391;1.134766;
1233533;-0.010742;0.021484;1.131836;
1233688;-0.007812;0.029297;1.143555;
1233828;-0.008789;0.025391;1.142578;
1233968;-0.007812;0.027344;1.148438;
1234108;-0.005859;0.023438;1.151367;
1234248;-0.008789;0.024414;1.147461;
1234388;-0.005859;0.020508;1.143555;
1234528;-0.005859;0.022461;1.141602;
1234668;-0.008789;0.024414;1.140625;
1234808;-0.007812;0.020508;1.135742;
1234958;-0.008789;0.025391;1.130859;
1235098;-0.006836;0.024414;1.125000;
1235248;-0.008789;0.022461;1.121094;
1235388;-0.006836;0.023438;1.120117;
1235528;-0.010742;0.024414;1.120117;
1235673;-0.007812;0.021484;1.111328;
1235813;-0.010742;0.023438;1.098633;
1235963;-0.009766;0.027344;1.083008;
1236104;-0.006836;0.029297;1.072266;
1236234;-0.010742;0.026367;1.050781;
1236385;-0.013672;0.029297;1.024414;
1236523;-0.013672;0.024414;1.016602;
1236673;-0.017578;0.028320;1.000977;
1236823;-0.012695;0.027344;0.990234;
1236968;-0.015625;0.027344;0.976562;
1237108;-0.017578;0.023438;0.965820;
1237248;-0.016602;0.031250;0.969727;
1237388;-0.018555;0.022461;0.966797;
1237528;-0.013672;0.022461;0.962891;
1237668;-0.014648;0.029297;0.967773;
1237808;-0.016602;0.026367;0.968750;
1237948;-0.016602;0.023438;0.969727;
1238088;-0.011719;0.023438;0.980469;
1238228;-0.015625;0.019531;0.987305;
1238368;-0.011719;0.025391;1.006836;
1238508;-0.011719;0.024414;1.013672;
1238658;-0.014648;0.028320;1.023438;
1238798;-0.009766;0.023438;1.026367;
1238938;-0.013672;0.027344;1.026367;
1239073;-0.013672;0.023438;1.019531;
1239203;-0.016602;0.025391;1.020508;
1239354;-0.013672;0.024414;1.025391;
1239503;-0.011719;0.023438;1.022461;
1239654;-0.015625;0.022461;1.011719;
1239804;-0.010742;0.024414;1.008789;
1239943;-0.012695;0.027344;1.000977;
1240073;-0.014648;0.027344;1.011719;
1240216;-0.011719;0.027344;1.001953;
1240368;-0.015625;0.025391;0.999023;
1240508;-0.015625;0.026367;0.992188;
1240648;-0.012695;0.026367;1.000977;
1240773;-0.013672;0.028320;0.997070;
1240918;-0.015625;0.022461;0.992188;
1241064;-0.013672;0.025391;1.002930;
1241213;-0.012695;0.025391;1.014648;
1241368;-0.010742;0.025391;1.015625;
1241508;-0.011719;0.028320;1.029297;
1241648;-0.012695;0.028320;1.028320;
1241788;-0.013672;0.027344;1.030273;
1241928;-0.012695;0.030273;1.031250;
1242078;-0.014648;0.028320;1.036133;
1242228;-0.009766;0.023438;1.039062;
1242368;-0.013672;0.028320;1.037109;
1242508;-0.011719;0.028320;1.029297;
1242648;-0.011719;0.021484;1.025391;
1242788;-0.011719;0.025391;1.011719;
1242928;-0.013672;0.025391;1.026367;
1243078;-0.011719;0.028320;1.021484;
1243218;-0.014648;0.023438;1.021484;
1243353;-0.011719;0.027344;1.032227;
1243503;-0.011719;0.022461;1.039062;
1243643;-0.010742;0.020508;1.042969;
1243793;-0.012695;0.021484;1.057617;
1243944;-0.010742;0.022461;1.084961;
1244093;-0.005859;0.023438;1.078125;
1244223;-0.010742;0.023438;1.082031;
1244378;-0.010742;0.023438;1.082031;
1244503;-0.012695;0.023438;1.087891;
1244653;-0.008789;0.026367;1.102539;
1244783;-0.012695;0.023438;1.099609;
1244938;-0.011719;0.017578;1.102539;
1245078;-0.008789;0.021484;1.095703;
1245218;-0.010742;0.023438;1.104492;
1245358;-0.009766;0.026367;1.111328;
1245498;-0.005859;0.028320;1.132812;
1245638;-0.006836;0.030273;1.125977;
1245778;-0.007812;0.028320;1.125000;
1245918;-0.006836;0.027344;1.128906;
1246058;-0.007812;0.023438;1.128906;
1246198;-0.006836;0.026367;1.120117;
1246338;-0.006836;0.024414;1.126953;
1246478;-0.007812;0.030273;1.115234;
1246618;-0.003906;0.028320;1.124023;
1246758;-0.007812;0.026367;1.126953;
1246893;-0.008789;0.023438;1.130859;
1247044;-0.003906;0.025391;1.118164;
1247183;-0.007812;0.024414;1.117188;
1247323;-0.009766;0.023438;1.114258;
1247453;-0.010742;0.026367;1.103516;
1247603;-0.010742;0.030273;1.102539;
1247734;-0.008789;0.020508;1.099609;
1247875;-0.006836;0.022461;1.102539;
1248023;-0.008789;0.025391;1.083008;
1248163;-0.008789;0.021484;1.067383;
1248318;-0.012695;0.023438;1.070312;
1248468;-0.009766;0.021484;1.053711;
1248608;-0.008789;0.023438;1.046875;
1248748;-0.011719;0.017578;1.034180;
1248888;-0.013672;0.022461;1.019531;
1249028;-0.011719;0.017578;1.014648;
1249168;-0.014648;0.024414;0.993164;
1249308;-0.011719;0.025391;0.998047;
1249448;-0.017578;0.030273;0.999023;
1249588;-0.013672;0.018555;0.985352;
1249728;-0.013672;0.023438;0.981445;
1249868;-0.013672;0.026367;0.993164;
1250008;-0.012695;0.023438;0.983398;
1250148;-0.012695;0.020508;0.988281;
1250294;-0.014648;0.026367;0.994141;
1250423;-0.013672;0.023438;0.987305;
1250568;-0.010742;0.029297;1.010742;
1250698;-0.012695;0.029297;1.012695;
1250834;-0.011719;0.021484;1.020508;
1250963;-0.011719;0.029297;1.017578;
1251103;-0.008789;0.027344;1.017578;
1251244;-0.013672;0.024414;1.019531;
1251383;-0.009766;0.022461;1.020508;
1251523;-0.016602;0.035156;1.009766;
1251653;-0.012695;0.027344;1.018555;
1251783;-0.012695;0.027344;1.026367;
1251933;-0.009766;0.029297;1.025391;
1252078;-0.012695;0.025391;1.031250;
1252228;-0.011719;0.016602;1.021484;
1252368;-0.009766;0.022461;1.019531;
1252508;-0.012695;0.023438;0.995117;
1252648;-0.008789;0.016602;1.002930;
1252788;-0.014648;0.020508;0.990234;
1252928;-0.013672;0.023438;1.001953;
1253068;-0.013672;0.022461;0.991211;
1253208;-0.013672;0.027344;0.993164;
1253358;-0.014648;0.028320;0.998047;
1253498;-0.013672;0.020508;1.000000;
1253638;-0.013672;0.018555;1.008789;
1253778;-0.008789;0.020508;1.018555;
1253918;-0.014648;0.016602;1.002930;
1254055;-0.008789;0.015625;1.014648;
1254203;-0.011719;0.017578;1.029297;
1254353;-0.010742;0.014648;1.035156;
1254493;-0.012695;0.017578;1.029297;
1254643;-0.010742;0.019531;1.049805;
1254793;-0.014648;0.011719;1.049805;
1254923;-0.010742;0.019531;1.057617;
1255063;-0.009766;0.024414;1.066406;
1255194;-0.007812;0.030273;1.081055;
1255338;-0.006836;0.016602;1.083984;
1255478;-0.005859;0.027344;1.087891;
1255618;-0.011719;0.028320;1.082031;
1255758;-0.006836;0.024414;1.088867;
1255898;-0.010742;0.030273;1.082031;
1256038;-0.009766;0.031250;1.068359;
1256178;-0.009766;0.026367;1.077148;
1256318;-0.007812;0.025391;1.078125;
1256458;-0.011719;0.022461;1.074219;
1256598;-0.007812;0.023438;1.070312;
1256748;-0.010742;0.020508;1.061523;
1256888;-0.008789;0.019531;1.059570;
1257028;-0.007812;0.010742;1.039062;
1257168;-0.009766;0.012695;1.039062;
1257303;-0.005859;0.020508;1.041992;
1257453;-0.011719;0.022461;1.035156;
1257583;-0.012695;0.021484;1.034180;
1257733;-0.010742;0.027344;1.032227;
1257873;-0.007812;0.021484;1.032227;
1258016;-0.010742;0.016602;1.041992;
1258158;-0.013672;0.027344;1.049805;
1258297;-0.010742;0.025391;1.049805;
1258433;-0.008789;0.025391;1.036133;
1258578;-0.009766;0.025391;1.027344;
1258713;-0.010742;0.028320;1.028320;
1258854;-0.008789;0.018555;1.021484;
1259004;-0.010742;0.016602;1.021484;
1259143;-0.011719;0.020508;1.007812;
1259273;-0.013672;0.022461;1.017578;
1259428;-0.014648;0.015625;1.015625;
1259578;-0.014648;0.025391;1.024414;
1259718;-0.011719;0.017578;1.015625;
1259858;-0.009766;0.021484;1.027344;
1259998;-0.012695;0.022461;1.015625;
1260138;-0.010742;0.023438;1.024414;
1260288;-0.011719;0.020508;1.029297;
1260428;-0.015625;0.021484;1.018555;
1260568;-0.013672;0.024414;1.016602;
1260718;-0.012695;0.017578;1.013672;
1260858;-0.015625;0.021484;1.017578;
1260998;-0.012695;0.025391;1.026367;
1261148;-0.014648;0.023438;1.030273;
1261288;-0.012695;0.028320;1.032227;
1261423;-0.009766;0.020508;1.035156;
1261553;-0.013672;0.009766;1.028320;
1261688;-0.010742;0.017578;1.035156;
1261828;-0.012695;0.019531;1.045898;
1261953;-0.010742;0.016602;1.036133;
1262103;-0.010742;0.016602;1.027344;
1262243;-0.013672;0.024414;1.025391;
1262383;-0.011719;0.021484;1.027344;
1262523;-0.010742;0.021484;1.036133;
1262668;-0.010742;0.019531;1.008789;
1262803;-0.009766;0.016602;1.027344;
1262944;-0.014648;0.020508;1.015625;
1263078;-0.009766;0.030273;1.023438;
1263218;-0.012695;0.018555;1.009766;
1263353;-0.013672;0.021484;1.008789;
1263483;-0.013672;0.018555;1.003906;
1263624;-0.012695;0.024414;0.991211;
1263763;-0.011719;0.016602;1.008789;
1263908;-0.013672;0.024414;1.003906;
1264048;-0.007812;0.022461;1.002930;
1264188;-0.011719;0.020508;0.998047;
1264338;-0.006836;0.022461;1.017578;
1264478;-0.015625;0.022461;0.990234;
1264618;-0.014648;0.029297;0.987305;
1264758;-0.011719;0.013672;1.000000;
1264898;-0.013672;0.021484;1.001953;
1265038;-0.012695;0.015625;0.992188;
1265178;-0.010742;0.021484;1.004883;
1265318;-0.009766;0.020508;1.008789;
1265458;-0.013672;0.018555;0.997070;
1265608;-0.009766;0.024414;1.015625;
1265748;-0.010742;0.023438;1.002930;
1265883;-0.015625;0.019531;1.006836;
1266023;-0.009766;0.014648;1.012695;
1266156;-0.012695;0.009766;1.018555;
1266288;-0.012695;0.017578;1.024414;
1266423;-0.009766;0.022461;1.043945;
1266563;-0.008789;0.021484;1.053711;
1266703;-0.008789;0.023438;1.054688;
1266843;-0.010742;0.023438;1.072266;
1266983;-0.008789;0.020508;1.072266;
1267133;-0.010742;0.026367;1.065430;
1267284;-0.009766;0.026367;1.080078;
1267433;-0.011719;0.022461;1.068359;
1267578;-0.010742;0.026367;1.068359;
1267718;-0.012695;0.017578;1.074219;
1267858;-0.007812;0.017578;1.081055;
1267998;-0.008789;0.021484;1.078125;
1268148;-0.011719;0.022461;1.089844;
1268288;-0.010742;0.020508;1.074219;
1268428;-0.004883;0.013672;1.064453;
1268568;-0.009766;0.014648;1.056641;
1268708;-0.008789;0.015625;1.041992;
1268848;-0.009766;0.018555;1.043945;
1268988;-0.005859;0.020508;1.050781;
1269128;-0.013672;0.020508;1.021484;
1269268;-0.010742;0.019531;1.030273;
1269408;-0.011719;0.027344;1.040039;
1269543;-0.006836;0.026367;1.042969;
1269683;-0.006836;0.026367;1.045898;
1269833;-0.007812;0.020508;1.039062;
1269983;-0.007812;0.023438;1.047852;
1270133;-0.010742;0.021484;1.035156;
1270273;-0.007812;0.018555;1.035156;
1270418;-0.009766;0.022461;1.017578;
1270543;-0.008789;0.016602;1.018555;
1270673;-0.013672;0.016602;1.006836;
1270823;-0.012695;0.015625;1.003906;
1270973;-0.014648;0.014648;1.002930;
1271118;-0.013672;0.012695;1.000977;
1271258;-0.009766;0.017578;1.012695;
1271398;-0.010742;0.018555;1.015625;
1271538;-0.009766;0.023438;1.014648;
1271678;-0.009766;0.019531;1.029297;
1271818;-0.012695;0.025391;1.026367;
1271958;-0.011719;0.023438;1.034180;
1272098;-0.010742;0.029297;1.035156;
1272238;-0.007812;0.027344;1.048828;
1272378;-0.008789;0.019531;1.042969;
1272518;-0.008789;0.017578;1.031250;
1272658;-0.007812;0.026367;1.032227;
1272808;-0.011719;0.019531;1.026367;
1272948;-0.008789;0.016602;1.041992;
1273083;-0.009766;0.012695;1.036133;
1273233;-0.010742;0.018555;1.036133;
1273373;-0.005859;0.014648;1.031250;
1273524;-0.008789;0.017578;1.027344;
1273663;-0.012695;0.022461;1.032227;
1273793;-0.009766;0.025391;1.024414;
1273935;-0.013672;0.026367;1.031250;
1274084;-0.011719;0.022461;1.041992;
1274233;-0.011719;0.020508;1.036133;
1274378;-0.010742;0.025391;1.032227;
1274518;-0.010742;0.020508;1.043945;
1274658;-0.007812;0.019531;1.044922;
1274798;-0.010742;0.022461;1.042969;
1274938;-0.003906;0.022461;1.035156;
1275078;-0.009766;0.018555;1.035156;
1275218;-0.011719;0.018555;1.031250;
1275358;-0.007812;0.017578;1.029297;
1275498;-0.010742;0.020508;1.019531;
1275638;-0.010742;0.021484;1.013672;
1275778;-0.010742;0.024414;1.031250;
1275918;-0.011719;0.023438;1.031250;
1276058;-0.009766;0.021484;1.026367;
1276198;-0.008789;0.019531;1.032227;
1276338;-0.010742;0.020508;1.023438;
1276463;-0.008789;0.024414;1.026367;
1276603;-0.009766;0.022461;1.027344;
1276733;-0.011719;0.023438;1.030273;
1276874;-0.008789;0.021484;1.028320;
1277023;-0.010742;0.019531;1.022461;
1277173;-0.010742;0.022461;1.038086;
1277303;-0.012695;0.020508;1.033203;
1277443;-0.010742;0.021484;1.033203;
1277583;-0.010742;0.019531;1.018555;
1277718;-0.007812;0.020508;1.021484;
1277858;-0.009766;0.020508;1.021484;
1277998;-0.009766;0.023438;1.030273;
1278138;-0.012695;0.016602;1.016602;
1278278;-0.008789;0.024414;1.015625;
1278418;-0.012695;0.017578;1.015625;
1278558;-0.012695;0.022461;1.029297;
1278698;-0.008789;0.020508;1.025391;
1278838;-0.007812;0.016602;1.023438;
1278978;-0.009766;0.018555;1.029297;
1279118;-0.009766;0.018555;1.008789;
1279258;-0.009766;0.015625;1.010742;
1279408;-0.009766;0.022461;1.013672;
1279548;-0.013672;0.019531;1.014648;
1279684;-0.008789;0.023438;1.015625;
1279833;-0.010742;0.018555;1.011719;
1279974;-0.008789;0.021484;1.012695;
1280126;-0.013672;0.019531;1.007812;
1280273;-0.011719;0.025391;1.015625;
1280403;-0.011719;0.022461;1.015625;
1280544;-0.009766;0.018555;1.014648;
1280675;-0.008789;0.013672;1.019531;
1280818;-0.010742;0.017578;1.027344;
1280958;-0.012695;0.010742;1.017578;
1281083;-0.009766;0.021484;1.005859;
1281223;-0.007812;0.023438;1.031250;
1281363;-0.011719;0.025391;1.029297;
1281508;-0.010742;0.019531;1.022461;
1281648;-0.007812;0.022461;1.031250;
1281798;-0.009766;0.018555;1.029297;
1281948;-0.009766;0.022461;1.034180;
1282088;-0.009766;0.016602;1.041016;
1282228;-0.008789;0.021484;1.041016;
1282378;-0.012695;0.016602;1.029297;
1282518;-0.010742;0.025391;1.038086;
1282658;-0.010742;0.015625;1.038086;
1282798;-0.007812;0.020508;1.039062;
1282938;-0.010742;0.012695;1.045898;
1283078;-0.006836;0.017578;1.058594;
1283218;-0.008789;0.019531;1.072266;
1283358;-0.006836;0.017578;1.057617;
1283493;-0.008789;0.025391;1.054688;
1283624;-0.009766;0.023438;1.054688;
1283773;-0.011719;0.021484;1.056641;
1283914;-0.008789;0.019531;1.047852;
1284053;-0.008789;0.022461;1.051758;
1284203;-0.010742;0.016602;1.039062;
1284334;-0.010742;0.021484;1.031250;
1284473;-0.013672;0.020508;1.031250;
1284603;-0.004883;0.021484;1.040039;
1284743;-0.009766;0.019531;1.024414;
1284888;-0.007812;0.026367;1.025391;
1285038;-0.010742;0.013672;1.022461;
1285178;-0.009766;0.020508;1.014648;
1285318;-0.012695;0.020508;1.006836;
1285458;-0.013672;0.017578;1.005859;
1285598;-0.014648;0.010742;0.996094;
1285738;-0.014648;0.020508;0.991211;
1285878;-0.009766;0.019531;1.010742;
1286018;-0.011719;0.021484;1.000000;
1286158;-0.012695;0.024414;1.005859;
1286298;-0.014648;0.025391;1.001953;
1286448;-0.007812;0.027344;1.013672;
1286588;-0.012695;0.020508;0.985352;
1286728;-0.011719;0.020508;1.003906;
1286863;-0.009766;0.024414;1.012695;
1287003;-0.010742;0.019531;1.009766;
1287153;-0.009766;0.023438;1.029297;
1287283;-0.005859;0.016602;1.027344;
1287433;-0.003906;0.023438;1.023438;
1287578;0.004883;0.019531;1.028320;
1287713;0.009766;0.021484;1.034180;
1287853;0.018555;0.020508;1.038086;
1287993;0.029297;0.026367;1.048828;
1288143;0.037109;0.018555;1.047852;
1288274;0.043945;0.023438;1.058594;
1288428;0.056641;0.018555;1.068359;
1288578;0.060547;0.021484;1.083008;
1288718;0.067383;0.018555;1.084961;
1288858;0.079102;0.015625;1.101562;
1288998;0.083984;0.019531;1.106445;
1289138;0.088867;0.023438;1.128906;
1289278;0.095703;0.021484;1.110352;
1289418;0.096680;0.016602;1.102539;
1289558;0.096680;0.016602;1.095703;
1289708;0.102539;0.020508;1.093750;
1289848;0.103516;0.022461;1.057617;
1289988;0.105469;0.022461;1.020508;
1290128;0.098633;0.027344;1.001953;
1290268;0.094727;0.028320;0.970703;
1290403;0.098633;0.027344;0.965820;
1290543;0.090820;0.023438;0.933594;
1290693;0.091797;0.025391;0.916016;
1290843;0.095703;0.020508;0.907227;
1290984;0.094727;0.021484;0.904297;
1291133;0.089844;0.019531;0.932617;
1291273;0.091797;0.028320;0.933594;
1291403;0.096680;0.021484;0.937500;
1291538;0.093750;0.020508;0.952148;
1291674;0.097656;0.018555;0.986328;
1291813;0.099609;0.018555;1.003906;
1291963;0.101562;0.018555;1.024414;
1292108;0.103516;0.023438;1.039062;
1292248;0.099609;0.017578;1.039062;
1292388;0.100586;0.015625;1.043945;
1292528;0.103516;0.020508;1.050781;
1292668;0.096680;0.026367;1.030273;
1292808;0.099609;0.026367;1.025391;
1292948;0.098633;0.026367;1.018555;
1293088;0.097656;0.022461;1.011719;
1293228;0.095703;0.023438;1.021484;
1293368;0.097656;0.016602;1.043945;
1293508;0.097656;0.023438;1.057617;
1293648;0.096680;0.015625;1.063477;
1293798;0.096680;0.025391;1.083984;
1293938;0.095703;0.020508;1.089844;
1294073;0.098633;0.021484;1.099609;
1294223;0.097656;0.016602;1.094727;
1294354;0.100586;0.017578;1.108398;
1294503;0.098633;0.017578;1.111328;
1294633;0.098633;0.011719;1.100586;
1294788;0.093750;0.019531;1.099609;
1294923;0.100586;0.018555;1.122070;
1295053;0.098633;0.024414;1.133789;
1295194;0.096680;0.017578;1.112305;
1295344;0.098633;0.021484;1.122070;
1295493;0.093750;0.015625;1.087891;
1295623;0.094727;0.020508;1.079102;
1295778;0.092773;0.015625;1.066406;
1295918;0.093750;0.020508;1.056641;
1296058;0.090820;0.020508;1.046875;
1296208;0.091797;0.023438;1.047852;
1296348;0.091797;0.019531;1.036133;
1296488;0.094727;0.019531;1.021484;
1296628;0.094727;0.026367;1.016602;
1296768;0.088867;0.016602;0.997070;
1296908;0.090820;0.021484;1.002930;
1297058;0.086914;0.018555;1.007812;
1297198;0.087891;0.022461;1.009766;
1297338;0.090820;0.011719;1.008789;
1297488;0.089844;0.022461;1.011719;
1297628;0.088867;0.024414;1.013672;
1297764;0.086914;0.021484;1.009766;
1297903;0.091797;0.023438;1.026367;
1298043;0.088867;0.018555;1.041016;
1298183;0.091797;0.017578;1.057617;
1298335;0.089844;0.020508;1.061523;
1298483;0.092773;0.023438;1.081055;
1298623;0.092773;0.021484;1.085938;
1298773;0.090820;0.025391;1.073242;
1298928;0.088867;0.024414;1.070312;
1299068;0.083008;0.016602;1.056641;
1299208;0.089844;0.020508;1.065430;
1299348;0.089844;0.029297;1.072266;
1299488;0.090820;0.025391;1.082031;
1299628;0.088867;0.021484;1.062500;
1299768;0.090820;0.035156;1.058594;
1299908;0.090820;0.021484;1.052734;
1300048;0.085938;0.021484;1.054688;
1300188;0.086914;0.017578;1.062500;
1300328;0.087891;0.018555;1.061523;
1300468;0.088867;0.019531;1.048828;
1300608;0.087891;0.024414;1.030273;
1300748;0.091797;0.023438;1.023438;
1300888;0.083008;0.017578;1.001953;
1301024;0.083008;0.018555;1.015625;
1301165;0.087891;0.022461;1.011719;
1301313;0.086914;0.018555;1.016602;
1301463;0.083984;0.017578;0.986328;
1301603;0.085938;0.024414;0.979492;
1301754;0.081055;0.028320;0.970703;
1301903;0.079102;0.024414;0.955078;
1302058;0.080078;0.024414;0.991211;
1302198;0.083984;0.015625;0.996094;
1302338;0.087891;0.023438;1.026367;
1302473;0.087891;0.028320;1.041992;
1302613;0.082031;0.028320;1.030273;
1302758;0.083984;0.018555;1.038086;
1302908;0.082031;0.020508;1.046875;
1303058;0.084961;0.020508;1.054688;
1303193;0.085938;0.012695;1.069336;
1303323;0.086914;0.020508;1.062500;
1303463;0.087891;0.025391;1.065430;
1303618;0.084961;0.012695;1.061523;
1303758;0.083984;0.015625;1.066406;
1303898;0.086914;0.017578;1.059570;
1304038;0.085938;0.015625;1.069336;
1304178;0.083984;0.016602;1.064453;
1304318;0.084961;0.022461;1.030273;
1304458;0.080078;0.025391;1.027344;
1304598;0.082031;0.018555;1.055664;
1304738;0.079102;0.027344;1.056641;
1304888;0.077148;0.021484;1.067383;
1305028;0.081055;0.021484;1.095703;
1305168;0.085938;0.021484;1.169922;
1305308;0.084961;0.014648;1.201172;
1305448;0.091797;0.008789;1.320312;
1305583;0.093750;0.017578;1.401367;
1305713;0.097656;0.018555;1.448242;
1305853;0.103516;0.017578;1.532227;
1306003;0.107422;0.012695;1.589844;
1306143;0.106445;0.009766;1.653320;
1306288;0.117188;0.010742;1.712891;
1306433;0.117188;0.007812;1.745117;
1306563;0.115234;0.018555;1.758789;
1306698;0.119141;0.014648;1.778320;
1306838;0.117188;0.010742;1.788086;
1306973;0.119141;0.011719;1.799805;
1307113;0.122070;0.013672;1.804688;
1307264;0.121094;0.013672;1.798828;
1307408;0.118164;0.009766;1.794922;
1307548;0.123047;0.007812;1.820312;
1307688;0.114258;0.017578;1.825195;
1307828;0.122070;0.017578;1.837891;
1307968;0.123047;0.011719;1.842773;
1308108;0.121094;0.014648;1.831055;
1308258;0.121094;0.002930;1.844727;
1308398;0.125000;0.012695;1.855469;
1308538;0.123047;0.016602;1.875977;
1308678;0.122070;0.020508;1.871094;
1308818;0.123047;0.017578;1.871094;
1308958;0.125977;0.010742;1.894531;
1309098;0.126953;0.015625;1.888672;
1309248;0.128906;0.008789;1.900391;
1309373;0.126953;0.012695;1.895508;
1309518;0.125977;0.005859;1.889648;
1309653;0.127930;0.016602;1.899414;
1309803;0.131836;0.006836;1.894531;
1309938;0.128906;0.010742;1.898438;
1310068;0.125000;0.014648;1.893555;
1310204;0.125000;0.020508;1.894531;
1310343;0.124023;0.010742;1.884766;
1310483;0.125977;0.015625;1.878906;
1310623;0.123047;0.007812;1.870117;
1310774;0.125977;0.013672;1.862305;
1310924;0.125977;0.015625;1.860352;
1311068;0.128906;0.011719;1.851562;
1311208;0.124023;0.002930;1.837891;
1311358;0.121094;0.006836;1.843750;
1311498;0.127930;0.003906;1.841797;
1311638;0.125977;0.004883;1.861328;
1311788;0.126953;0.011719;1.857422;
1311928;0.126953;0.002930;1.873047;
1312068;0.130859;0.000000;1.850586;
1312208;0.129883;0.004883;1.859375;
1312348;0.126953;-0.000977;1.860352;
1312488;0.128906;0.005859;1.858398;
1312628;0.126953;0.011719;1.846680;
1312768;0.125977;0.014648;1.835938;
1312908;0.127930;0.016602;1.810547;
1313048;0.125977;0.016602;1.803711;
1313183;0.129883;0.026367;1.824219;
1313314;0.130859;0.019531;1.810547;
1313463;0.130859;0.016602;1.797852;
1313603;0.131836;0.017578;1.812500;
1313753;0.133789;0.012695;1.814453;
1313903;0.130859;0.018555;1.810547;
1314053;0.139648;0.013672;1.822266;
1314188;0.134766;0.004883;1.803711;
1314334;0.141602;0.010742;1.846680;
1314468;0.145508;0.012695;1.861328;
1314603;0.143555;0.012695;1.874023;
1314743;0.142578;0.006836;1.875000;
1314888;0.147461;0.004883;1.864258;
1315028;0.149414;0.003906;1.888672;
1315168;0.148438;0.000977;1.890625;
1315308;0.152344;0.001953;1.892578;
1315448;0.152344;0.006836;1.915039;
1315588;0.151367;0.003906;1.913086;
1315738;0.152344;0.004883;1.895508;
1315888;0.157227;0.011719;1.907227;
1316028;0.151367;0.017578;1.886719;
1316168;0.153320;0.019531;1.876953;
1316318;0.156250;0.021484;1.875000;
1316458;0.153320;0.019531;1.866211;
1316598;0.156250;0.016602;1.840820;
1316738;0.157227;0.016602;1.831055;
1316883;0.156250;0.014648;1.812500;
1317023;0.155273;0.011719;1.825195;
1317173;0.161133;0.009766;1.842773;
1317326;0.161133;0.008789;1.850586;
1317473;0.162109;0.008789;1.847656;
1317613;0.164062;0.014648;1.867188;
1317748;0.166992;0.010742;1.833984;
1317883;0.166016;0.016602;1.865234;
1318038;0.167969;0.005859;1.877930;
1318173;0.172852;0.006836;1.884766;
1318303;0.171875;0.005859;1.882812;
1318447;0.173828;0.004883;1.874023;
1318598;0.176758;0.004883;1.882812;
1318738;0.173828;0.014648;1.874023;
1318878;0.173828;0.014648;1.858398;
1319018;0.176758;0.011719;1.857422;
1319158;0.174805;0.011719;1.856445;
1319298;0.173828;0.015625;1.843750;
1319438;0.179688;0.008789;1.859375;
1319578;0.175781;0.006836;1.852539;
1319718;0.180664;0.003906;1.856445;
1319858;0.181641;0.003906;1.856445;
1319998;0.189453;0.001953;1.861328;
1320138;0.183594;0.002930;1.869141;
1320278;0.186523;-0.001953;1.887695;
1320418;0.188477;-0.003906;1.879883;
1320553;0.190430;-0.001953;1.869141;
1320703;0.191406;0.005859;1.876953;
1320848;0.190430;0.008789;1.876953;
1320998;0.194336;0.017578;1.898438;
1321128;0.194336;0.012695;1.872070;
1321266;0.191406;0.018555;1.855469;
1321413;0.192383;0.021484;1.834961;
1321553;0.194336;0.029297;1.814453;
1321683;0.192383;0.027344;1.801758;
1321828;0.190430;0.026367;1.794922;
1321973;0.190430;0.022461;1.792969;
1322128;0.190430;0.022461;1.779297;
1322268;0.194336;0.020508;1.809570;
1322408;0.195312;0.016602;1.788086;
1322548;0.198242;0.015625;1.807617;
1322688;0.201172;0.010742;1.792969;
1322828;0.201172;0.007812;1.800781;
1322968;0.204102;0.008789;1.775391;
1323108;0.204102;-0.000977;1.789062;
1323248;0.205078;0.001953;1.764648;
1323388;0.207031;0.008789;1.745117;
1323528;0.207031;0.007812;1.721680;
1323668;0.205078;0.008789;1.715820;
1323808;0.209961;0.007812;1.721680;
1323948;0.208008;0.009766;1.725586;
1324088;0.211914;0.010742;1.723633;
1324223;0.209961;0.014648;1.721680;
1324353;0.209961;0.015625;1.690430;
1324483;0.207031;0.016602;1.696289;
1324623;0.203125;0.014648;1.682617;
1324753;0.197266;0.025391;1.673828;
1324903;0.195312;0.023438;1.653320;
1325053;0.184570;0.021484;1.615234;
1325203;0.173828;0.029297;1.556641;
1325343;0.164062;0.032227;1.527344;
1325485;0.153320;0.029297;1.478516;
1325638;0.138672;0.036133;1.421875;
1325778;0.125977;0.032227;1.355469;
1325918;0.106445;0.031250;1.255859;
1326068;0.088867;0.032227;1.138672;
1326208;0.074219;0.028320;1.049805;
1326348;0.063477;0.025391;0.923828;
1326498;0.051758;0.030273;0.840820;
1326638;0.040039;0.025391;0.721680;
1326778;0.033203;0.030273;0.648438;
1326918;0.026367;0.029297;0.554688;
1327058;0.022461;0.029297;0.464844;
1327208;0.010742;0.031250;0.387695;
1327348;0.009766;0.036133;0.321289;
1327488;0.005859;0.038086;0.268555;
1327623;0.002930;0.037109;0.214844;
1327773;0.001953;0.032227;0.183594;
1327913;0.004883;0.025391;0.154297;
1328043;0.002930;0.025391;0.135742;
1328174;0.007812;0.021484;0.104492;
1328323;0.008789;0.024414;0.079102;
1328453;0.004883;0.024414;0.056641;
1328598;0.005859;0.027344;0.045898;
1328724;0.000977;0.029297;0.041992;
1328864;0.004883;0.030273;0.040039;
1329003;0.002930;0.029297;0.029297;
1329138;-0.000977;0.028320;0.025391;
1329278;0.002930;0.031250;0.029297;
1329418;-0.001953;0.029297;0.029297;
1329558;-0.001953;0.031250;0.035156;
1329698;-0.003906;0.030273;0.031250;
1329838;-0.002930;0.029297;0.040039;
1329978;-0.005859;0.030273;0.039062;
1330128;-0.005859;0.028320;0.040039;
1330278;-0.005859;0.030273;0.035156;
1330418;-0.004883;0.029297;0.041992;
1330558;-0.006836;0.031250;0.043945;
1330708;-0.005859;0.028320;0.043945;
1330848;-0.006836;0.032227;0.048828;
1330988;-0.005859;0.031250;0.058594;
1331123;-0.004883;0.031250;0.054688;
1331278;-0.006836;0.034180;0.044922;
1331423;-0.008789;0.036133;0.050781;
1331553;-0.005859;0.034180;0.047852;
1331688;-0.007812;0.040039;0.040039;
1331823;-0.007812;0.040039;0.031250;
1331953;-0.008789;0.039062;0.030273;
1332093;-0.007812;0.040039;0.025391;
1332243;-0.013672;0.036133;0.023438;
1332393;-0.009766;0.031250;0.035156;
1332543;-0.010742;0.036133;0.023438;
1332698;-0.009766;0.038086;0.017578;
1332838;-0.010742;0.036133;0.020508;
1332978;-0.010742;0.036133;0.014648;
1333118;-0.008789;0.035156;0.017578;
1333258;-0.008789;0.034180;0.024414;
1333398;-0.012695;0.038086;0.012695;
1333538;-0.009766;0.036133;0.012695;
1333688;-0.009766;0.036133;0.014648;
1333828;-0.015625;0.036133;0.024414;
1333968;-0.014648;0.036133;0.021484;
1334108;-0.012695;0.037109;0.025391;
1334248;-0.016602;0.034180;0.014648;
1334388;-0.012695;0.030273;0.018555;
1334528;-0.014648;0.032227;0.021484;
1334663;-0.010742;0.029297;0.027344;
1334793;-0.011719;0.028320;0.028320;
1334933;-0.011719;0.027344;0.032227;
1335083;-0.011719;0.029297;0.023438;
1335213;-0.010742;0.028320;0.030273;
1335363;-0.012695;0.032227;0.033203;
1335503;-0.013672;0.030273;0.029297;
1335643;-0.010742;0.029297;0.031250;
1335778;-0.014648;0.035156;0.030273;
1335918;-0.017578;0.036133;0.033203;
1336054;-0.016602;0.033203;0.028320;
1336193;-0.012695;0.030273;0.037109;
1336328;-0.013672;0.031250;0.041016;
1336468;-0.013672;0.030273;0.037109;
1336608;-0.014648;0.031250;0.032227;
1336748;-0.015625;0.033203;0.033203;
1336888;-0.014648;0.031250;0.036133;
1337028;-0.012695;0.031250;0.033203;
1337168;-0.012695;0.031250;0.028320;
1337318;-0.016602;0.032227;0.027344;
1337458;-0.014648;0.031250;0.027344;
1337598;-0.014648;0.033203;0.029297;
1337748;-0.017578;0.032227;0.020508;
1337888;-0.014648;0.029297;0.020508;
1338038;-0.014648;0.027344;0.025391;
1338178;-0.015625;0.032227;0.018555;
1338314;-0.014648;0.031250;0.017578;
1338463;-0.012695;0.029297;0.020508;
1338603;-0.012695;0.028320;0.012695;
1338733;-0.015625;0.032227;0.008789;
1338877;-0.014648;0.029297;0.015625;
1339023;-0.013672;0.030273;0.011719;
1339163;-0.015625;0.027344;0.007812;
1339303;-0.014648;0.023438;0.009766;
1339453;-0.014648;0.031250;0.007812;
1339598;-0.015625;0.028320;0.010742;
1339738;-0.013672;0.027344;0.008789;
1339878;-0.014648;0.027344;0.010742;
1340018;-0.016602;0.024414;0.011719;
1340158;-0.014648;0.029297;0.003906;
1340293;-0.015625;0.028320;0.001953;
1340438;-0.015625;0.024414;0.007812;
1340588;-0.013672;0.025391;0.004883;
1340728;-0.016602;0.026367;0.005859;
1340868;-0.014648;0.028320;0.005859;
1341018;-0.016602;0.029297;0.002930;
1341158;-0.018555;0.026367;0.006836;
1341298;-0.016602;0.027344;0.009766;
1341448;-0.017578;0.028320;0.008789;
1341583;-0.015625;0.033203;0.000977;
1341723;-0.014648;0.028320;0.009766;
1341853;-0.015625;0.024414;0.006836;
1342003;-0.018555;0.023438;0.008789;
1342154;-0.000977;0.030273;0.076172;
1342284;-0.016602;0.030273;-0.006836;
1342435;-0.017578;0.025391;0.007812;
1342573;-0.016602;0.024414;0.006836;
1342714;-0.016602;0.025391;0.000977;
1342855;-0.017578;0.027344;0.006836;
1343008;-0.017578;0.028320;0.004883;
1343148;-0.019531;0.026367;0.006836;
1343288;-0.018555;0.022461;0.011719;
1343428;-0.016602;0.029297;0.003906;
1343563;-0.020508;0.028320;0.007812;
1343718;-0.019531;0.028320;0.013672;
1343858;-0.016602;0.025391;0.013672;
1343998;-0.020508;0.026367;0.008789;
1344133;-0.021484;0.029297;0.012695;
1344278;-0.020508;0.028320;0.011719;
1344418;-0.021484;0.024414;0.009766;
1344558;-0.022461;0.024414;0.016602;
1344694;-0.021484;0.033203;0.014648;
1344838;-0.020508;0.030273;0.015625;
1344973;-0.019531;0.028320;0.025391;
1345105;-0.024414;0.028320;0.010742;
1345253;-0.019531;0.026367;0.013672;
1345393;-0.023438;0.023438;0.010742;
1345523;-0.023438;0.028320;0.017578;
1345653;-0.023438;0.026367;0.015625;
1345803;-0.022461;0.026367;0.011719;
1345953;-0.022461;0.031250;0.015625;
1346093;-0.022461;0.026367;0.016602;
1346233;-0.023438;0.020508;0.019531;
1346383;-0.027344;0.024414;0.010742;
1346533;-0.025391;0.028320;0.014648;
1346688;-0.028320;0.026367;0.011719;
1346828;-0.027344;0.020508;0.012695;
1346968;-0.024414;0.026367;0.017578;
1347104;-0.026367;0.027344;0.019531;
1347258;-0.026367;0.027344;0.024414;
1347408;-0.025391;0.023438;0.031250;
1347548;-0.027344;0.028320;0.030273;
1347683;-0.026367;0.017578;0.044922;
1347828;-0.028320;0.027344;0.022461;
1347968;-0.029297;0.029297;0.023438;
1348108;-0.027344;0.028320;0.016602;
1348248;-0.029297;0.025391;0.018555;
1348388;-0.030273;0.029297;0.012695;
1348528;-0.028320;0.031250;0.008789;
1348665;-0.030273;0.030273;0.007812;
1348795;-0.029297;0.025391;0.009766;
1348933;-0.032227;0.028320;0.007812;
1349063;-0.033203;0.033203;0.005859;
1349203;-0.033203;0.028320;-0.004883;
1349333;-0.037109;0.025391;0.004883;
1349464;-0.033203;0.032227;-0.007812;
1349603;-0.033203;0.027344;0.018555;
1349744;-0.036133;0.025391;0.015625;
1349873;-0.033203;0.022461;0.000000;
1350028;-0.033203;0.023438;0.002930;
1350168;-0.035156;0.020508;0.002930;
1350308;-0.034180;0.018555;0.015625;
1350448;-0.035156;0.026367;0.028320;
1350588;-0.038086;0.026367;0.025391;
1350728;-0.039062;0.027344;0.026367;
1350878;-0.039062;0.027344;0.031250;
1351018;-0.040039;0.036133;0.029297;
1351158;-0.042969;0.039062;0.039062;
1351303;-0.049805;0.033203;0.021484;
1351438;-0.045898;0.028320;0.049805;
1351588;-0.046875;0.031250;0.088867;
1351728;-0.046875;0.034180;0.115234;
1351868;-0.048828;0.026367;0.189453;
1352004;-0.048828;0.027344;0.270508;
1352133;-0.045898;0.030273;0.354492;
1352275;-0.037109;0.030273;0.473633;
1352425;-0.034180;0.029297;0.604492;
1352575;-0.025391;0.032227;0.724609;
1352713;-0.014648;0.031250;0.882812;
1352853;-0.003906;0.036133;0.973633;
1352983;0.005859;0.033203;1.071289;
1353133;0.007812;0.028320;1.164062;
1353288;0.015625;0.022461;1.227539;
1353428;0.020508;0.020508;1.269531;
1353578;0.027344;0.020508;1.320312;
1353713;0.028320;0.025391;1.352539;
1353868;0.030273;0.028320;1.388672;
1354008;0.037109;0.022461;1.419922;
1354148;0.038086;0.021484;1.453125;
1354288;0.040039;0.015625;1.484375;
1354428;0.044922;0.023438;1.497070;
1354568;0.040039;0.018555;1.524414;
1354708;0.040039;0.014648;1.547852;
1354848;0.042969;0.018555;1.574219;
1354988;0.042969;0.018555;1.592773;
1355128;0.041016;0.017578;1.635742;
1355264;0.045898;0.020508;1.671875;
1355393;0.044922;0.025391;1.696289;
1355534;0.047852;0.023438;1.740234;
1355684;0.047852;0.026367;1.767578;
1355833;0.051758;0.032227;1.792969;
1355973;0.052734;0.032227;1.812500;
1356108;0.053711;0.028320;1.831055;
1356253;0.050781;0.027344;1.832031;
1356393;0.049805;0.031250;1.854492;
1356533;0.050781;0.034180;1.870117;
1356663;0.046875;0.029297;1.865234;
1356808;0.047852;0.029297;1.864258;
1356958;0.042969;0.031250;1.866211;
1357098;0.044922;0.035156;1.875000;
1357238;0.039062;0.037109;1.868164;
1357388;0.039062;0.029297;1.874023;
1357528;0.039062;0.033203;1.874023;
1357668;0.039062;0.029297;1.877930;
1357808;0.034180;0.034180;1.878906;
1357948;0.033203;0.030273;1.882812;
1358098;0.032227;0.032227;1.872070;
1358238;0.028320;0.024414;1.858398;
1358378;0.023438;0.020508;1.845703;
1358518;0.023438;0.016602;1.836914;
1358658;0.017578;0.014648;1.819336;
1358803;0.019531;0.011719;1.836914;
1358943;0.018555;0.011719;1.844727;
1359084;0.015625;0.016602;1.861328;
1359223;0.018555;0.018555;1.886719;
1359373;0.020508;0.022461;1.910156;
1359504;0.020508;0.024414;1.936523;
1359654;0.021484;0.030273;1.969727;
1359804;0.024414;0.031250;1.987305;
1359948;0.023438;0.031250;2.006836;
1360088;0.026367;0.035156;2.023438;
1360228;0.027344;0.033203;2.043945;
1360378;0.028320;0.029297;2.058594;
1360518;0.027344;0.031250;2.065430;
1360658;0.028320;0.022461;2.063477;
1360808;0.026367;0.024414;2.068359;
1360948;0.026367;0.017578;2.054688;
1361088;0.023438;0.015625;2.049805;
1361238;0.019531;0.018555;2.036133;
1361378;0.016602;0.018555;2.016602;
1361518;0.014648;0.018555;2.014648;
1361658;0.008789;0.021484;1.986328;
1361798;0.010742;0.020508;1.980469;
1361944;0.006836;0.023438;1.970703;
1362083;0.002930;0.025391;1.961914;
1362213;0.000000;0.024414;1.959961;
1362343;0.001953;0.024414;1.954102;
1362483;-0.001953;0.023438;1.941406;
1362623;-0.001953;0.020508;1.950195;
1362753;-0.004883;0.021484;1.938477;
1362904;-0.005859;0.019531;1.942383;
1363043;-0.004883;0.016602;1.941406;
1363173;-0.007812;0.014648;1.940430;
1363318;-0.005859;0.017578;1.949219;
1363468;-0.007812;0.012695;1.945312;
1363608;-0.007812;0.018555;1.949219;
1363748;-0.008789;0.015625;1.951172;
1363888;-0.011719;0.017578;1.958008;
1364028;-0.012695;0.018555;1.951172;
1364178;-0.010742;0.016602;1.959961;
1364318;-0.012695;0.014648;1.959961;
1364458;-0.013672;0.019531;1.962891;
1364598;-0.012695;0.018555;1.959961;
1364738;-0.014648;0.021484;1.967773;
1364878;-0.015625;0.019531;1.955078;
1365018;-0.016602;0.021484;1.956055;
1365168;-0.014648;0.017578;1.959961;
1365303;-0.020508;0.025391;1.947266;
1365453;-0.021484;0.027344;1.951172;
1365583;-0.021484;0.026367;1.936523;
1365733;-0.022461;0.023438;1.932617;
1365885;-0.025391;0.021484;1.918945;
1366023;-0.026367;0.019531;1.893555;
1366168;-0.025391;0.016602;1.898438;
1366313;-0.026367;0.013672;1.872070;
1366453;-0.030273;0.010742;1.862305;
1366608;-0.031250;0.018555;1.848633;
1366748;-0.035156;0.010742;1.833008;
1366888;-0.036133;0.018555;1.816406;
1367028;-0.039062;0.016602;1.818359;
1367168;-0.037109;0.016602;1.800781;
1367308;-0.041016;0.017578;1.793945;
1367448;-0.039062;0.006836;1.786133;
1367588;-0.040039;0.014648;1.781250;
1367728;-0.042969;0.016602;1.778320;
1367868;-0.041992;0.014648;1.767578;
1368008;-0.043945;0.020508;1.769531;
1368148;-0.046875;0.020508;1.754883;
1368288;-0.046875;0.023438;1.759766;
1368428;-0.047852;0.019531;1.761719;
1368563;-0.046875;0.019531;1.754883;
1368713;-0.044922;0.026367;1.766602;
1368853;-0.045898;0.021484;1.774414;
1368984;-0.048828;0.022461;1.778320;
1369113;-0.044922;0.025391;1.779297;
1369253;-0.045898;0.021484;1.785156;
1369383;-0.046875;0.024414;1.789062;
1369523;-0.044922;0.019531;1.777344;
1369663;-0.046875;0.016602;1.786133;
1369804;-0.045898;0.016602;1.782227;
1369948;-0.046875;0.012695;1.784180;
1370088;-0.046875;0.013672;1.777344;
1370228;-0.044922;0.017578;1.779297;
1370378;-0.043945;0.011719;1.766602;
1370518;-0.044922;0.020508;1.774414;
1370658;-0.045898;0.020508;1.759766;
1370798;-0.046875;0.018555;1.733398;
1370938;-0.050781;0.024414;1.732422;
1371078;-0.051758;0.022461;1.731445;
1371218;-0.048828;0.027344;1.726562;
1371358;-0.053711;0.019531;1.715820;
1371498;-0.049805;0.018555;1.707031;
1371638;-0.051758;0.023438;1.691406;
1371778;-0.052734;0.016602;1.678711;
1371914;-0.049805;0.020508;1.675781;
1372053;-0.050781;0.019531;1.669922;
1372193;-0.050781;0.018555;1.674805;
1372333;-0.050781;0.027344;1.666992;
1372484;-0.054688;0.019531;1.665039;
1372623;-0.048828;0.015625;1.667969;
1372763;-0.046875;0.017578;1.669922;
1372906;-0.045898;0.017578;1.671875;
1373044;-0.045898;0.018555;1.668945;
1373183;-0.045898;0.021484;1.662109;
1373338;-0.041992;0.016602;1.657227;
1373488;-0.041992;0.013672;1.654297;
1373628;-0.042969;0.014648;1.646484;
1373768;-0.038086;0.008789;1.624023;
1373918;-0.036133;0.015625;1.624023;
1374058;-0.039062;0.013672;1.580078;
1374198;-0.040039;0.020508;1.568359;
1374338;-0.035156;0.015625;1.542969;
1374478;-0.036133;0.023438;1.523438;
1374628;-0.033203;0.016602;1.500000;
1374768;-0.026367;0.019531;1.469727;
1374908;-0.027344;0.024414;1.466797;
1375048;-0.019531;0.026367;1.460938;
1375188;-0.019531;0.028320;1.431641;
1375324;-0.014648;0.026367;1.430664;
1375474;-0.003906;0.027344;1.431641;
1375623;0.000977;0.029297;1.418945;
1375763;0.008789;0.028320;1.429688;
1375893;0.014648;0.026367;1.434570;
1376023;0.025391;0.027344;1.428711;
1376153;0.034180;0.029297;1.426758;
1376303;0.037109;0.032227;1.433594;
1376443;0.047852;0.030273;1.438477;
1376593;0.052734;0.025391;1.435547;
1376748;0.052734;0.028320;1.417969;
1376888;0.055664;0.023438;1.424805;
1377028;0.053711;0.023438;1.406250;
1377168;0.052734;0.024414;1.381836;
1377308;0.053711;0.024414;1.349609;
1377448;0.049805;0.023438;1.320312;
1377588;0.048828;0.020508;1.283203;
1377728;0.048828;0.022461;1.259766;
1377868;0.050781;0.021484;1.235352;
1378018;0.053711;0.021484;1.208008;
1378158;0.056641;0.021484;1.185547;
1378298;0.055664;0.023438;1.145508;
1378438;0.059570;0.023438;1.143555;
1378578;0.061523;0.025391;1.134766;
1378713;0.064453;0.022461;1.124023;
1378844;0.063477;0.022461;1.116211;
1378983;0.065430;0.021484;1.120117;
1379113;0.070312;0.025391;1.116211;
1379264;0.073242;0.021484;1.125000;
1379413;0.076172;0.021484;1.147461;
1379563;0.071289;0.021484;1.146484;
1379693;0.078125;0.026367;1.145508;
1379843;0.070312;0.027344;1.163086;
1379988;0.072266;0.020508;1.160156;
1380128;0.072266;0.022461;1.150391;
1380268;0.072266;0.024414;1.161133;
1380408;0.070312;0.019531;1.154297;
1380548;0.073242;0.021484;1.165039;
1380688;0.072266;0.023438;1.178711;
1380838;0.072266;0.019531;1.170898;
1380978;0.073242;0.024414;1.164062;
1381118;0.069336;0.026367;1.175781;
1381258;0.071289;0.025391;1.151367;
1381398;0.070312;0.023438;1.147461;
1381548;0.071289;0.024414;1.149414;
1381688;0.070312;0.022461;1.131836;
1381838;0.072266;0.024414;1.107422;
1381973;0.069336;0.024414;1.107422;
1382113;0.067383;0.020508;1.069336;
1382265;0.067383;0.028320;1.060547;
1382403;0.069336;0.027344;1.042969;
1382553;0.066406;0.024414;1.005859;
1382703;0.065430;0.023438;0.986328;
1382835;0.065430;0.021484;0.973633;
1382963;0.064453;0.018555;0.953125;
1383103;0.064453;0.018555;0.955078;
1383243;0.063477;0.017578;0.946289;
1383398;0.062500;0.015625;0.930664;
1383538;0.060547;0.012695;0.922852;
1383678;0.059570;0.021484;0.922852;
1383818;0.060547;0.020508;0.910156;
1383958;0.060547;0.024414;0.900391;
1384098;0.057617;0.025391;0.908203;
1384248;0.056641;0.031250;0.905273;
1384388;0.060547;0.027344;0.890625;
1384538;0.056641;0.027344;0.894531;
1384678;0.058594;0.025391;0.887695;
1384818;0.060547;0.024414;0.886719;
1384968;0.060547;0.029297;0.896484;
1385108;0.063477;0.028320;0.884766;
1385258;0.057617;0.024414;0.889648;
1385393;0.062500;0.027344;0.897461;
1385524;0.061523;0.033203;0.891602;
1385653;0.059570;0.026367;0.896484;
1385804;0.061523;0.029297;0.902344;
1385943;0.061523;0.031250;0.887695;
1386093;0.065430;0.021484;0.894531;
1386243;0.058594;0.022461;0.898438;
1386393;0.063477;0.024414;0.895508;
1386523;0.066406;0.022461;0.891602;
1386673;0.060547;0.024414;0.900391;
1386818;0.063477;0.023438;0.885742;
1386958;0.061523;0.020508;0.884766;
1387098;0.061523;0.024414;0.888672;
1387238;0.061523;0.025391;0.880859;
1387378;0.060547;0.020508;0.878906;
1387518;0.062500;0.027344;0.882812;
1387658;0.062500;0.025391;0.883789;
1387798;0.061523;0.026367;0.883789;
1387948;0.064453;0.027344;0.903320;
1388088;0.061523;0.022461;0.877930;
1388228;0.064453;0.026367;0.882812;
1388368;0.062500;0.025391;0.882812;
1388508;0.062500;0.023438;0.883789;
1388648;0.061523;0.026367;0.877930;
1388783;0.063477;0.024414;0.887695;
1388933;0.059570;0.024414;0.870117;
1389083;0.063477;0.022461;0.875000;
1389213;0.060547;0.021484;0.871094;
1389356;0.061523;0.024414;0.862305;
1389494;0.063477;0.019531;0.863281;
1389633;0.063477;0.022461;0.863281;
1389773;0.062500;0.018555;0.843750;
1389913;0.063477;0.021484;0.840820;
1390063;0.062500;0.022461;0.837891;
1390218;0.062500;0.021484;0.842773;
1390368;0.059570;0.022461;0.839844;
1390508;0.060547;0.027344;0.838867;
1390648;0.062500;0.026367;0.826172;
1390788;0.060547;0.028320;0.848633;
1390928;0.063477;0.027344;0.839844;
1391068;0.060547;0.026367;0.841797;
1391208;0.062500;0.022461;0.853516;
1391348;0.060547;0.024414;0.846680;
1391488;0.063477;0.022461;0.861328;
1391628;0.064453;0.027344;0.866211;
1391778;0.062500;0.026367;0.856445;
1391918;0.062500;0.025391;0.870117;
1392058;0.063477;0.028320;0.872070;
1392203;0.062500;0.025391;0.858398;
1392344;0.063477;0.025391;0.852539;
1392493;0.062500;0.025391;0.866211;
1392633;0.062500;0.024414;0.846680;
1392778;0.065430;0.023438;0.857422;
1392913;0.062500;0.028320;0.872070;
1393053;0.060547;0.024414;0.843750;
1393183;0.063477;0.023438;0.859375;
1393323;0.059570;0.023438;0.854492;
1393468;0.061523;0.024414;0.849609;
1393608;0.063477;0.025391;0.875977;
1393748;0.059570;0.025391;0.843750;
1393888;0.062500;0.022461;0.842773;
1394038;0.062500;0.026367;0.866211;
1394178;0.059570;0.027344;0.854492;
1394318;0.063477;0.028320;0.846680;
1394458;0.062500;0.026367;0.848633;
1394598;0.059570;0.026367;0.841797;
1394748;0.062500;0.025391;0.847656;
1394888;0.059570;0.028320;0.851562;
1395028;0.059570;0.027344;0.845703;
1395168;0.063477;0.023438;0.840820;
1395308;0.060547;0.026367;0.851562;
1395453;0.061523;0.024414;0.845703;
1395593;0.059570;0.029297;0.836914;
1395733;0.061523;0.031250;0.856445;
1395868;0.060547;0.025391;0.842773;
1396003;0.059570;0.023438;0.850586;
1396143;0.059570;0.027344;0.852539;
1396278;0.061523;0.023438;0.853516;
1396413;0.060547;0.027344;0.847656;
1396553;0.062500;0.025391;0.856445;
1396703;0.061523;0.024414;0.846680;
1396843;0.059570;0.028320;0.837891;
1396983;0.058594;0.026367;0.848633;
1397133;0.056641;0.024414;0.845703;
1397278;0.059570;0.024414;0.845703;
1397418;0.061523;0.021484;0.849609;
1397568;0.059570;0.026367;0.844727;
1397708;0.058594;0.024414;0.846680;
1397858;0.063477;0.023438;0.857422;
1397998;0.059570;0.026367;0.851562;
1398138;0.060547;0.023438;0.861328;
1398278;0.058594;0.020508;0.872070;
1398418;0.059570;0.024414;0.858398;
1398558;0.057617;0.026367;0.866211;
1398698;0.058594;0.026367;0.887695;
1398838;0.061523;0.026367;0.894531;
1398978;0.059570;0.026367;0.908203;
1399128;0.062500;0.025391;0.935547;
1399273;0.062500;0.023438;0.952148;
1399413;0.064453;0.021484;0.972656;
1399563;0.064453;0.027344;0.978516;
1399714;0.063477;0.023438;0.999023;
1399853;0.071289;0.025391;1.012695;
1399993;0.066406;0.024414;1.035156;
1400138;0.068359;0.025391;1.026367;
1400274;0.069336;0.022461;1.047852;
1400408;0.070312;0.024414;1.061523;
1400548;0.068359;0.020508;1.054688;
1400673;0.066406;0.024414;1.059570;
1400813;0.066406;0.025391;1.079102;
1400954;0.069336;0.027344;1.083008;
1401108;0.067383;0.022461;1.073242;
1401248;0.069336;0.022461;1.081055;
1401388;0.069336;0.017578;1.070312;
1401528;0.067383;0.023438;1.078125;
1401668;0.067383;0.023438;1.069336;
1401808;0.066406;0.026367;1.072266;
1401948;0.066406;0.027344;1.063477;
1402088;0.066406;0.025391;1.082031;
1402228;0.067383;0.023438;1.084961;
1402368;0.065430;0.019531;1.091797;
1402508;0.067383;0.027344;1.113281;
1402658;0.067383;0.026367;1.117188;
1402798;0.071289;0.025391;1.141602;
1402938;0.068359;0.021484;1.148438;
1403083;0.071289;0.020508;1.163086;
1403214;0.069336;0.025391;1.153320;
1403343;0.072266;0.022461;1.182617;
1403493;0.072266;0.028320;1.191406;
1403633;0.072266;0.023438;1.186523;
1403773;0.074219;0.027344;1.203125;
1403913;0.070312;0.027344;1.191406;
1404053;0.071289;0.023438;1.190430;
1404204;0.076172;0.026367;1.196289;
1404348;0.073242;0.025391;1.193359;
1404488;0.068359;0.020508;1.190430;
1404628;0.070312;0.019531;1.177734;
1404768;0.073242;0.024414;1.178711;
1404908;0.068359;0.021484;1.161133;
1405048;0.072266;0.028320;1.172852;
1405188;0.072266;0.028320;1.166016;
1405328;0.070312;0.018555;1.161133;
1405468;0.072266;0.025391;1.170898;
1405608;0.067383;0.023438;1.160156;
1405748;0.071289;0.021484;1.164062;
1405888;0.068359;0.024414;1.159180;
1406028;0.071289;0.023438;1.165039;
1406168;0.070312;0.022461;1.153320;
1406313;0.071289;0.024414;1.162109;
1406454;0.069336;0.023438;1.156250;
1406593;0.067383;0.022461;1.154297;
1406734;0.072266;0.021484;1.150391;
1406883;0.068359;0.021484;1.146484;
1407023;0.069336;0.023438;1.139648;
1407163;0.068359;0.019531;1.135742;
1407305;0.070312;0.025391;1.137695;
1407453;0.068359;0.024414;1.130859;
1407608;0.066406;0.024414;1.128906;
1407748;0.065430;0.023438;1.136719;
1407888;0.070312;0.021484;1.137695;
1408028;0.068359;0.027344;1.147461;
1408168;0.072266;0.023438;1.157227;
1408308;0.070312;0.023438;1.145508;
1408448;0.068359;0.027344;1.146484;
1408588;0.069336;0.020508;1.141602;
1408738;0.071289;0.026367;1.160156;
1408878;0.069336;0.023438;1.151367;
1409018;0.072266;0.023438;1.151367;
1409158;0.068359;0.019531;1.144531;
1409298;0.069336;0.022461;1.142578;
1409448;0.068359;0.025391;1.142578;
1409573;0.069336;0.024414;1.144531;
1409713;0.071289;0.024414;1.132812;
1409864;0.071289;0.023438;1.137695;
1410013;0.070312;0.022461;1.130859;
1410153;0.069336;0.026367;1.130859;
1410284;0.069336;0.021484;1.130859;
1410413;0.065430;0.019531;1.111328;
1410563;0.067383;0.024414;1.122070;
1410693;0.067383;0.024414;1.121094;
1410848;0.068359;0.024414;1.115234;
1410988;0.068359;0.022461;1.116211;
1411128;0.067383;0.024414;1.116211;
1411278;0.066406;0.020508;1.107422;
1411418;0.066406;0.026367;1.105469;
1411558;0.066406;0.025391;1.100586;
1411698;0.066406;0.023438;1.093750;
1411838;0.066406;0.022461;1.080078;
1411978;0.064453;0.021484;1.079102;
1412118;0.067383;0.024414;1.069336;
1412258;0.064453;0.021484;1.067383;
1412408;0.064453;0.021484;1.060547;
1412548;0.066406;0.022461;1.052734;
1412688;0.063477;0.021484;1.041016;
1412823;0.063477;0.022461;1.041016;
1412953;0.066406;0.024414;1.044922;
1413095;0.062500;0.025391;1.032227;
1413244;0.063477;0.025391;1.025391;
1413394;0.063477;0.026367;1.027344;
1413543;0.061523;0.019531;1.023438;
1413673;0.062500;0.024414;1.030273;
1413804;0.063477;0.026367;1.022461;
1413954;0.060547;0.024414;1.026367;
1414098;0.062500;0.028320;1.022461;
1414238;0.065430;0.026367;1.029297;
1414388;0.065430;0.024414;1.036133;
1414528;0.062500;0.021484;1.026367;
1414668;0.062500;0.023438;1.025391;
1414818;0.060547;0.024414;1.022461;
1414958;0.062500;0.021484;1.019531;
1415098;0.063477;0.025391;1.024414;
1415238;0.062500;0.021484;1.005859;
1415378;0.064453;0.020508;1.010742;
1415518;0.063477;0.021484;1.012695;
1415658;0.058594;0.021484;0.985352;
1415798;0.060547;0.022461;0.988281;
1415938;0.061523;0.019531;0.992188;
1416073;0.061523;0.023438;0.995117;
1416213;0.060547;0.020508;1.000977;
1416343;0.060547;0.027344;1.009766;
1416493;0.059570;0.026367;1.015625;
1416634;0.061523;0.024414;1.018555;
1416773;0.055664;0.026367;1.025391;
1416908;0.064453;0.023438;1.028320;
1417044;0.059570;0.022461;1.029297;
1417183;0.061523;0.026367;1.051758;
1417323;0.063477;0.026367;1.071289;
1417468;0.063477;0.023438;1.088867;
1417593;0.066406;0.023438;1.115234;
1417728;0.069336;0.020508;1.132812;
1417868;0.067383;0.018555;1.149414;
1418008;0.068359;0.021484;1.170898;
1418148;0.068359;0.018555;1.173828;
1418288;0.071289;0.021484;1.185547;
1418428;0.069336;0.026367;1.179688;
1418568;0.069336;0.022461;1.185547;
1418708;0.071289;0.021484;1.185547;
1418848;0.071289;0.024414;1.193359;
1418988;0.071289;0.019531;1.188477;
1419128;0.072266;0.025391;1.199219;
1419268;0.075195;0.018555;1.207031;
1419408;0.070312;0.020508;1.216797;
1419548;0.075195;0.022461;1.228516;
1419683;0.075195;0.028320;1.247070;
1419833;0.073242;0.023438;1.248047;
1419974;0.077148;0.024414;1.250000;
1420113;0.076172;0.024414;1.255859;
1420253;0.076172;0.022461;1.238281;
1420393;0.075195;0.021484;1.216797;
1420523;0.077148;0.020508;1.214844;
1420653;0.072266;0.020508;1.203125;
1420796;0.073242;0.018555;1.183594;
1420945;0.072266;0.021484;1.165039;
1421098;0.068359;0.023438;1.166992;
1421238;0.068359;0.022461;1.143555;
1421378;0.069336;0.023438;1.137695;
1421518;0.069336;0.025391;1.128906;
1421658;0.066406;0.024414;1.115234;
1421798;0.068359;0.028320;1.104492;
1421938;0.065430;0.023438;1.092773;
1422078;0.061523;0.026367;1.088867;
1422218;0.066406;0.021484;1.077148;
1422368;0.064453;0.026367;1.069336;
1422508;0.066406;0.023438;1.070312;
1422648;0.063477;0.022461;1.059570;
1422788;0.064453;0.026367;1.068359;
1422928;0.070312;0.021484;1.067383;
1423063;0.067383;0.026367;1.063477;
1423208;0.062500;0.020508;1.060547;
1423358;0.064453;0.023438;1.063477;
1423503;0.066406;0.023438;1.063477;
1423643;0.066406;0.025391;1.064453;
1423773;0.065430;0.027344;1.063477;
1423923;0.067383;0.025391;1.063477;
1424063;0.067383;0.028320;1.059570;
1424213;0.065430;0.025391;1.069336;
1424353;0.067383;0.026367;1.064453;
1424493;0.068359;0.026367;1.062500;
1424633;0.065430;0.025391;1.064453;
1424778;0.067383;0.026367;1.068359;
1424918;0.064453;0.026367;1.065430;
1425058;0.067383;0.026367;1.062500;
1425198;0.068359;0.024414;1.065430;
1425338;0.066406;0.021484;1.061523;
1425478;0.071289;0.022461;1.068359;
1425618;0.068359;0.025391;1.068359;
1425758;0.070312;0.027344;1.063477;
1425898;0.071289;0.022461;1.067383;
1426038;0.077148;0.025391;1.062500;
1426178;0.084961;0.023438;1.057617;
1426318;0.088867;0.029297;1.059570;
1426458;0.093750;0.027344;1.066406;
1426598;0.092773;0.027344;1.029297;
1426733;0.096680;0.024414;1.041016;
1426873;0.095703;0.027344;1.024414;
1427023;0.096680;0.026367;1.005859;
1427164;0.095703;0.028320;0.993164;
1427314;0.094727;0.020508;0.961914;
1427463;0.095703;0.020508;0.957031;
1427593;0.089844;0.017578;0.934570;
1427744;0.091797;0.020508;0.926758;
1427878;0.088867;0.018555;0.898438;
1428013;0.087891;0.022461;0.877930;
1428158;0.090820;0.025391;0.871094;
1428298;0.084961;0.026367;0.862305;
1428438;0.083984;0.023438;0.862305;
1428588;0.082031;0.027344;0.869141;
1428728;0.085938;0.022461;0.866211;
1428868;0.084961;0.020508;0.872070;
1429008;0.083984;0.019531;0.878906;
1429148;0.083008;0.026367;0.900391;
1429298;0.085938;0.020508;0.916016;
1429438;0.085938;0.026367;0.910156;
1429578;0.084961;0.028320;0.917969;
1429728;0.085938;0.027344;0.930664;
1429868;0.088867;0.024414;0.955078;
1430008;0.092773;0.025391;0.949219;
1430133;0.094727;0.023438;0.954102;
1430274;0.093750;0.023438;0.935547;
1430404;0.092773;0.024414;0.955078;
1430548;0.089844;0.023438;0.965820;
1430683;0.089844;0.023438;0.955078;
1430824;0.089844;0.023438;0.957031;
1430953;0.090820;0.017578;0.972656;
1431093;0.087891;0.019531;0.971680;
1431243;0.088867;0.024414;0.971680;
1431395;0.089844;0.024414;0.956055;
1431533;0.089844;0.020508;0.952148;
1431683;0.088867;0.021484;0.949219;
1431838;0.089844;0.022461;0.947266;
1431978;0.087891;0.020508;0.958008;
1432118;0.089844;0.022461;0.945312;
1432258;0.086914;0.019531;0.920898;
1432398;0.086914;0.018555;0.933594;
1432538;0.086914;0.020508;0.942383;
1432678;0.084961;0.021484;0.946289;
1432818;0.090820;0.018555;0.911133;
1432958;0.087891;0.026367;0.920898;
1433098;0.083008;0.025391;0.944336;
1433238;0.083984;0.024414;0.934570;
1433378;0.088867;0.022461;0.922852;
1433518;0.085938;0.023438;0.918945;
1433658;0.083984;0.021484;0.937500;
1433793;0.086914;0.025391;0.961914;
1433933;0.090820;0.024414;0.964844;
1434063;0.089844;0.019531;0.977539;
1434213;0.088867;0.022461;0.992188;
1434353;0.089844;0.016602;1.015625;
1434498;0.091797;0.017578;1.020508;
1434643;0.090820;0.016602;1.028320;
1434793;0.092773;0.021484;1.038086;
1434943;0.094727;0.019531;1.042969;
1435088;0.091797;0.019531;1.053711;
1435228;0.093750;0.028320;1.053711;
1435368;0.093750;0.021484;1.033203;
1435508;0.089844;0.026367;1.037109;
1435648;0.091797;0.025391;1.054688;
1435788;0.089844;0.026367;1.068359;
1435928;0.092773;0.021484;1.067383;
1436068;0.095703;0.028320;1.063477;
1436218;0.090820;0.024414;1.068359;
1436358;0.091797;0.026367;1.089844;
1436498;0.091797;0.024414;1.103516;
1436648;0.097656;0.027344;1.111328;
1436788;0.093750;0.020508;1.098633;
1436928;0.095703;0.021484;1.090820;
1437063;0.096680;0.030273;1.120117;
1437193;0.094727;0.027344;1.124023;
1437323;0.095703;0.020508;1.129883;
1437453;0.093750;0.027344;1.138672;
1437604;0.096680;0.021484;1.132812;
1437753;0.099609;0.028320;1.164062;
1437893;0.096680;0.026367;1.136719;
1438033;0.094727;0.024414;1.130859;
1438183;0.092773;0.024414;1.132812;
1438334;0.094727;0.024414;1.139648;
1438478;0.093750;0.025391;1.137695;
1438618;0.096680;0.024414;1.099609;
1438758;0.095703;0.020508;1.083008;
1438898;0.096680;0.022461;1.113281;
1439038;0.091797;0.016602;1.105469;
1439178;0.094727;0.017578;1.084961;
1439318;0.096680;0.022461;1.086914;
1439458;0.092773;0.025391;1.084961;
1439598;0.093750;0.028320;1.087891;
1439748;0.088867;0.025391;1.094727;
1439888;0.091797;0.023438;1.070312;
1440028;0.094727;0.020508;1.073242;
1440168;0.092773;0.025391;1.062500;
1440308;0.091797;0.028320;1.076172;
1440443;0.093750;0.026367;1.086914;
1440583;0.092773;0.025391;1.084961;
1440713;0.092773;0.020508;1.057617;
1440863;0.089844;0.024414;1.075195;
1441015;0.088867;0.027344;1.086914;
1441153;0.090820;0.023438;1.081055;
1441293;0.091797;0.023438;1.075195;
1441426;0.094727;0.022461;1.073242;
1441573;0.093750;0.017578;1.092773;
1441708;0.093750;0.023438;1.080078;
1441858;0.092773;0.026367;1.076172;
1441998;0.089844;0.020508;1.063477;
1442138;0.089844;0.021484;1.074219;
1442278;0.088867;0.023438;1.080078;
1442418;0.093750;0.027344;1.076172;
1442558;0.092773;0.018555;1.061523;
1442698;0.088867;0.025391;1.063477;
1442838;0.090820;0.026367;1.081055;
1442978;0.092773;0.019531;1.079102;
1443118;0.088867;0.021484;1.052734;
1443258;0.090820;0.023438;1.055664;
1443408;0.090820;0.023438;1.056641;
1443548;0.092773;0.027344;1.085938;
1443683;0.089844;0.020508;1.079102;
1443833;0.090820;0.020508;1.048828;
1443963;0.093750;0.022461;1.055664;
1444113;0.087891;0.027344;1.071289;
1444253;0.087891;0.024414;1.083984;
1444396;0.094727;0.024414;1.057617;
1444533;0.093750;0.026367;1.053711;
1444667;0.091797;0.021484;1.063477;
1444813;0.093750;0.020508;1.077148;
1444943;0.090820;0.027344;1.067383;
1445098;0.095703;0.023438;1.064453;
1445238;0.092773;0.022461;1.062500;
1445378;0.093750;0.026367;1.059570;
1445518;0.087891;0.024414;1.071289;
1445658;0.091797;0.027344;1.060547;
1445798;0.093750;0.023438;1.048828;
1445948;0.092773;0.021484;1.053711;
1446088;0.088867;0.021484;1.072266;
1446228;0.091797;0.023438;1.070312;
1446378;0.094727;0.021484;1.050781;
1446518;0.092773;0.023438;1.051758;
1446658;0.089844;0.029297;1.056641;
1446798;0.087891;0.031250;1.067383;
1446938;0.092773;0.027344;1.064453;
1447073;0.092773;0.021484;1.061523;
1447213;0.093750;0.029297;1.051758;
1447353;0.089844;0.022461;1.053711;
1447484;0.093750;0.020508;1.066406;
1447613;0.093750;0.024414;1.054688;
1447753;0.090820;0.024414;1.050781;
1447883;0.092773;0.022461;1.054688;
1448023;0.090820;0.030273;1.055664;
1448163;0.091797;0.022461;1.063477;
1448304;0.088867;0.022461;1.052734;
1448458;0.092773;0.022461;1.044922;
1448598;0.092773;0.028320;1.055664;
1448738;0.093750;0.024414;1.062500;
1448888;0.093750;0.027344;1.067383;
1449028;0.094727;0.023438;1.046875;
1449168;0.094727;0.026367;1.044922;
1449318;0.093750;0.024414;1.052734;
1449458;0.092773;0.029297;1.047852;
1449598;0.094727;0.031250;1.035156;
1449738;0.087891;0.029297;1.023438;
1449878;0.088867;0.030273;1.007812;
1450018;0.087891;0.035156;1.013672;
1450158;0.083008;0.025391;1.017578;
1450298;0.086914;0.025391;1.023438;
1450444;0.090820;0.026367;1.012695;
1450595;0.089844;0.021484;1.005859;
1450734;0.091797;0.020508;1.016602;
1450873;0.093750;0.023438;1.043945;
1451013;0.090820;0.025391;1.043945;
1451158;0.091797;0.021484;1.054688;
1451293;0.091797;0.026367;1.022461;
1451438;0.089844;0.023438;1.033203;
1451584;0.088867;0.024414;1.053711;
1451723;0.088867;0.028320;1.052734;
1451858;0.092773;0.031250;1.045898;
1451998;0.090820;0.026367;1.033203;
1452138;0.089844;0.023438;1.041016;
1452278;0.091797;0.021484;1.051758;
1452428;0.096680;0.019531;1.054688;
1452568;0.096680;0.025391;1.049805;
1452708;0.094727;0.026367;1.043945;
1452848;0.091797;0.023438;1.047852;
1452988;0.088867;0.024414;1.055664;
1453128;0.094727;0.024414;1.055664;
1453268;0.091797;0.023438;1.046875;
1453408;0.087891;0.024414;1.021484;
1453548;0.090820;0.026367;1.036133;
1453688;0.089844;0.023438;1.054688;
1453823;0.090820;0.018555;1.057617;
1453968;0.095703;0.022461;1.029297;
1454098;0.094727;0.029297;1.032227;
1454228;0.092773;0.025391;1.044922;
1454363;0.095703;0.024414;1.057617;
1454508;0.094727;0.025391;1.041016;
1454643;0.093750;0.021484;1.011719;
1454793;0.090820;0.030273;1.021484;
1454944;0.091797;0.031250;1.015625;
1455093;0.090820;0.030273;1.018555;
1455234;0.093750;0.027344;1.035156;
1455373;0.092773;0.034180;1.026367;
1455525;0.089844;0.027344;1.003906;
1455656;0.088867;0.025391;0.995117;
1455783;0.090820;0.025391;1.009766;
1455918;0.090820;0.029297;1.008789;
1456058;0.092773;0.025391;0.992188;
1456208;0.090820;0.027344;0.998047;
1456348;0.090820;0.023438;0.998047;
1456488;0.088867;0.017578;1.003906;
1456638;0.093750;0.019531;0.996094;
1456778;0.092773;0.022461;0.999023;
1456918;0.091797;0.015625;0.984375;
1457058;0.091797;0.025391;0.990234;
1457198;0.090820;0.019531;0.992188;
1457338;0.088867;0.023438;0.998047;
1457478;0.090820;0.018555;0.999023;
1457618;0.090820;0.018555;0.978516;
1457758;0.091797;0.021484;0.977539;
1457893;0.092773;0.021484;0.984375;
1458023;0.091797;0.022461;1.008789;
1458163;0.087891;0.018555;1.004883;
1458303;0.092773;0.013672;0.987305;
1458443;0.091797;0.022461;0.994141;
1458593;0.091797;0.022461;0.978516;
1458744;0.088867;0.032227;0.994141;
1458883;0.090820;0.030273;1.000977;
1459023;0.091797;0.028320;0.991211;
1459163;0.094727;0.027344;0.980469;
1459313;0.091797;0.028320;0.986328;
1459463;0.091797;0.029297;0.989258;
1459608;0.090820;0.022461;0.999023;
1459748;0.092773;0.025391;1.011719;
1459888;0.089844;0.024414;0.988281;
1460028;0.090820;0.021484;0.993164;
1460168;0.091797;0.025391;0.996094;
1460308;0.090820;0.026367;1.012695;
1460458;0.087891;0.020508;1.014648;
1460598;0.091797;0.024414;1.013672;
1460738;0.090820;0.025391;1.008789;
1460878;0.090820;0.021484;0.991211;
1461018;0.090820;0.026367;0.997070;
1461158;0.090820;0.026367;1.021484;
1461298;0.089844;0.020508;1.036133;
1461433;0.091797;0.020508;1.009766;
1461574;0.092773;0.020508;1.009766;
1461713;0.090820;0.024414;1.010742;
1461863;0.092773;0.020508;1.025391;
1462003;0.093750;0.019531;1.044922;
1462144;0.095703;0.025391;1.027344;
1462293;0.094727;0.024414;1.029297;
1462423;0.092773;0.022461;1.016602;
1462554;0.093750;0.028320;1.030273;
1462683;0.091797;0.020508;1.031250;
1462823;0.094727;0.022461;1.033203;
1462963;0.090820;0.019531;1.027344;
1463113;0.092773;0.022461;1.022461;
1463248;0.087891;0.014648;1.008789;
1463383;0.089844;0.023438;1.029297;
1463518;0.088867;0.020508;1.022461;
1463658;0.092773;0.020508;1.013672;
1463798;0.092773;0.024414;1.014648;
1463948;0.091797;0.024414;1.039062;
1464088;0.093750;0.024414;1.047852;
1464238;0.091797;0.025391;1.048828;
1464378;0.092773;0.019531;1.042969;
1464513;0.093750;0.027344;1.041992;
1464658;0.090820;0.025391;1.035156;
1464798;0.090820;0.030273;1.021484;
1464938;0.090820;0.029297;1.046875;
1465078;0.087891;0.029297;1.035156;
1465223;0.092773;0.024414;1.010742;
1465363;0.090820;0.023438;1.005859;
1465503;0.090820;0.018555;1.002930;
1465644;0.092773;0.020508;1.022461;
1465793;0.093750;0.016602;1.032227;
1465933;0.092773;0.021484;1.061523;
1466063;0.095703;0.021484;1.057617;
1466213;0.092773;0.022461;1.018555;
1466353;0.093750;0.021484;1.013672;
1466504;0.091797;0.018555;1.054688;
1466643;0.089844;0.014648;1.047852;
1466783;0.094727;0.015625;1.036133;
1466928;0.095703;0.021484;1.019531;
1467054;0.087891;0.017578;1.006836;
1467203;0.088867;0.024414;0.994141;
1467353;0.087891;0.016602;0.987305;
1467493;0.088867;0.025391;0.981445;
1467633;0.093750;0.023438;0.989258;
1467788;0.095703;0.022461;1.000977;
1467928;0.087891;0.023438;1.010742;
1468068;0.086914;0.026367;0.998047;
1468203;0.093750;0.024414;1.034180;
1468333;0.089844;0.024414;1.002930;
1468485;0.091797;0.022461;0.987305;
1468618;0.094727;0.031250;0.994141;
1468758;0.087891;0.034180;0.988281;
1468898;0.095703;0.026367;1.030273;
1469038;0.093750;0.021484;1.066406;
1469174;0.094727;0.029297;1.071289;
1469313;0.093750;0.018555;1.052734;
1469443;0.100586;0.012695;1.045898;
1469593;0.095703;0.015625;1.059570;
1469733;0.100586;0.021484;1.067383;
1469873;0.100586;0.020508;1.086914;
1470023;0.101562;0.034180;1.084961;
1470173;0.095703;0.036133;1.049805;
1470323;0.100586;0.026367;1.028320;
1470473;0.096680;0.029297;1.013672;
1470613;0.095703;0.033203;1.011719;
1470753;0.092773;0.034180;1.001953;
1470903;0.091797;0.027344;1.000977;
1471043;0.093750;0.032227;1.011719;
1471194;0.095703;0.026367;1.001953;
1471343;0.094727;0.022461;1.029297;
1471483;0.094727;0.024414;1.016602;
1471638;0.093750;0.023438;1.026367;
1471778;0.096680;0.021484;1.048828;
1471918;0.095703;0.024414;1.038086;
1472068;0.097656;0.019531;1.039062;
1472203;0.094727;0.019531;1.032227;
1472343;0.099609;0.014648;1.019531;
1472498;0.095703;0.017578;1.000977;
1472638;0.097656;0.013672;0.999023;
1472788;0.095703;0.022461;1.000000;
1472923;0.091797;0.022461;1.011719;
1473063;0.090820;0.022461;1.006836;
1473213;0.091797;0.017578;1.019531;
1473343;0.094727;0.022461;1.031250;
1473493;0.095703;0.011719;1.044922;
1473623;0.089844;0.013672;1.029297;
1473763;0.096680;0.023438;1.008789;
1473913;0.095703;0.021484;1.033203;
1474053;0.093750;0.021484;1.022461;
1474203;0.094727;0.022461;1.014648;
1474343;0.093750;0.020508;1.013672;
1474493;0.093750;0.013672;1.008789;
1474633;0.094727;0.018555;1.008789;
1474774;0.093750;0.013672;1.006836;
1474923;0.091797;0.018555;1.007812;
1475065;0.092773;0.012695;1.018555;
1475203;0.099609;0.017578;1.044922;
1475333;0.101562;0.018555;1.094727;
1475478;0.099609;0.028320;1.095703;
1475603;0.102539;0.035156;1.079102;
1475753;0.097656;0.039062;1.063477;
1475894;0.097656;0.030273;1.030273;
1476033;0.095703;0.032227;1.051758;
1476173;0.096680;0.028320;1.027344;
1476318;0.091797;0.032227;1.030273;
1476468;0.094727;0.024414;1.009766;
1476608;0.097656;0.029297;1.012695;
1476756;0.095703;0.030273;0.995117;
1476883;0.093750;0.028320;0.997070;
1477013;0.093750;0.033203;1.009766;
1477148;0.088867;0.034180;1.015625;
1477288;0.094727;0.029297;1.023438;
1477428;0.093750;0.033203;1.026367;
1477569;0.093750;0.046875;1.042969;
1477713;0.093750;0.049805;1.064453;
1477868;0.095703;0.039062;1.049805;
1478008;0.096680;0.030273;1.035156;
1478144;0.098633;0.030273;1.042969;
1478283;0.097656;0.021484;1.023438;
1478423;0.094727;0.019531;1.000000;
1478553;0.096680;0.035156;1.005859;
1478693;0.093750;0.035156;1.035156;
1478834;0.093750;0.034180;1.039062;
1478983;0.098633;0.039062;1.028320;
1479133;0.095703;0.040039;1.041992;
1479273;0.094727;0.038086;1.044922;
1479413;0.099609;0.045898;1.024414;
1479553;0.099609;0.043945;1.037109;
1479693;0.098633;0.041992;1.017578;
1479833;0.098633;0.038086;1.010742;
1479983;0.099609;0.039062;1.020508;
1480133;0.093750;0.032227;1.000000;
1480283;0.096680;0.028320;0.999023;
1480414;0.093750;0.039062;1.001953;
1480563;0.093750;0.042969;1.032227;
1480703;0.094727;0.033203;1.027344;
1480848;0.094727;0.035156;1.036133;
1480976;0.096680;0.041016;1.041992;
1481128;0.094727;0.032227;1.035156;
1481263;0.096680;0.041992;1.027344;
1481413;0.102539;0.044922;1.035156;
1481568;0.095703;0.046875;1.042969;
1481708;0.099609;0.039062;1.007812;
1481848;0.099609;0.038086;1.023438;
1481984;0.097656;0.035156;1.022461;
1482117;0.096680;0.044922;1.043945;
1482243;0.097656;0.028320;1.029297;
1482378;0.095703;0.041992;1.062500;
1482523;0.097656;0.026367;1.088867;
1482668;0.099609;0.019531;1.088867;
1482808;0.098633;0.037109;1.096680;
1482948;0.101562;0.034180;1.108398;
1483083;0.103516;0.036133;1.109375;
1483233;0.101562;0.033203;1.112305;
1483383;0.102539;0.040039;1.121094;
1483523;0.104492;0.029297;1.117188;
1483663;0.104492;0.029297;1.135742;
1483794;0.105469;0.039062;1.152344;
1483943;0.103516;0.037109;1.175781;
1484073;0.105469;0.024414;1.199219;
1484223;0.106445;0.034180;1.181641;
1484364;0.108398;0.029297;1.212891;
1484515;0.108398;0.029297;1.232422;
1484663;0.107422;0.027344;1.211914;
1484813;0.106445;0.036133;1.236328;
1484943;0.107422;0.035156;1.236328;
1485088;0.108398;0.028320;1.230469;
1485223;0.102539;0.027344;1.224609;
1485363;0.110352;0.022461;1.225586;
1485508;0.104492;0.024414;1.173828;
1485658;0.107422;0.022461;1.195312;
1485798;0.103516;0.028320;1.214844;
1485943;0.101562;0.039062;1.225586;
1486084;0.106445;0.028320;1.209961;
1486223;0.107422;0.038086;1.215820;
1486378;0.107422;0.037109;1.220703;
1486518;0.106445;0.037109;1.189453;
1486658;0.109375;0.032227;1.183594;
1486793;0.105469;0.029297;1.153320;
1486933;0.105469;0.027344;1.157227;
1487083;0.104492;0.034180;1.148438;
1487223;0.103516;0.029297;1.134766;
1487374;0.104492;0.028320;1.145508;
1487515;0.105469;0.028320;1.168945;
1487653;0.101562;0.034180;1.155273;
1487803;0.105469;0.035156;1.183594;
1487934;0.100586;0.031250;1.174805;
1488083;0.104492;0.038086;1.178711;
1488233;0.104492;0.031250;1.179688;
1488364;0.108398;0.028320;1.178711;
1488503;0.102539;0.026367;1.155273;
1488643;0.109375;0.028320;1.169922;
1488794;0.105469;0.024414;1.150391;
1488933;0.102539;0.030273;1.152344;
1489084;0.104492;0.023438;1.137695;
1489233;0.108398;0.028320;1.148438;
1489363;0.106445;0.027344;1.142578;
