Time;acc_x;acc_y;acc_z;

1525;0.029297;0.039062;1.028320;
1673;0.027344;0.037109;1.019531;
1813;0.034180;0.043945;1.025391;
1953;0.027344;0.041016;1.021484;
2093;0.033203;0.038086;1.019531;
2233;0.032227;0.039062;1.013672;
2373;0.029297;0.043945;1.030273;
2513;0.034180;0.043945;1.026367;
2653;0.031250;0.041992;1.024414;
2793;0.031250;0.041992;1.020508;
2933;0.032227;0.040039;1.017578;
3073;0.031250;0.041992;1.024414;
3213;0.031250;0.041016;1.030273;
3353;0.033203;0.041992;1.026367;
3493;0.032227;0.041016;1.030273;
3633;0.032227;0.042969;1.028320;
3773;0.032227;0.041016;1.022461;
3909;0.031250;0.041992;1.025391;
4061;0.031250;0.046875;1.019531;
4220;0.033203;0.041992;1.027344;
4383;0.029297;0.038086;1.025391;
4523;0.030273;0.040039;1.032227;
4663;0.035156;0.039062;1.024414;
4803;0.030273;0.038086;1.030273;
4953;0.032227;0.041016;1.029297;
5093;0.030273;0.041992;1.029297;
5233;0.033203;0.041992;1.031250;
5373;0.031250;0.043945;1.027344;
5513;0.032227;0.041016;1.037109;
5653;0.033203;0.043945;1.017578;
5793;0.032227;0.040039;1.026367;
5933;0.031250;0.039062;1.025391;
6073;0.032227;0.039062;1.026367;
6213;0.030273;0.037109;1.013672;
6359;0.030273;0.034180;1.024414;
6519;0.030273;0.040039;1.015625;
6659;0.031250;0.040039;1.020508;
6803;0.028320;0.040039;1.017578;
6943;0.030273;0.039062;1.024414;
7083;0.031250;0.041016;1.019531;
7233;0.030273;0.036133;1.034180;
7373;0.035156;0.042969;1.029297;
7513;0.033203;0.033203;1.027344;
7663;0.030273;0.040039;1.019531;
7803;0.030273;0.038086;1.025391;
7943;0.035156;0.041992;1.024414;
8083;0.028320;0.037109;1.016602;
8223;0.033203;0.043945;1.030273;
8373;0.028320;0.041992;1.015625;
8513;0.029297;0.044922;1.026367;
8653;0.031250;0.034180;1.015625;
8800;0.031250;0.039062;1.020508;
8961;0.031250;0.038086;1.019531;
9133;0.032227;0.042969;1.030273;
9283;0.031250;0.038086;1.023438;
9423;0.032227;0.039062;1.020508;
9563;0.034180;0.040039;1.020508;
9703;0.030273;0.041016;1.025391;
9844;0.029297;0.041016;1.022461;
9983;0.030273;0.043945;1.026367;
10123;0.030273;0.038086;1.022461;
10263;0.031250;0.044922;1.018555;
10403;0.031250;0.039062;1.027344;
10543;0.033203;0.043945;1.023438;
10683;0.030273;0.036133;1.018555;
10823;0.034180;0.041992;1.021484;
10963;0.029297;0.040039;1.028320;
11099;0.031250;0.044922;1.018555;
11249;0.031250;0.040039;1.024414;
11409;0.029297;0.041016;1.021484;
11573;0.030273;0.042969;1.040039;
11713;0.033203;0.042969;1.029297;
11853;0.031250;0.039062;1.035156;
11993;0.030273;0.037109;1.031250;
12133;0.033203;0.035156;1.037109;
12273;0.030273;0.041992;1.033203;
12413;0.032227;0.041016;1.034180;
12553;0.032227;0.041016;1.036133;
12703;0.031250;0.043945;1.027344;
12843;0.033203;0.040039;1.036133;
12983;0.030273;0.046875;1.036133;
13123;0.029297;0.043945;1.037109;
13263;0.028320;0.038086;1.023438;
13403;0.031250;0.041992;1.030273;
13550;0.031250;0.039062;1.019531;
13709;0.030273;0.037109;1.034180;
13873;0.032227;0.040039;1.024414;
14013;0.033203;0.039062;1.025391;
14153;0.032227;0.039062;1.020508;
14293;0.031250;0.038086;1.026367;
14433;0.031250;0.041016;1.027344;
14573;0.031250;0.034180;1.032227;
14713;0.033203;0.035156;1.016602;
14853;0.031250;0.040039;1.016602;
14993;0.033203;0.036133;1.031250;
15133;0.030273;0.035156;1.021484;
15273;0.031250;0.034180;1.023438;
15413;0.030273;0.033203;1.020508;
15563;0.028320;0.031250;1.023438;
15703;0.032227;0.029297;1.021484;
15843;0.031250;0.031250;1.037109;
15989;0.033203;0.027344;1.027344;
16150;0.031250;0.030273;1.027344;
16313;0.033203;0.029297;1.030273;
16453;0.030273;0.026367;1.044922;
16603;0.032227;0.029297;1.036133;
16743;0.032227;0.033203;1.041016;
16883;0.032227;0.031250;1.041016;
17033;0.035156;0.031250;1.043945;
17173;0.031250;0.030273;1.046875;
17313;0.035156;0.029297;1.040039;
17453;0.035156;0.032227;1.052734;
17593;0.036133;0.027344;1.051758;
17733;0.034180;0.031250;1.053711;
17873;0.034180;0.030273;1.051758;
18013;0.032227;0.028320;1.052734;
18153;0.034180;0.028320;1.052734;
18295;0.031250;0.025391;1.045898;
18451;0.035156;0.032227;1.048828;
18609;0.034180;0.024414;1.058594;
18773;0.034180;0.028320;1.054688;
18913;0.033203;0.029297;1.064453;
19063;0.034180;0.032227;1.070312;
19203;0.037109;0.026367;1.074219;
19343;0.038086;0.029297;1.080078;
19493;0.034180;0.026367;1.069336;
19633;0.037109;0.032227;1.081055;
19773;0.036133;0.024414;1.078125;
19913;0.036133;0.029297;1.091797;
20053;0.038086;0.022461;1.066406;
20193;0.037109;0.027344;1.081055;
20334;0.034180;0.022461;1.074219;
20473;0.039062;0.024414;1.091797;
20613;0.039062;0.026367;1.096680;
20749;0.038086;0.019531;1.081055;
20910;0.037109;0.021484;1.092773;
21079;0.040039;0.026367;1.085938;
21223;0.038086;0.022461;1.088867;
21363;0.039062;0.024414;1.104492;
21503;0.038086;0.026367;1.110352;
21643;0.040039;0.025391;1.106445;
21783;0.036133;0.025391;1.106445;
21923;0.041016;0.026367;1.105469;
22063;0.039062;0.024414;1.113281;
22203;0.038086;0.025391;1.116211;
22343;0.038086;0.027344;1.119141;
22493;0.039062;0.027344;1.121094;
22633;0.040039;0.024414;1.122070;
22773;0.042969;0.029297;1.140625;
22923;0.041016;0.029297;1.136719;
23063;0.038086;0.032227;1.144531;
23200;0.043945;0.032227;1.134766;
23359;0.043945;0.031250;1.142578;
23523;0.043945;0.029297;1.138672;
23663;0.040039;0.029297;1.146484;
23803;0.042969;0.031250;1.129883;
23953;0.041016;0.031250;1.137695;
24093;0.043945;0.028320;1.134766;
24233;0.041992;0.029297;1.136719;
24383;0.041992;0.028320;1.132812;
24523;0.042969;0.031250;1.128906;
24663;0.042969;0.033203;1.143555;
24803;0.041016;0.030273;1.126953;
24943;0.044922;0.030273;1.142578;
25083;0.043945;0.030273;1.137695;
25223;0.043945;0.028320;1.136719;
25363;0.043945;0.030273;1.137695;
25505;0.041992;0.029297;1.130859;
25669;0.042969;0.031250;1.138672;
25829;0.045898;0.032227;1.139648;
25993;0.041016;0.033203;1.136719;
26133;0.045898;0.029297;1.152344;
26273;0.046875;0.032227;1.148438;
26413;0.044922;0.031250;1.152344;
26553;0.042969;0.029297;1.139648;
26693;0.043945;0.032227;1.139648;
26833;0.044922;0.031250;1.140625;
26983;0.043945;0.031250;1.149414;
27123;0.043945;0.030273;1.150391;
27263;0.045898;0.031250;1.135742;
27403;0.044922;0.032227;1.145508;
27543;0.041992;0.029297;1.133789;
27683;0.045898;0.036133;1.132812;
27823;0.045898;0.029297;1.140625;
27960;0.045898;0.026367;1.132812;
28110;0.043945;0.030273;1.134766;
28270;0.044922;0.033203;1.141602;
28433;0.045898;0.034180;1.134766;
28573;0.044922;0.030273;1.134766;
28713;0.046875;0.030273;1.132812;
28853;0.045898;0.037109;1.139648;
28993;0.045898;0.030273;1.131836;
29133;0.046875;0.029297;1.131836;
29273;0.044922;0.030273;1.131836;
29413;0.045898;0.034180;1.138672;
29553;0.048828;0.032227;1.130859;
29693;0.043945;0.032227;1.145508;
29834;0.046875;0.034180;1.132812;
29973;0.047852;0.034180;1.137695;
30113;0.044922;0.029297;1.138672;
30253;0.044922;0.028320;1.132812;
30389;0.046875;0.029297;1.127930;
30539;0.043945;0.035156;1.137695;
30683;0.047852;0.034180;1.127930;
30819;0.044922;0.033203;1.126953;
30960;0.043945;0.033203;1.134766;
31123;0.045898;0.032227;1.123047;
31263;0.043945;0.031250;1.126953;
31403;0.044922;0.033203;1.125977;
31553;0.048828;0.034180;1.126953;
31693;0.043945;0.028320;1.118164;
31833;0.046875;0.032227;1.126953;
31973;0.045898;0.031250;1.123047;
32113;0.044922;0.031250;1.122070;
32253;0.047852;0.030273;1.125977;
32393;0.045898;0.032227;1.126953;
32543;0.043945;0.031250;1.125977;
32683;0.045898;0.030273;1.125977;
32823;0.047852;0.030273;1.119141;
32963;0.042969;0.034180;1.125977;
33099;0.044922;0.030273;1.118164;
33260;0.045898;0.033203;1.120117;
33423;0.046875;0.031250;1.120117;
33561;0.045898;0.037109;1.117188;
33713;0.045898;0.035156;1.125000;
33853;0.046875;0.036133;1.127930;
34003;0.044922;0.027344;1.117188;
34143;0.046875;0.032227;1.124023;
34283;0.044922;0.033203;1.127930;
34423;0.044922;0.030273;1.120117;
34563;0.049805;0.035156;1.128906;
34703;0.046875;0.031250;1.129883;
34843;0.048828;0.032227;1.130859;
34983;0.046875;0.030273;1.123047;
35123;0.047852;0.032227;1.126953;
35263;0.046875;0.033203;1.127930;
35403;0.046875;0.032227;1.119141;
35543;0.047852;0.030273;1.129883;
35679;0.047852;0.030273;1.117188;
35839;0.045898;0.033203;1.115234;
35999;0.045898;0.031250;1.129883;
36139;0.044922;0.033203;1.120117;
36283;0.047852;0.031250;1.109375;
36433;0.044922;0.034180;1.118164;
36573;0.048828;0.033203;1.119141;
36713;0.045898;0.032227;1.116211;
36863;0.048828;0.035156;1.126953;
37003;0.047852;0.034180;1.115234;
37143;0.045898;0.033203;1.122070;
37283;0.045898;0.033203;1.131836;
37423;0.046875;0.034180;1.125977;
37563;0.046875;0.032227;1.125977;
37703;0.046875;0.029297;1.139648;
37843;0.046875;0.037109;1.126953;
37983;0.046875;0.034180;1.125977;
38123;0.043945;0.033203;1.129883;
38263;0.047852;0.033203;1.129883;
38409;0.049805;0.031250;1.126953;
38553;0.045898;0.031250;1.139648;
38700;0.046875;0.034180;1.129883;
38869;0.047852;0.033203;1.126953;
39013;0.043945;0.032227;1.125977;
39153;0.048828;0.031250;1.128906;
39303;0.047852;0.034180;1.130859;
39443;0.045898;0.032227;1.127930;
39583;0.046875;0.032227;1.115234;
39733;0.042969;0.030273;1.123047;
39873;0.045898;0.030273;1.128906;
40013;0.045898;0.032227;1.124023;
40163;0.049805;0.033203;1.125000;
40303;0.046875;0.032227;1.124023;
40443;0.047852;0.033203;1.131836;
40583;0.047852;0.034180;1.115234;
40723;0.046875;0.031250;1.129883;
40863;0.044922;0.030273;1.114258;
41000;0.045898;0.032227;1.116211;
41149;0.043945;0.034180;1.122070;
41309;0.045898;0.030273;1.120117;
41473;0.046875;0.032227;1.124023;
41623;0.046875;0.034180;1.132812;
41763;0.046875;0.032227;1.117188;
41903;0.045898;0.030273;1.120117;
42043;0.048828;0.033203;1.128906;
42183;0.046875;0.037109;1.129883;
42323;0.047852;0.033203;1.130859;
42463;0.047852;0.032227;1.128906;
42603;0.043945;0.033203;1.119141;
42743;0.045898;0.030273;1.113281;
42883;0.043945;0.036133;1.127930;
43033;0.044922;0.033203;1.120117;
43183;0.045898;0.034180;1.116211;
43323;0.044922;0.031250;1.125977;
43460;0.044922;0.031250;1.118164;
43610;0.047852;0.032227;1.128906;
43770;0.047852;0.033203;1.131836;
43933;0.046875;0.033203;1.123047;
44083;0.045898;0.035156;1.124023;
44223;0.043945;0.028320;1.120117;
44363;0.046875;0.032227;1.112305;
44503;0.043945;0.032227;1.120117;
44643;0.045898;0.032227;1.125000;
44783;0.047852;0.034180;1.118164;
44923;0.047852;0.029297;1.117188;
45063;0.047852;0.028320;1.125977;
45203;0.045898;0.031250;1.121094;
45343;0.046875;0.031250;1.120117;
45493;0.046875;0.031250;1.130859;
45633;0.044922;0.029297;1.129883;
45773;0.042969;0.033203;1.122070;
45930;0.045898;0.031250;1.116211;
46099;0.045898;0.033203;1.125000;
46263;0.047852;0.038086;1.139648;
46403;0.046875;0.037109;1.127930;
46543;0.044922;0.031250;1.126953;
46693;0.043945;0.035156;1.131836;
46833;0.047852;0.035156;1.124023;
46973;0.044922;0.028320;1.123047;
47113;0.047852;0.034180;1.127930;
47253;0.045898;0.035156;1.125000;
47393;0.043945;0.033203;1.118164;
47533;0.046875;0.034180;1.133789;
47673;0.044922;0.034180;1.133789;
47814;0.045898;0.032227;1.130859;
47953;0.044922;0.031250;1.129883;
48093;0.043945;0.032227;1.113281;
48230;0.045898;0.032227;1.121094;
48389;0.047852;0.034180;1.134766;
48549;0.043945;0.035156;1.126953;
48713;0.046875;0.031250;1.129883;
48863;0.046875;0.034180;1.133789;
49003;0.045898;0.031250;1.131836;
49153;0.043945;0.031250;1.126953;
49293;0.046875;0.031250;1.121094;
49433;0.044922;0.034180;1.127930;
49573;0.043945;0.029297;1.128906;
49713;0.045898;0.031250;1.124023;
49853;0.045898;0.031250;1.124023;
49993;0.045898;0.031250;1.130859;
50133;0.046875;0.032227;1.125000;
50273;0.045898;0.033203;1.125000;
50413;0.047852;0.030273;1.125977;
50553;0.042969;0.031250;1.125000;
50689;0.044922;0.032227;1.120117;
50839;0.044922;0.035156;1.125000;
50989;0.044922;0.035156;1.126953;
51130;0.044922;0.030273;1.123047;
51269;0.044922;0.030273;1.130859;
51423;0.043945;0.032227;1.124023;
51573;0.042969;0.033203;1.131836;
51713;0.043945;0.031250;1.121094;
51853;0.042969;0.034180;1.125000;
51993;0.044922;0.036133;1.128906;
52133;0.041992;0.029297;1.126953;
52273;0.042969;0.032227;1.127930;
52413;0.042969;0.028320;1.135742;
52553;0.044922;0.026367;1.114258;
52693;0.041992;0.031250;1.135742;
52833;0.043945;0.032227;1.124023;
52973;0.043945;0.031250;1.127930;
53113;0.041992;0.031250;1.128906;
53253;0.042969;0.032227;1.125977;
53389;0.041992;0.030273;1.127930;
53529;0.041992;0.036133;1.129883;
53669;0.044922;0.032227;1.122070;
53819;0.041992;0.032227;1.129883;
53983;0.041992;0.032227;1.119141;
54123;0.042969;0.031250;1.124023;
54263;0.042969;0.032227;1.122070;
54403;0.042969;0.031250;1.118164;
54543;0.041016;0.034180;1.126953;
54684;0.041992;0.032227;1.121094;
54823;0.041016;0.032227;1.118164;
54963;0.042969;0.037109;1.128906;
55113;0.041992;0.034180;1.123047;
55253;0.041016;0.031250;1.125000;
55393;0.043945;0.032227;1.114258;
55533;0.041016;0.032227;1.115234;
55673;0.040039;0.034180;1.123047;
55813;0.041992;0.032227;1.108398;
55950;0.040039;0.036133;1.123047;
56100;0.041016;0.033203;1.121094;
56239;0.041992;0.037109;1.121094;
56399;0.041992;0.034180;1.116211;
56560;0.041016;0.035156;1.116211;
56703;0.040039;0.035156;1.114258;
56843;0.040039;0.035156;1.096680;
56983;0.040039;0.036133;1.116211;
57123;0.040039;0.034180;1.102539;
57263;0.041016;0.038086;1.114258;
57403;0.041016;0.035156;1.109375;
57543;0.039062;0.035156;1.112305;
57693;0.040039;0.035156;1.108398;
57833;0.041016;0.034180;1.101562;
57973;0.037109;0.036133;1.112305;
58123;0.038086;0.037109;1.105469;
58263;0.040039;0.038086;1.103516;
58403;0.038086;0.034180;1.102539;
58543;0.040039;0.038086;1.104492;
58679;0.037109;0.034180;1.103516;
58829;0.040039;0.037109;1.103516;
58989;0.039062;0.032227;1.104492;
59153;0.037109;0.033203;1.091797;
59293;0.035156;0.033203;1.092773;
59443;0.039062;0.035156;1.087891;
59583;0.036133;0.032227;1.093750;
59723;0.041016;0.040039;1.082031;
59873;0.034180;0.033203;1.086914;
60013;0.035156;0.036133;1.082031;
60153;0.035156;0.035156;1.075195;
60293;0.038086;0.041016;1.090820;
60433;0.037109;0.035156;1.084961;
60573;0.034180;0.035156;1.082031;
60713;0.037109;0.034180;1.060547;
60853;0.034180;0.032227;1.076172;
60993;0.035156;0.032227;1.067383;
61140;0.036133;0.032227;1.070312;
61289;0.033203;0.033203;1.075195;
61449;0.037109;0.034180;1.069336;
61603;0.035156;0.037109;1.067383;
61743;0.034180;0.032227;1.053711;
61883;0.035156;0.035156;1.064453;
62023;0.036133;0.039062;1.059570;
62173;0.034180;0.038086;1.057617;
62313;0.035156;0.037109;1.044922;
62453;0.035156;0.041016;1.057617;
62593;0.035156;0.040039;1.060547;
62733;0.033203;0.041016;1.058594;
62873;0.032227;0.040039;1.053711;
63023;0.034180;0.042969;1.056641;
63163;0.032227;0.043945;1.050781;
63303;0.033203;0.044922;1.052734;
63443;0.029297;0.045898;1.048828;
63589;0.031250;0.051758;1.043945;
63749;0.030273;0.045898;1.040039;
63909;0.029297;0.047852;1.039062;
64063;0.030273;0.043945;1.037109;
64204;0.030273;0.043945;1.031250;
64343;0.029297;0.047852;1.035156;
64493;0.029297;0.046875;1.026367;
64633;0.029297;0.045898;1.030273;
64773;0.027344;0.045898;1.034180;
64923;0.025391;0.045898;1.029297;
65063;0.028320;0.044922;1.028320;
65203;0.026367;0.045898;1.028320;
65343;0.024414;0.048828;1.022461;
65483;0.025391;0.045898;1.013672;
65633;0.028320;0.048828;1.020508;
65773;0.028320;0.046875;1.017578;
65913;0.025391;0.044922;1.014648;
66049;0.026367;0.043945;1.013672;
66209;0.026367;0.045898;1.016602;
66371;0.027344;0.042969;1.015625;
66523;0.025391;0.046875;1.006836;
66673;0.027344;0.045898;1.017578;
66823;0.024414;0.042969;1.022461;
66963;0.025391;0.043945;1.025391;
67103;0.029297;0.046875;1.027344;
67243;0.026367;0.041992;1.032227;
67383;0.026367;0.045898;1.025391;
67523;0.028320;0.043945;1.024414;
67663;0.025391;0.041992;1.020508;
67803;0.027344;0.042969;1.031250;
67953;0.027344;0.044922;1.031250;
68093;0.025391;0.046875;1.021484;
68233;0.026367;0.042969;1.027344;
68373;0.024414;0.040039;1.027344;
68519;0.023438;0.042969;1.021484;
68679;0.026367;0.041992;1.027344;
68831;0.029297;0.041992;1.037109;
68993;0.024414;0.041016;1.027344;
69133;0.025391;0.041992;1.033203;
69273;0.025391;0.045898;1.031250;
69413;0.027344;0.043945;1.029297;
69553;0.026367;0.041992;1.023438;
69703;0.026367;0.043945;1.028320;
69843;0.024414;0.040039;1.035156;
69983;0.028320;0.045898;1.018555;
70133;0.027344;0.041016;1.027344;
70273;0.031250;0.047852;1.038086;
70413;0.027344;0.041016;1.027344;
70563;0.026367;0.045898;1.035156;
70703;0.027344;0.042969;1.029297;
70843;0.024414;0.044922;1.026367;
70979;0.028320;0.043945;1.032227;
71143;0.024414;0.046875;1.033203;
71280;0.026367;0.042969;1.037109;
71429;0.024414;0.047852;1.029297;
71563;0.028320;0.047852;1.044922;
71703;0.026367;0.042969;1.027344;
71843;0.026367;0.042969;1.029297;
71983;0.024414;0.041992;1.024414;
72123;0.024414;0.041016;1.025391;
72263;0.026367;0.041016;1.035156;
72403;0.025391;0.041016;1.034180;
72553;0.026367;0.041016;1.040039;
72693;0.023438;0.041992;1.037109;
72834;0.024414;0.042969;1.022461;
72983;0.028320;0.043945;1.036133;
73123;0.027344;0.041016;1.039062;
73263;0.025391;0.041992;1.028320;
73403;0.025391;0.042969;1.026367;
73540;0.026367;0.043945;1.035156;
73690;0.027344;0.041992;1.034180;
73860;0.025391;0.041016;1.037109;
74009;0.024414;0.040039;1.023438;
74173;0.026367;0.041992;1.037109;
74313;0.026367;0.042969;1.027344;
74453;0.027344;0.037109;1.030273;
74593;0.026367;0.041992;1.036133;
74733;0.024414;0.040039;1.019531;
74873;0.027344;0.041016;1.037109;
75013;0.024414;0.043945;1.032227;
75153;0.026367;0.037109;1.032227;
75303;0.025391;0.041992;1.024414;
75453;0.027344;0.040039;1.037109;
75593;0.027344;0.041016;1.039062;
75733;0.025391;0.040039;1.036133;
75883;0.025391;0.040039;1.038086;
76023;0.025391;0.038086;1.036133;
76169;0.026367;0.041016;1.033203;
76320;0.027344;0.044922;1.043945;
76469;0.023438;0.042969;1.032227;
76620;0.025391;0.044922;1.026367;
76783;0.027344;0.042969;1.030273;
76923;0.025391;0.039062;1.024414;
77063;0.025391;0.042969;1.022461;
77203;0.023438;0.042969;1.035156;
77343;0.024414;0.038086;1.016602;
77483;0.024414;0.038086;1.029297;
77633;0.024414;0.039062;1.025391;
77773;0.022461;0.041992;1.026367;
77914;0.025391;0.041016;1.032227;
78053;0.028320;0.040039;1.030273;
78193;0.026367;0.041016;1.032227;
78333;0.023438;0.039062;1.034180;
78473;0.025391;0.037109;1.018555;
78613;0.025391;0.039062;1.027344;
78748;0.026367;0.041016;1.035156;
78889;0.024414;0.039062;1.040039;
79039;0.024414;0.040039;1.031250;
79183;0.026367;0.043945;1.026367;
79329;0.024414;0.041016;1.031250;
79493;0.024414;0.043945;1.035156;
79643;0.022461;0.042969;1.032227;
79783;0.025391;0.042969;1.030273;
79923;0.026367;0.041016;1.025391;
80063;0.025391;0.045898;1.028320;
80203;0.025391;0.042969;1.031250;
80343;0.024414;0.041016;1.027344;
80493;0.025391;0.041992;1.014648;
80633;0.027344;0.039062;1.026367;
80773;0.024414;0.041992;1.022461;
80913;0.023438;0.041992;1.026367;
81053;0.024414;0.039062;1.026367;
81193;0.023438;0.039062;1.021484;
81333;0.026367;0.041016;1.035156;
81469;0.023438;0.038086;1.033203;
81630;0.023438;0.040039;1.037109;
81783;0.024414;0.041992;1.022461;
81909;0.022461;0.035156;1.029297;
82049;0.023438;0.040039;1.026367;
82203;0.027344;0.041016;1.021484;
82343;0.022461;0.036133;1.024414;
82483;0.024414;0.041992;1.024414;
82623;0.025391;0.041992;1.031250;
82763;0.024414;0.044922;1.025391;
82903;0.024414;0.040039;1.041992;
83043;0.024414;0.041992;1.033203;
83183;0.024414;0.040039;1.035156;
83333;0.025391;0.036133;1.030273;
83473;0.021484;0.038086;1.032227;
83613;0.023438;0.036133;1.033203;
83753;0.023438;0.041016;1.023438;
83893;0.022461;0.040039;1.029297;
84033;0.021484;0.039062;1.023438;
84171;0.021484;0.044922;1.027344;
84319;0.024414;0.039062;1.029297;
84463;0.025391;0.036133;1.025391;
84589;0.021484;0.036133;1.031250;
84739;0.021484;0.041992;1.032227;
84903;0.021484;0.039062;1.028320;
85043;0.020508;0.042969;1.030273;
85183;0.024414;0.042969;1.026367;
85323;0.022461;0.040039;1.020508;
85463;0.020508;0.041992;1.036133;
85604;0.020508;0.042969;1.036133;
85743;0.023438;0.042969;1.034180;
85883;0.022461;0.041016;1.028320;
86033;0.018555;0.041016;1.035156;
86173;0.023438;0.040039;1.029297;
86313;0.021484;0.038086;1.030273;
86453;0.018555;0.039062;1.032227;
86593;0.018555;0.038086;1.033203;
86733;0.019531;0.038086;1.025391;
86870;0.019531;0.038086;1.024414;
87028;0.021484;0.041992;1.029297;
87179;0.022461;0.041016;1.034180;
87339;0.021484;0.042969;1.029297;
87493;0.020508;0.039062;1.027344;
87633;0.019531;0.038086;1.036133;
87783;0.018555;0.037109;1.031250;
87923;0.019531;0.041016;1.036133;
88063;0.017578;0.039062;1.035156;
88213;0.019531;0.041016;1.034180;
88353;0.018555;0.038086;1.029297;
88493;0.020508;0.044922;1.041992;
88643;0.020508;0.038086;1.029297;
88783;0.018555;0.041016;1.019531;
88923;0.020508;0.040039;1.032227;
89063;0.019531;0.037109;1.028320;
89203;0.016602;0.036133;1.023438;
89343;0.017578;0.038086;1.038086;
89479;0.018555;0.038086;1.035156;
89629;0.018555;0.036133;1.034180;
89789;0.018555;0.036133;1.027344;
89953;0.017578;0.035156;1.028320;
90093;0.017578;0.037109;1.034180;
90243;0.015625;0.042969;1.036133;
90383;0.018555;0.038086;1.035156;
90523;0.016602;0.041016;1.022461;
90673;0.017578;0.038086;1.020508;
90813;0.016602;0.037109;1.025391;
90963;0.015625;0.040039;1.016602;
91103;0.016602;0.038086;1.019531;
91243;0.018555;0.037109;1.028320;
91393;0.015625;0.035156;1.013672;
91533;0.013672;0.036133;1.022461;
91673;0.015625;0.035156;1.010742;
91813;0.015625;0.037109;1.011719;
91949;0.015625;0.039062;1.022461;
92109;0.015625;0.038086;1.020508;
92269;0.016602;0.041992;1.020508;
92419;0.013672;0.037109;1.014648;
92563;0.017578;0.040039;1.022461;
92703;0.014648;0.038086;1.016602;
92853;0.015625;0.041016;1.023438;
92993;0.016602;0.039062;1.019531;
93133;0.017578;0.041016;1.014648;
93273;0.014648;0.039062;1.015625;
93413;0.013672;0.036133;1.012695;
93553;0.015625;0.038086;1.009766;
93693;0.015625;0.038086;1.012695;
93833;0.015625;0.036133;1.012695;
93973;0.015625;0.038086;1.014648;
94113;0.013672;0.040039;1.012695;
94253;0.015625;0.038086;1.001953;
94393;0.016602;0.038086;1.022461;
94539;0.015625;0.035156;1.021484;
94688;0.013672;0.040039;1.019531;
94829;0.017578;0.036133;1.029297;
94979;0.015625;0.037109;1.018555;
95143;0.015625;0.037109;1.023438;
95283;0.015625;0.040039;1.020508;
95423;0.013672;0.038086;1.018555;
95573;0.011719;0.038086;1.006836;
95713;0.011719;0.041992;1.017578;
95853;0.013672;0.036133;1.025391;
96003;0.011719;0.035156;1.019531;
96143;0.013672;0.040039;1.029297;
96283;0.014648;0.038086;1.023438;
96423;0.013672;0.038086;1.016602;
96563;0.013672;0.041992;1.013672;
96713;0.012695;0.038086;1.020508;
96853;0.012695;0.037109;1.014648;
96993;0.015625;0.041016;1.021484;
97140;0.014648;0.038086;1.023438;
97290;0.017578;0.039062;1.015625;
97449;0.014648;0.041016;1.013672;
97613;0.014648;0.039062;1.018555;
97753;0.013672;0.036133;1.012695;
97893;0.014648;0.039062;1.019531;
98033;0.015625;0.038086;1.013672;
98183;0.015625;0.036133;1.011719;
98323;0.013672;0.037109;1.008789;
98463;0.012695;0.041992;1.021484;
98603;0.012695;0.032227;1.013672;
98743;0.010742;0.035156;1.023438;
98883;0.011719;0.040039;1.034180;
99023;0.012695;0.037109;1.023438;
99163;0.016602;0.039062;1.032227;
99303;0.016602;0.036133;1.038086;
99443;0.013672;0.040039;1.028320;
99579;0.015625;0.041016;1.037109;
99739;0.017578;0.037109;1.017578;
99898;0.015625;0.039062;1.024414;
100053;0.017578;0.041016;1.029297;
100193;0.014648;0.040039;1.023438;
100333;0.010742;0.037109;1.026367;
100483;0.017578;0.041992;1.040039;
100623;0.011719;0.041992;1.034180;
100763;0.013672;0.038086;1.023438;
100903;0.014648;0.040039;1.037109;
101043;0.014648;0.041016;1.036133;
101183;0.015625;0.037109;1.030273;
101333;0.017578;0.035156;1.033203;
101473;0.014648;0.039062;1.025391;
101613;0.015625;0.041016;1.023438;
101753;0.012695;0.037109;1.024414;
101893;0.015625;0.037109;1.018555;
102033;0.014648;0.038086;1.032227;
102179;0.013672;0.038086;1.023438;
102339;0.010742;0.036133;1.014648;
102500;0.012695;0.036133;1.015625;
102663;0.013672;0.038086;1.025391;
102803;0.014648;0.034180;1.014648;
102943;0.014648;0.038086;1.024414;
103083;0.013672;0.038086;1.020508;
103223;0.015625;0.039062;1.023438;
103363;0.015625;0.039062;1.021484;
103503;0.015625;0.041992;1.021484;
103643;0.019531;0.043945;1.026367;
103793;0.014648;0.040039;1.027344;
103934;0.014648;0.043945;1.018555;
104073;0.015625;0.042969;1.037109;
104223;0.014648;0.037109;1.015625;
104363;0.013672;0.038086;1.033203;
104503;0.012695;0.040039;1.023438;
104649;0.013672;0.040039;1.033203;
104803;0.014648;0.039062;1.028320;
104939;0.013672;0.039062;1.034180;
105089;0.017578;0.040039;1.025391;
105239;0.014648;0.038086;1.013672;
105393;0.010742;0.039062;1.011719;
105533;0.014648;0.038086;1.008789;
105673;0.016602;0.041016;1.019531;
105813;0.015625;0.041016;1.017578;
105953;0.013672;0.038086;1.005859;
106093;0.014648;0.037109;1.025391;
106233;0.012695;0.041016;1.017578;
106373;0.013672;0.037109;1.024414;
106513;0.014648;0.041992;1.028320;
106653;0.014648;0.038086;1.029297;
106793;0.015625;0.038086;1.023438;
106933;0.017578;0.043945;1.042969;
107073;0.017578;0.039062;1.031250;
107213;0.016602;0.039062;1.030273;
107369;0.016602;0.035156;1.028320;
107529;0.015625;0.036133;1.021484;
107689;0.014648;0.032227;1.025391;
107853;0.017578;0.037109;1.030273;
107993;0.016602;0.037109;1.025391;
108133;0.017578;0.038086;1.026367;
108273;0.014648;0.038086;1.022461;
108413;0.018555;0.035156;1.028320;
108563;0.016602;0.031250;1.013672;
108703;0.016602;0.041016;1.030273;
108843;0.015625;0.038086;1.025391;
108993;0.016602;0.041016;1.021484;
109133;0.015625;0.041016;1.025391;
109273;0.014648;0.039062;1.029297;
109423;0.017578;0.037109;1.025391;
109563;0.013672;0.040039;1.032227;
109703;0.014648;0.040039;1.023438;
109849;0.014648;0.038086;1.029297;
110009;0.016602;0.039062;1.028320;
110169;0.018555;0.037109;1.027344;
110323;0.013672;0.041016;1.016602;
110473;0.012695;0.039062;1.009766;
110613;0.014648;0.037109;1.026367;
110753;0.016602;0.038086;1.023438;
110893;0.015625;0.039062;1.026367;
111033;0.013672;0.039062;1.023438;
111173;0.017578;0.041992;1.023438;
111313;0.015625;0.042969;1.021484;
111453;0.014648;0.041992;1.025391;
111593;0.015625;0.038086;1.012695;
111733;0.015625;0.041992;1.025391;
111873;0.014648;0.040039;1.031250;
112013;0.019531;0.039062;1.032227;
112153;0.017578;0.038086;1.020508;
112289;0.018555;0.041992;1.021484;
112439;0.016602;0.039062;1.015625;
112608;0.017578;0.041016;1.026367;
112773;0.016602;0.039062;1.030273;
112923;0.018555;0.039062;1.019531;
113063;0.020508;0.039062;1.028320;
113213;0.018555;0.041992;1.019531;
113353;0.017578;0.039062;1.022461;
113493;0.015625;0.038086;1.013672;
113643;0.016602;0.039062;1.018555;
113783;0.020508;0.040039;1.025391;
113933;0.021484;0.040039;1.022461;
114073;0.018555;0.041016;1.020508;
114213;0.019531;0.039062;1.026367;
114363;0.019531;0.040039;1.020508;
114503;0.018555;0.039062;1.019531;
114643;0.019531;0.037109;1.032227;
114790;0.021484;0.035156;1.024414;
114939;0.021484;0.038086;1.031250;
115099;0.018555;0.041016;1.024414;
115252;0.020508;0.038086;1.024414;
115403;0.017578;0.039062;1.027344;
115543;0.020508;0.038086;1.034180;
115683;0.018555;0.032227;1.031250;
115833;0.020508;0.036133;1.029297;
115973;0.021484;0.035156;1.021484;
116113;0.020508;0.034180;1.025391;
116253;0.020508;0.035156;1.038086;
116393;0.023438;0.040039;1.031250;
116543;0.022461;0.036133;1.017578;
116683;0.020508;0.039062;1.023438;
116823;0.020508;0.041992;1.027344;
116963;0.024414;0.039062;1.033203;
117103;0.021484;0.041992;1.025391;
117243;0.020508;0.041016;1.027344;
117389;0.021484;0.041016;1.024414;
117549;0.023438;0.040039;1.023438;
117700;0.022461;0.041016;1.032227;
117863;0.023438;0.039062;1.024414;
118013;0.021484;0.037109;1.028320;
118153;0.023438;0.042969;1.025391;
118293;0.024414;0.038086;1.024414;
118433;0.023438;0.038086;1.022461;
118573;0.020508;0.039062;1.023438;
118723;0.022461;0.038086;1.030273;
118863;0.023438;0.037109;1.031250;
119003;0.023438;0.037109;1.024414;
119143;0.023438;0.039062;1.025391;
119283;0.026367;0.041016;1.024414;
119423;0.022461;0.040039;1.017578;
119573;0.022461;0.036133;1.016602;
119713;0.024414;0.034180;1.022461;
119870;0.024414;0.038086;1.027344;
120029;0.023438;0.040039;1.020508;
120189;0.020508;0.035156;1.016602;
120329;0.024414;0.039062;1.029297;
120483;0.026367;0.038086;1.024414;
120633;0.022461;0.043945;1.021484;
120773;0.022461;0.041016;1.027344;
120913;0.024414;0.037109;1.031250;
121053;0.025391;0.041016;1.027344;
121193;0.024414;0.039062;1.021484;
121333;0.022461;0.039062;1.032227;
121473;0.025391;0.036133;1.020508;
121613;0.025391;0.035156;1.024414;
121753;0.028320;0.041992;1.029297;
121893;0.027344;0.037109;1.017578;
122033;0.024414;0.037109;1.022461;
122173;0.024414;0.037109;1.024414;
122313;0.026367;0.039062;1.028320;
122459;0.024414;0.040039;1.023438;
122609;0.026367;0.041992;1.028320;
122739;0.025391;0.041016;1.019531;
122891;0.025391;0.040039;1.025391;
123053;0.023438;0.040039;1.024414;
123193;0.027344;0.039062;1.025391;
123334;0.024414;0.041016;1.027344;
123473;0.024414;0.037109;1.023438;
123613;0.025391;0.041016;1.022461;
123753;0.022461;0.037109;1.022461;
123893;0.027344;0.039062;1.025391;
124033;0.026367;0.040039;1.021484;
124183;0.025391;0.041992;1.022461;
124323;0.027344;0.036133;1.029297;
124463;0.024414;0.039062;1.018555;
124613;0.026367;0.039062;1.028320;
124753;0.027344;0.036133;1.022461;
124893;0.025391;0.037109;1.013672;
125039;0.027344;0.041016;1.028320;
125190;0.027344;0.037109;1.022461;
125349;0.028320;0.035156;1.020508;
125503;0.024414;0.039062;1.025391;
125643;0.028320;0.039062;1.018555;
125783;0.027344;0.038086;1.025391;
125933;0.024414;0.041016;1.035156;
126073;0.027344;0.041992;1.026367;
126213;0.029297;0.040039;1.020508;
126363;0.028320;0.040039;1.031250;
126503;0.028320;0.038086;1.024414;
126643;0.026367;0.039062;1.033203;
126783;0.026367;0.036133;1.023438;
126923;0.026367;0.036133;1.028320;
127074;0.028320;0.036133;1.025391;
127213;0.025391;0.041992;1.030273;
127363;0.027344;0.038086;1.016602;
127499;0.030273;0.037109;1.025391;
127650;0.025391;0.036133;1.020508;
127809;0.028320;0.040039;1.037109;
127963;0.027344;0.039062;1.029297;
128113;0.027344;0.041992;1.026367;
128253;0.030273;0.037109;1.035156;
128393;0.027344;0.042969;1.007812;
128533;0.027344;0.047852;1.026367;
128673;0.028320;0.040039;1.023438;
128823;0.027344;0.044922;1.019531;
128963;0.028320;0.042969;1.016602;
129103;0.027344;0.041016;1.027344;
129243;0.028320;0.040039;1.025391;
129383;0.030273;0.039062;1.014648;
129533;0.025391;0.039062;1.017578;
129673;0.026367;0.038086;1.013672;
129813;0.028320;0.041016;1.028320;
129949;0.028320;0.038086;1.025391;
130110;0.028320;0.039062;1.021484;
130271;0.027344;0.040039;1.027344;
130419;0.031250;0.037109;1.032227;
130573;0.031250;0.036133;1.022461;
130713;0.027344;0.038086;1.041016;
130853;0.027344;0.040039;1.033203;
131003;0.030273;0.041016;1.035156;
131143;0.031250;0.037109;1.033203;
131283;0.029297;0.041992;1.041016;
131423;0.030273;0.040039;1.031250;
131563;0.030273;0.041992;1.038086;
131703;0.030273;0.037109;1.045898;
131843;0.027344;0.035156;1.029297;
131983;0.032227;0.037109;1.032227;
132133;0.028320;0.041016;1.021484;
132273;0.028320;0.039062;1.030273;
132413;0.029297;0.041992;1.021484;
132560;0.032227;0.041016;1.038086;
132719;0.033203;0.031250;1.043945;
132880;0.029297;0.037109;1.023438;
133043;0.028320;0.038086;1.025391;
133183;0.031250;0.041016;1.025391;
133323;0.028320;0.038086;1.027344;
133463;0.029297;0.042969;1.029297;
133603;0.028320;0.041016;1.033203;
133743;0.029297;0.043945;1.034180;
133883;0.026367;0.037109;1.024414;
134023;0.030273;0.043945;1.018555;
134163;0.029297;0.040039;1.014648;
134303;0.027344;0.041992;1.028320;
134443;0.027344;0.040039;1.016602;
134583;0.030273;0.039062;1.024414;
134723;0.028320;0.041016;1.023438;
134863;0.027344;0.034180;1.020508;
134999;0.028320;0.040039;1.015625;
135149;0.029297;0.041016;1.026367;
135309;0.030273;0.035156;1.029297;
135463;0.029297;0.041016;1.035156;
135599;0.028320;0.037109;1.040039;
135749;0.026367;0.039062;1.001953;
135914;0.029297;0.042969;1.021484;
136053;0.028320;0.038086;1.019531;
136193;0.028320;0.039062;1.022461;
136333;0.028320;0.041016;1.019531;
136473;0.025391;0.041016;1.021484;
136613;0.030273;0.041016;1.022461;
136753;0.028320;0.039062;1.028320;
136893;0.028320;0.041992;1.029297;
137033;0.030273;0.040039;1.023438;
137173;0.029297;0.041992;1.020508;
137313;0.026367;0.041992;1.014648;
137453;0.028320;0.040039;1.015625;
137593;0.028320;0.036133;1.011719;
137733;0.027344;0.040039;1.020508;
137869;0.032227;0.040039;1.022461;
138019;0.027344;0.038086;1.028320;
138180;0.029297;0.035156;1.016602;
138319;0.032227;0.035156;1.020508;
138463;0.028320;0.037109;1.023438;
138603;0.029297;0.036133;1.014648;
138743;0.029297;0.036133;1.026367;
138883;0.029297;0.036133;1.024414;
139023;0.028320;0.037109;1.028320;
139163;0.030273;0.039062;1.024414;
139303;0.028320;0.040039;1.023438;
139443;0.032227;0.034180;1.026367;
139583;0.028320;0.040039;1.025391;
139723;0.031250;0.034180;1.023438;
139863;0.029297;0.036133;1.019531;
140003;0.031250;0.034180;1.029297;
140143;0.031250;0.040039;1.019531;
140283;0.029297;0.039062;1.035156;
140418;0.026367;0.037109;1.029297;
140570;0.029297;0.042969;1.032227;
140728;0.031250;0.035156;1.024414;
140880;0.028320;0.041992;1.027344;
141043;0.030273;0.041992;1.023438;
141183;0.030273;0.042969;1.026367;
141323;0.029297;0.044922;1.024414;
141463;0.026367;0.040039;1.021484;
141603;0.030273;0.038086;1.020508;
141753;0.027344;0.036133;1.021484;
141894;0.029297;0.042969;1.023438;
142033;0.027344;0.041016;1.009766;
142173;0.032227;0.038086;1.021484;
142313;0.027344;0.036133;1.015625;
142453;0.028320;0.043945;1.029297;
142593;0.033203;0.037109;1.027344;
142733;0.026367;0.041016;1.029297;
142873;0.029297;0.041016;1.020508;
143009;0.027344;0.035156;1.023438;
143159;0.028320;0.037109;1.019531;
143299;0.029297;0.035156;1.025391;
143449;0.028320;0.037109;1.022461;
143590;0.027344;0.037109;1.025391;
143753;0.029297;0.039062;1.027344;
143893;0.027344;0.041016;1.016602;
144033;0.026367;0.041016;1.028320;
144173;0.030273;0.042969;1.018555;
144313;0.027344;0.038086;1.014648;
144453;0.029297;0.039062;1.022461;
144593;0.027344;0.041992;1.028320;
144733;0.030273;0.038086;1.013672;
144873;0.031250;0.041992;1.021484;
145013;0.028320;0.044922;1.028320;
145153;0.029297;0.045898;1.015625;
145293;0.030273;0.040039;1.019531;
145433;0.027344;0.041992;1.022461;
145573;0.028320;0.041016;1.020508;
145723;0.028320;0.041016;1.013672;
145849;0.030273;0.042969;1.028320;
145999;0.027344;0.041992;1.015625;
146159;0.027344;0.044922;1.027344;
146323;0.031250;0.041016;1.025391;
146463;0.028320;0.042969;1.025391;
146603;0.028320;0.040039;1.023438;
146743;0.028320;0.040039;1.022461;
146883;0.032227;0.037109;1.024414;
147033;0.030273;0.038086;1.040039;
147173;0.028320;0.039062;1.043945;
147313;0.029297;0.038086;1.029297;
147463;0.031250;0.034180;1.041016;
147603;0.029297;0.030273;1.019531;
147743;0.029297;0.035156;1.021484;
147893;0.028320;0.035156;1.018555;
148033;0.027344;0.038086;1.033203;
148173;0.029297;0.037109;1.033203;
148309;0.029297;0.041016;1.035156;
148460;0.029297;0.039062;1.038086;
148619;0.031250;0.040039;1.034180;
148769;0.029297;0.042969;1.038086;
148913;0.028320;0.041016;1.034180;
149053;0.030273;0.041992;1.037109;
149193;0.029297;0.038086;1.025391;
149343;0.032227;0.036133;1.028320;
149483;0.028320;0.041016;1.016602;
149623;0.027344;0.041016;1.016602;
149763;0.028320;0.041016;1.012695;
149903;0.029297;0.040039;1.021484;
150043;0.028320;0.041016;1.026367;
150183;0.027344;0.036133;1.022461;
150323;0.032227;0.041992;1.019531;
150463;0.029297;0.033203;1.034180;
150613;0.026367;0.038086;1.033203;
150753;0.030273;0.041016;1.021484;
150899;0.028320;0.041016;1.024414;
151059;0.028320;0.037109;1.019531;
151219;0.026367;0.040039;1.002930;
151383;0.026367;0.037109;1.010742;
151523;0.030273;0.035156;1.021484;
151663;0.030273;0.041016;1.041992;
151803;0.030273;0.036133;1.026367;
151943;0.032227;0.038086;1.024414;
152083;0.028320;0.040039;1.021484;
152223;0.025391;0.035156;1.033203;
152363;0.030273;0.033203;1.025391;
152503;0.028320;0.032227;1.028320;
152643;0.027344;0.038086;1.026367;
152783;0.032227;0.035156;1.023438;
152923;0.028320;0.040039;1.031250;
153063;0.030273;0.035156;1.022461;
153203;0.029297;0.043945;1.031250;
153339;0.027344;0.038086;1.021484;
153489;0.029297;0.041992;1.030273;
153649;0.033203;0.039062;1.021484;
153803;0.028320;0.041016;1.020508;
153943;0.027344;0.043945;1.031250;
154083;0.026367;0.039062;1.027344;
154223;0.030273;0.039062;1.032227;
154363;0.029297;0.041992;1.027344;
154503;0.025391;0.039062;1.023438;
154643;0.031250;0.030273;1.020508;
154783;0.030273;0.028320;1.027344;
154933;0.028320;0.032227;1.020508;
155073;0.029297;0.025391;1.021484;
155223;0.031250;0.026367;1.025391;
155363;0.026367;0.024414;1.023438;
155503;0.030273;0.035156;1.019531;
155653;0.029297;0.035156;1.023438;
155789;0.029297;0.041016;1.028320;
155939;0.024414;0.042969;1.004883;
156099;0.027344;0.042969;1.003906;
156259;0.027344;0.041992;1.012695;
156414;0.028320;0.040039;1.021484;
156553;0.028320;0.043945;1.030273;
156693;0.027344;0.037109;1.026367;
156843;0.030273;0.034180;1.044922;
156983;0.031250;0.032227;1.056641;
157123;0.032227;0.041016;1.080078;
157263;0.028320;0.034180;1.059570;
157403;0.029297;0.044922;1.052734;
157543;0.035156;0.040039;1.043945;
157683;0.026367;0.040039;1.044922;
157823;0.033203;0.032227;1.021484;
157963;0.030273;0.045898;1.009766;
158103;0.025391;0.038086;1.003906;
158243;0.027344;0.038086;1.020508;
158379;0.027344;0.041016;1.015625;
158529;0.027344;0.039062;1.019531;
158689;0.028320;0.035156;1.032227;
158839;0.031250;0.040039;1.038086;
158983;0.026367;0.045898;1.030273;
159123;0.031250;0.044922;1.026367;
159273;0.026367;0.037109;1.017578;
159414;0.029297;0.048828;1.035156;
159553;0.029297;0.043945;1.028320;
159703;0.024414;0.039062;1.016602;
159843;0.027344;0.041992;1.005859;
159983;0.030273;0.041992;1.030273;
160124;0.024414;0.034180;1.010742;
160263;0.028320;0.035156;0.992188;
160413;0.030273;0.038086;1.011719;
160553;0.027344;0.035156;1.018555;
160693;0.034180;0.031250;1.041016;
160833;0.028320;0.032227;1.032227;
160990;0.028320;0.029297;1.030273;
161150;0.029297;0.034180;1.027344;
161309;0.032227;0.034180;1.024414;
161453;0.023438;0.040039;1.006836;
161593;0.023438;0.039062;0.989258;
161733;0.027344;0.041016;1.000000;
161873;0.024414;0.037109;1.023438;
162013;0.026367;0.046875;1.040039;
162153;0.029297;0.041992;1.018555;
162293;0.028320;0.051758;1.020508;
162433;0.031250;0.036133;1.017578;
162573;0.026367;0.041992;1.025391;
162713;0.030273;0.036133;1.020508;
162853;0.033203;0.035156;1.018555;
163003;0.025391;0.032227;1.025391;
163143;0.027344;0.040039;1.024414;
163283;0.031250;0.035156;1.018555;
163429;0.025391;0.033203;1.033203;
163579;0.029297;0.035156;1.052734;
163729;0.034180;0.034180;1.041992;
163870;0.027344;0.035156;1.046875;
164023;0.030273;0.038086;1.047852;
164163;0.029297;0.038086;1.041016;
164303;0.026367;0.037109;1.044922;
164443;0.026367;0.044922;1.023438;
164583;0.027344;0.046875;1.013672;
164723;0.023438;0.041992;1.015625;
164873;0.027344;0.040039;1.013672;
165013;0.030273;0.037109;1.009766;
165153;0.029297;0.038086;1.006836;
165303;0.025391;0.038086;1.018555;
165443;0.025391;0.039062;1.012695;
165583;0.027344;0.034180;1.030273;
165723;0.028320;0.032227;1.011719;
165863;0.030273;0.037109;1.029297;
165999;0.029297;0.037109;1.033203;
166148;0.027344;0.034180;1.019531;
166303;0.028320;0.040039;1.024414;
166443;0.029297;0.037109;1.024414;
166579;0.029297;0.038086;1.032227;
166729;0.028320;0.038086;1.028320;
166893;0.028320;0.038086;1.028320;
167043;0.028320;0.041016;1.028320;
167183;0.028320;0.040039;1.018555;
167323;0.028320;0.041016;1.028320;
167463;0.025391;0.040039;1.033203;
167603;0.030273;0.042969;1.035156;
167743;0.029297;0.048828;1.038086;
167883;0.025391;0.044922;1.026367;
168023;0.027344;0.040039;1.032227;
168163;0.027344;0.049805;1.018555;
168303;0.025391;0.049805;1.011719;
168443;0.027344;0.041016;1.000000;
168583;0.026367;0.041992;0.996094;
168723;0.028320;0.047852;0.997070;
168863;0.023438;0.041992;0.994141;
168999;0.029297;0.041016;1.012695;
169139;0.025391;0.043945;1.026367;
169299;0.028320;0.034180;1.030273;
169463;0.030273;0.027344;1.025391;
169603;0.032227;0.028320;1.027344;
169753;0.028320;0.029297;1.019531;
169893;0.026367;0.023438;1.024414;
170033;0.026367;0.027344;1.032227;
170173;0.029297;0.031250;1.023438;
170313;0.029297;0.036133;1.034180;
170453;0.026367;0.035156;1.032227;
170603;0.026367;0.041992;1.022461;
170743;0.031250;0.034180;1.041992;
170883;0.027344;0.033203;1.034180;
171023;0.031250;0.035156;1.030273;
171163;0.030273;0.044922;1.029297;
171303;0.026367;0.045898;1.038086;
171443;0.026367;0.046875;1.030273;
171599;0.027344;0.046875;1.026367;
171749;0.027344;0.041992;1.022461;
171910;0.025391;0.041992;1.023438;
172073;0.027344;0.044922;1.022461;
172213;0.026367;0.041016;1.014648;
172353;0.028320;0.039062;1.027344;
172493;0.028320;0.034180;1.041016;
172633;0.028320;0.037109;1.032227;
172783;0.028320;0.038086;1.038086;
172923;0.027344;0.034180;1.035156;
173063;0.025391;0.037109;1.033203;
173203;0.028320;0.036133;1.017578;
173343;0.028320;0.034180;1.016602;
173483;0.027344;0.032227;1.023438;
173623;0.024414;0.034180;1.024414;
173763;0.028320;0.037109;1.032227;
173903;0.026367;0.034180;1.031250;
174059;0.028320;0.041016;1.049805;
174219;0.030273;0.040039;1.039062;
174378;0.029297;0.036133;1.034180;
174543;0.029297;0.040039;1.038086;
174683;0.028320;0.045898;1.037109;
174823;0.027344;0.041992;1.032227;
174963;0.029297;0.040039;1.021484;
175103;0.026367;0.038086;1.012695;
175253;0.026367;0.041016;1.022461;
175393;0.028320;0.040039;1.018555;
175533;0.024414;0.042969;1.009766;
175673;0.024414;0.039062;0.993164;
175813;0.025391;0.036133;1.010742;
175953;0.027344;0.038086;1.031250;
176093;0.027344;0.040039;1.039062;
176243;0.027344;0.041992;1.039062;
176383;0.027344;0.037109;1.029297;
176529;0.032227;0.038086;1.047852;
176689;0.027344;0.039062;1.037109;
176849;0.027344;0.038086;1.020508;
177013;0.031250;0.036133;1.042969;
177153;0.030273;0.040039;1.037109;
177293;0.026367;0.036133;1.025391;
177433;0.027344;0.034180;1.029297;
177573;0.027344;0.038086;1.008789;
177713;0.030273;0.041016;1.023438;
177853;0.025391;0.039062;1.022461;
177993;0.025391;0.039062;1.026367;
178133;0.029297;0.036133;1.010742;
178273;0.028320;0.032227;1.019531;
178423;0.029297;0.033203;1.036133;
178563;0.031250;0.038086;1.047852;
178703;0.028320;0.041992;1.049805;
178843;0.030273;0.039062;1.045898;
178979;0.027344;0.037109;1.050781;
179129;0.026367;0.035156;1.022461;
179290;0.027344;0.043945;1.022461;
179450;0.027344;0.034180;1.028320;
179593;0.023438;0.036133;1.023438;
179743;0.029297;0.041016;1.020508;
179883;0.027344;0.041992;1.024414;
180023;0.026367;0.039062;1.034180;
180173;0.029297;0.036133;1.022461;
180313;0.028320;0.039062;1.023438;
180453;0.027344;0.035156;1.024414;
180593;0.026367;0.039062;1.017578;
180733;0.027344;0.041016;1.038086;
180873;0.026367;0.038086;1.011719;
181013;0.025391;0.043945;1.015625;
181153;0.026367;0.040039;1.012695;
181293;0.024414;0.041992;1.006836;
181443;0.025391;0.036133;1.013672;
181580;0.024414;0.035156;1.008789;
181729;0.022461;0.034180;1.007812;
181879;0.029297;0.041016;1.020508;
182029;0.026367;0.038086;1.009766;
182183;0.025391;0.037109;1.018555;
182323;0.028320;0.033203;1.015625;
182463;0.027344;0.037109;1.020508;
182603;0.025391;0.030273;1.024414;
182743;0.025391;0.036133;1.011719;
182883;0.026367;0.037109;1.031250;
183023;0.029297;0.030273;1.031250;
183163;0.026367;0.025391;1.028320;
183303;0.024414;0.037109;1.016602;
183444;0.026367;0.033203;0.999023;
183583;0.027344;0.040039;1.030273;
183723;0.025391;0.041016;1.041016;
183863;0.024414;0.044922;1.040039;
184003;0.029297;0.039062;1.020508;
184139;0.023438;0.040039;1.013672;
184289;0.027344;0.040039;1.024414;
184440;0.024414;0.041016;1.022461;
184599;0.024414;0.042969;1.030273;
184753;0.026367;0.041992;1.021484;
184893;0.025391;0.037109;1.013672;
185033;0.025391;0.043945;1.035156;
185173;0.026367;0.040039;1.016602;
185313;0.028320;0.039062;1.022461;
185453;0.027344;0.037109;1.012695;
185593;0.024414;0.038086;1.007812;
185733;0.024414;0.040039;1.017578;
185873;0.026367;0.040039;1.002930;
186023;0.026367;0.039062;1.017578;
186163;0.025391;0.042969;1.011719;
186303;0.025391;0.036133;1.012695;
186443;0.026367;0.037109;1.009766;
186583;0.027344;0.038086;1.014648;
186729;0.024414;0.034180;1.031250;
186873;0.029297;0.041016;1.031250;
187009;0.022461;0.041016;1.016602;
187169;0.026367;0.041992;1.026367;
187331;0.029297;0.039062;1.034180;
187493;0.025391;0.035156;1.032227;
187633;0.027344;0.029297;1.039062;
187773;0.028320;0.035156;1.031250;
187913;0.028320;0.038086;1.037109;
188053;0.025391;0.042969;1.041016;
188193;0.024414;0.041992;1.039062;
188333;0.025391;0.043945;1.037109;
188483;0.026367;0.038086;1.029297;
188623;0.025391;0.033203;1.026367;
188763;0.021484;0.040039;1.026367;
188903;0.024414;0.039062;1.029297;
189043;0.025391;0.034180;1.024414;
189183;0.028320;0.040039;1.038086;
189323;0.025391;0.034180;1.037109;
189448;0.025391;0.040039;1.033203;
189599;0.025391;0.037109;1.033203;
189759;0.025391;0.041016;1.028320;
189909;0.026367;0.030273;1.029297;
190063;0.022461;0.038086;1.028320;
190203;0.022461;0.032227;1.031250;
190343;0.027344;0.035156;1.030273;
190483;0.024414;0.033203;1.024414;
190623;0.025391;0.037109;1.019531;
190763;0.027344;0.033203;1.021484;
190913;0.021484;0.040039;1.031250;
191053;0.023438;0.042969;1.025391;
191193;0.028320;0.042969;1.028320;
191333;0.021484;0.034180;1.022461;
191473;0.022461;0.045898;1.031250;
191613;0.022461;0.043945;1.005859;
191753;0.022461;0.040039;1.004883;
191893;0.025391;0.034180;1.020508;
192040;0.023438;0.038086;1.024414;
192199;0.025391;0.031250;1.025391;
192349;0.020508;0.039062;1.026367;
192503;0.027344;0.031250;1.032227;
192643;0.024414;0.037109;1.018555;
192783;0.026367;0.036133;1.038086;
192923;0.026367;0.039062;1.038086;
193063;0.024414;0.032227;1.039062;
193203;0.024414;0.039062;1.037109;
193343;0.026367;0.035156;1.029297;
193483;0.027344;0.038086;1.036133;
193623;0.026367;0.036133;1.043945;
193763;0.024414;0.039062;1.036133;
193903;0.027344;0.039062;1.041016;
194043;0.024414;0.036133;1.036133;
194183;0.023438;0.030273;1.027344;
194323;0.024414;0.038086;1.022461;
194469;0.024414;0.036133;1.013672;
194619;0.024414;0.039062;1.018555;
194779;0.021484;0.041016;1.031250;
194933;0.026367;0.037109;1.027344;
195083;0.026367;0.036133;1.026367;
195223;0.020508;0.045898;1.034180;
195363;0.022461;0.038086;1.036133;
195503;0.023438;0.037109;1.022461;
195643;0.024414;0.038086;1.035156;
195783;0.025391;0.041992;1.025391;
195923;0.022461;0.039062;1.022461;
196063;0.023438;0.037109;1.027344;
196203;0.027344;0.038086;1.025391;
196343;0.023438;0.041016;1.029297;
196483;0.025391;0.036133;1.025391;
196633;0.023438;0.037109;1.021484;
196773;0.022461;0.041016;1.022461;
196913;0.023438;0.037109;1.018555;
197059;0.024414;0.038086;1.031250;
197209;0.024414;0.038086;1.032227;
197369;0.021484;0.035156;1.018555;
197523;0.024414;0.042969;1.020508;
197663;0.020508;0.040039;1.020508;
197803;0.021484;0.037109;1.024414;
197943;0.026367;0.040039;1.028320;
198093;0.021484;0.041016;1.016602;
198233;0.022461;0.035156;1.021484;
198373;0.020508;0.036133;1.014648;
198523;0.019531;0.038086;1.014648;
198663;0.018555;0.038086;1.003906;
198803;0.025391;0.034180;1.008789;
198943;0.022461;0.031250;1.001953;
199083;0.019531;0.035156;1.021484;
199223;0.024414;0.035156;1.020508;
199363;0.022461;0.042969;1.017578;
199509;0.021484;0.040039;1.017578;
199668;0.025391;0.038086;1.024414;
199831;0.024414;0.039062;1.015625;
199983;0.024414;0.038086;1.021484;
200123;0.022461;0.041016;1.018555;
200263;0.024414;0.039062;1.024414;
200403;0.021484;0.040039;1.019531;
200543;0.022461;0.040039;1.028320;
200683;0.024414;0.038086;1.019531;
200823;0.023438;0.038086;1.018555;
200963;0.021484;0.036133;1.016602;
201103;0.022461;0.039062;1.020508;
201243;0.021484;0.035156;1.012695;
201393;0.023438;0.038086;1.025391;
201533;0.024414;0.041992;1.021484;
201673;0.025391;0.041992;1.020508;
201813;0.022461;0.034180;1.031250;
201949;0.023438;0.035156;1.020508;
202099;0.023438;0.037109;1.020508;
202249;0.022461;0.038086;1.018555;
202409;0.021484;0.033203;1.036133;
202553;0.023438;0.033203;1.007812;
202693;0.024414;0.038086;1.026367;
202833;0.021484;0.030273;1.023438;
202973;0.019531;0.038086;1.012695;
203113;0.022461;0.038086;1.018555;
203253;0.023438;0.039062;1.027344;
203393;0.027344;0.040039;1.016602;
203533;0.023438;0.040039;1.022461;
203673;0.025391;0.034180;1.027344;
203823;0.022461;0.036133;1.017578;
203963;0.024414;0.041016;1.026367;
204103;0.020508;0.034180;1.015625;
204253;0.025391;0.037109;1.014648;
204393;0.024414;0.042969;1.023438;
204529;0.024414;0.042969;1.031250;
204679;0.022461;0.041016;1.024414;
204829;0.021484;0.041992;1.033203;
204970;0.024414;0.037109;1.026367;
205123;0.028320;0.040039;1.029297;
205263;0.023438;0.036133;1.023438;
205413;0.024414;0.037109;1.033203;
205553;0.027344;0.036133;1.033203;
205693;0.024414;0.039062;1.029297;
205843;0.023438;0.034180;1.031250;
205983;0.026367;0.037109;1.036133;
206123;0.024414;0.039062;1.017578;
206263;0.023438;0.037109;1.026367;
206403;0.025391;0.034180;1.022461;