Time;acc_x;acc_y;acc_z;

209256;0.026367;0.041992;1.028320;
209474;0.026367;0.035156;1.022461;
209624;0.024414;0.034180;1.021484;
209764;0.022461;0.038086;1.022461;
209904;0.025391;0.041016;1.028320;
210044;0.024414;0.037109;1.007812;
210184;0.026367;0.037109;1.016602;
210324;0.025391;0.035156;1.023438;
210464;0.023438;0.038086;1.020508;
210604;0.025391;0.035156;1.028320;
210744;0.022461;0.036133;1.024414;
210884;0.023438;0.038086;1.015625;
211024;0.028320;0.038086;1.017578;
211164;0.023438;0.038086;1.017578;
211304;0.023438;0.037109;1.021484;
211444;0.024414;0.041992;1.031250;
211584;0.021484;0.037109;1.012695;
211724;0.025391;0.041016;1.016602;
211861;0.026367;0.036133;1.012695;
212020;0.023438;0.039062;1.018555;
212179;0.026367;0.037109;1.026367;
212354;0.024414;0.037109;1.031250;
212494;0.027344;0.039062;1.025391;
212644;0.027344;0.039062;1.026367;
212784;0.028320;0.034180;1.028320;
212924;0.026367;0.037109;1.024414;
213059;0.027344;0.041992;1.041016;
213204;0.024414;0.038086;1.027344;
213344;0.025391;0.036133;1.024414;
213484;0.027344;0.036133;1.031250;
213624;0.027344;0.035156;1.020508;
213764;0.026367;0.037109;1.028320;
213904;0.028320;0.036133;1.031250;
214044;0.025391;0.037109;1.017578;
214184;0.029297;0.039062;1.037109;
214320;0.027344;0.041992;1.025391;
214479;0.027344;0.037109;1.027344;
214630;0.028320;0.034180;1.038086;
214784;0.027344;0.040039;1.029297;
214924;0.029297;0.035156;1.029297;
215074;0.028320;0.040039;1.021484;
215214;0.025391;0.037109;1.035156;
215354;0.028320;0.041016;1.029297;
215504;0.028320;0.040039;1.026367;
215644;0.028320;0.041016;1.036133;
215784;0.025391;0.041016;1.034180;
215924;0.026367;0.040039;1.034180;
216064;0.029297;0.037109;1.022461;
216204;0.028320;0.036133;1.032227;
216354;0.027344;0.036133;1.029297;
216494;0.027344;0.038086;1.020508;
216634;0.028320;0.040039;1.037109;
216774;0.028320;0.037109;1.022461;
216914;0.025391;0.040039;1.038086;
217051;0.030273;0.037109;1.032227;
217189;0.028320;0.036133;1.028320;
217349;0.029297;0.036133;1.036133;
217514;0.028320;0.038086;1.038086;
217654;0.026367;0.041992;1.031250;
217794;0.029297;0.034180;1.037109;
217944;0.030273;0.041992;1.034180;
218084;0.030273;0.040039;1.034180;
218224;0.024414;0.041016;1.030273;
218364;0.029297;0.041016;1.037109;
218504;0.031250;0.037109;1.022461;
218644;0.026367;0.039062;1.034180;
218784;0.026367;0.037109;1.032227;
218934;0.027344;0.037109;1.020508;
219074;0.028320;0.035156;1.024414;
219214;0.028320;0.040039;1.025391;
219354;0.031250;0.038086;1.031250;
219489;0.030273;0.039062;1.025391;
219649;0.029297;0.035156;1.029297;
219809;0.029297;0.038086;1.038086;
219974;0.030273;0.037109;1.032227;
220114;0.028320;0.038086;1.029297;
220254;0.028320;0.037109;1.021484;
220394;0.030273;0.041992;1.041992;
220534;0.027344;0.036133;1.019531;
220674;0.027344;0.041992;1.029297;
220814;0.032227;0.038086;1.033203;
220954;0.027344;0.039062;1.032227;
221094;0.030273;0.035156;1.029297;
221234;0.029297;0.038086;1.024414;
221374;0.027344;0.038086;1.025391;
221514;0.029297;0.039062;1.023438;
221654;0.030273;0.034180;1.022461;
221794;0.028320;0.037109;1.022461;
221939;0.029297;0.033203;1.029297;
222101;0.030273;0.036133;1.023438;
222259;0.030273;0.038086;1.032227;
222404;0.031250;0.037109;1.031250;
222544;0.028320;0.038086;1.021484;
222684;0.030273;0.037109;1.024414;
222824;0.030273;0.039062;1.032227;
222964;0.029297;0.036133;1.025391;
223104;0.032227;0.039062;1.029297;
223244;0.030273;0.036133;1.021484;
223384;0.029297;0.039062;1.022461;
223524;0.031250;0.037109;1.026367;
223664;0.025391;0.037109;1.021484;
223814;0.033203;0.041016;1.028320;
223954;0.033203;0.037109;1.024414;
224094;0.029297;0.037109;1.026367;
224234;0.031250;0.038086;1.027344;
224379;0.029297;0.039062;1.024414;
224539;0.027344;0.041016;1.025391;
224704;0.028320;0.041016;1.031250;
224844;0.032227;0.038086;1.024414;
224984;0.031250;0.035156;1.023438;
225124;0.032227;0.038086;1.024414;
225264;0.030273;0.036133;1.028320;
225404;0.028320;0.040039;1.019531;
225544;0.031250;0.038086;1.026367;
225694;0.032227;0.040039;1.030273;
225834;0.029297;0.034180;1.029297;
225974;0.031250;0.041016;1.026367;
226124;0.032227;0.038086;1.025391;
226264;0.031250;0.039062;1.029297;
226404;0.033203;0.036133;1.026367;
226554;0.028320;0.041016;1.017578;
226689;0.030273;0.039062;1.028320;
226852;0.030273;0.036133;1.025391;
227009;0.031250;0.041016;1.018555;
227164;0.030273;0.041016;1.021484;
227304;0.028320;0.037109;1.019531;
227444;0.031250;0.036133;1.024414;
227584;0.030273;0.038086;1.019531;
227724;0.031250;0.033203;1.024414;
227874;0.031250;0.035156;1.015625;
228014;0.031250;0.037109;1.031250;
228154;0.032227;0.037109;1.026367;
228304;0.032227;0.041016;1.026367;
228444;0.032227;0.041016;1.032227;
228594;0.031250;0.037109;1.023438;
228734;0.032227;0.041992;1.038086;
228874;0.030273;0.037109;1.021484;
229024;0.034180;0.041016;1.026367;
229161;0.032227;0.039062;1.026367;
229319;0.031250;0.041016;1.026367;
229482;0.032227;0.039062;1.030273;
229634;0.030273;0.037109;1.026367;
229774;0.032227;0.036133;1.034180;
229914;0.033203;0.040039;1.027344;
230064;0.033203;0.041992;1.030273;
230204;0.031250;0.041016;1.027344;
230344;0.033203;0.041992;1.027344;
230484;0.031250;0.040039;1.030273;
230624;0.032227;0.037109;1.023438;
230764;0.031250;0.038086;1.035156;
230904;0.031250;0.038086;1.021484;
231044;0.029297;0.040039;1.033203;
231184;0.030273;0.039062;1.014648;
231334;0.031250;0.040039;1.025391;
231474;0.028320;0.035156;1.020508;
231609;0.031250;0.040039;1.026367;
231769;0.032227;0.032227;1.009766;
231934;0.030273;0.035156;1.019531;
232074;0.032227;0.035156;1.019531;
232214;0.033203;0.033203;1.021484;
232364;0.029297;0.035156;1.019531;
232504;0.032227;0.036133;1.018555;
232644;0.032227;0.040039;1.020508;
232784;0.035156;0.041992;1.035156;
232924;0.033203;0.039062;1.030273;
233064;0.031250;0.039062;1.027344;
233204;0.032227;0.041992;1.027344;
233344;0.030273;0.033203;1.020508;
233484;0.029297;0.043945;1.027344;
233624;0.032227;0.035156;1.016602;
233764;0.030273;0.037109;1.018555;
233904;0.031250;0.041016;1.022461;
234059;0.034180;0.039062;1.018555;
234219;0.029297;0.038086;1.020508;
234384;0.032227;0.037109;1.029297;
234524;0.032227;0.038086;1.026367;
234664;0.031250;0.037109;1.023438;
234804;0.031250;0.035156;1.018555;
234944;0.032227;0.040039;1.025391;
235084;0.030273;0.039062;1.025391;
235224;0.032227;0.041992;1.022461;
235364;0.031250;0.038086;1.020508;
235504;0.033203;0.037109;1.020508;
235644;0.031250;0.037109;1.028320;
235784;0.031250;0.034180;1.015625;
235934;0.031250;0.039062;1.034180;
236074;0.030273;0.036133;1.027344;
236214;0.032227;0.034180;1.021484;
236350;0.030273;0.037109;1.008789;
236510;0.028320;0.040039;1.010742;
236669;0.029297;0.035156;1.013672;
236834;0.029297;0.036133;1.020508;
236984;0.030273;0.039062;1.017578;
237134;0.033203;0.038086;1.019531;
237274;0.034180;0.036133;1.014648;
237414;0.029297;0.038086;1.021484;
237554;0.033203;0.036133;1.014648;
237694;0.030273;0.039062;1.022461;
237844;0.030273;0.035156;1.011719;
237984;0.032227;0.039062;1.027344;
238124;0.029297;0.038086;1.008789;
238264;0.031250;0.038086;1.027344;
238404;0.032227;0.039062;1.021484;
238554;0.029297;0.038086;1.018555;
238694;0.033203;0.036133;1.015625;
238830;0.031250;0.041016;1.033203;
238980;0.030273;0.038086;1.013672;
239154;0.032227;0.040039;1.024414;
239294;0.031250;0.038086;1.015625;
239434;0.032227;0.031250;1.008789;
239574;0.031250;0.039062;1.015625;
239714;0.031250;0.034180;1.000977;
239854;0.032227;0.035156;1.013672;
239994;0.030273;0.037109;1.016602;
240134;0.031250;0.040039;1.019531;
240274;0.029297;0.035156;1.017578;
240414;0.027344;0.039062;1.014648;
240554;0.028320;0.037109;1.014648;
240694;0.030273;0.040039;1.020508;
240834;0.032227;0.036133;1.012695;
240974;0.032227;0.039062;1.022461;
241114;0.027344;0.040039;1.014648;
241250;0.032227;0.038086;1.019531;
241399;0.028320;0.040039;1.018555;
241564;0.030273;0.038086;1.023438;
241704;0.031250;0.041016;1.013672;
241844;0.031250;0.040039;1.024414;
241984;0.028320;0.036133;1.025391;
242124;0.030273;0.035156;1.031250;
242264;0.027344;0.040039;1.024414;
242404;0.033203;0.040039;1.034180;
242544;0.032227;0.039062;1.024414;
242684;0.033203;0.036133;1.024414;
242824;0.029297;0.037109;1.025391;
242964;0.027344;0.034180;1.027344;
243104;0.030273;0.034180;1.019531;
243254;0.032227;0.038086;1.028320;
243394;0.031250;0.035156;1.022461;
243534;0.032227;0.036133;1.021484;
243689;0.030273;0.039062;1.029297;
243829;0.029297;0.036133;1.019531;
243984;0.030273;0.035156;1.015625;
244119;0.031250;0.036133;1.018555;
244284;0.031250;0.036133;1.017578;
244424;0.032227;0.038086;1.024414;
244564;0.031250;0.041016;1.021484;
244704;0.032227;0.035156;1.018555;
244854;0.028320;0.036133;1.014648;
244994;0.032227;0.039062;1.017578;
245134;0.031250;0.036133;1.018555;
245284;0.029297;0.039062;1.028320;
245424;0.027344;0.038086;1.016602;
245564;0.029297;0.040039;1.032227;
245704;0.023438;0.037109;1.019531;
245844;0.026367;0.036133;1.013672;
245984;0.026367;0.042969;1.011719;
246124;0.023438;0.039062;1.023438;
246270;0.025391;0.035156;1.013672;
246410;0.022461;0.034180;1.003906;
246569;0.021484;0.036133;1.013672;
246734;0.020508;0.037109;1.010742;
246874;0.021484;0.038086;1.012695;
247014;0.017578;0.034180;1.002930;
247154;0.016602;0.040039;0.997070;
247294;0.019531;0.035156;1.005859;
247434;0.017578;0.038086;1.009766;
247584;0.016602;0.035156;0.995117;
247724;0.018555;0.042969;1.000000;
247864;0.012695;0.040039;0.998047;
248004;0.012695;0.038086;0.989258;
248144;0.013672;0.038086;0.987305;
248284;0.011719;0.040039;0.995117;
248424;0.013672;0.039062;1.009766;
248564;0.009766;0.037109;0.988281;
248704;0.008789;0.040039;0.991211;
248839;0.011719;0.040039;0.986328;
248979;0.008789;0.035156;0.971680;
249130;0.008789;0.035156;0.981445;
249284;0.008789;0.034180;0.982422;
249424;0.005859;0.033203;0.974609;
249574;0.006836;0.035156;1.011719;
249714;0.006836;0.038086;1.005859;
249854;0.007812;0.037109;0.975586;
250004;0.005859;0.037109;0.981445;
250144;0.001953;0.038086;0.976562;
250284;0.002930;0.034180;0.984375;
250424;0.003906;0.034180;0.988281;
250564;0.003906;0.035156;0.973633;
250704;0.002930;0.043945;0.988281;
250844;0.000977;0.038086;0.981445;
250984;0.002930;0.036133;0.963867;
251124;-0.000977;0.040039;0.982422;
251264;-0.003906;0.037109;0.964844;
251399;0.000000;0.037109;0.974609;
251571;0.001953;0.038086;0.968750;
251734;-0.000977;0.039062;0.979492;
251884;-0.001953;0.038086;0.976562;
252024;-0.000977;0.036133;0.974609;
252164;-0.002930;0.036133;0.980469;
252304;-0.000977;0.038086;0.972656;
252444;-0.003906;0.036133;0.968750;
252594;-0.002930;0.036133;0.973633;
252734;-0.003906;0.048828;0.977539;
252874;-0.004883;0.040039;0.979492;
253024;-0.006836;0.036133;0.965820;
253164;-0.004883;0.037109;0.972656;
253304;-0.005859;0.041016;0.965820;
253444;-0.004883;0.039062;0.966797;
253584;-0.003906;0.037109;0.977539;
253720;-0.007812;0.037109;0.966797;
253881;-0.010742;0.038086;0.962891;
254039;-0.003906;0.039062;0.963867;
254204;-0.009766;0.035156;0.958008;
254344;-0.006836;0.038086;0.964844;
254494;-0.007812;0.034180;0.959961;
254634;-0.008789;0.040039;0.964844;
254774;-0.010742;0.040039;0.957031;
254914;-0.008789;0.041016;0.955078;
255054;-0.009766;0.037109;0.964844;
255194;-0.008789;0.035156;0.960938;
255334;-0.012695;0.035156;0.937500;
255474;-0.011719;0.039062;0.926758;
255624;-0.013672;0.038086;0.926758;
255764;-0.010742;0.036133;0.942383;
255904;-0.013672;0.035156;0.921875;
256054;-0.011719;0.042969;0.924805;
256190;-0.016602;0.040039;0.919922;
256340;-0.017578;0.039062;0.911133;
256499;-0.017578;0.037109;0.908203;
256654;-0.016602;0.039062;0.904297;
256794;-0.016602;0.035156;0.889648;
256934;-0.016602;0.039062;0.906250;
257074;-0.019531;0.041016;0.898438;
257214;-0.019531;0.038086;0.907227;
257354;-0.019531;0.041016;0.899414;
257494;-0.018555;0.040039;0.903320;
257644;-0.021484;0.037109;0.904297;
257784;-0.019531;0.034180;0.901367;
257924;-0.020508;0.034180;0.900391;
258064;-0.019531;0.034180;0.909180;
258204;-0.021484;0.030273;0.909180;
258344;-0.020508;0.035156;0.898438;
258484;-0.018555;0.034180;0.909180;
258619;-0.017578;0.032227;0.924805;
258769;-0.025391;0.034180;0.910156;
258929;-0.020508;0.039062;0.911133;
259094;-0.022461;0.041992;0.925781;
259234;-0.021484;0.038086;0.922852;
259374;-0.024414;0.041016;0.915039;
259514;-0.020508;0.034180;0.917969;
259664;-0.024414;0.036133;0.914062;
259804;-0.024414;0.039062;0.913086;
259954;-0.023438;0.039062;0.918945;
260094;-0.026367;0.035156;0.912109;
260234;-0.023438;0.039062;0.926758;
260374;-0.022461;0.037109;0.923828;
260514;-0.026367;0.037109;0.917969;
260654;-0.024414;0.039062;0.923828;
260794;-0.026367;0.040039;0.921875;
260934;-0.025391;0.035156;0.929688;
261069;-0.024414;0.033203;0.925781;
261229;-0.027344;0.038086;0.918945;
261389;-0.028320;0.037109;0.920898;
261554;-0.027344;0.039062;0.921875;
261694;-0.026367;0.040039;0.927734;
261834;-0.029297;0.037109;0.915039;
261974;-0.028320;0.037109;0.918945;
262114;-0.028320;0.032227;0.926758;
262254;-0.029297;0.033203;0.919922;
262404;-0.029297;0.037109;0.926758;
262544;-0.028320;0.039062;0.924805;
262684;-0.030273;0.041992;0.916992;
262824;-0.031250;0.038086;0.923828;
262964;-0.032227;0.027344;0.926758;
263104;-0.031250;0.033203;0.923828;
263244;-0.028320;0.038086;0.925781;
263384;-0.033203;0.038086;0.918945;
263521;-0.029297;0.037109;0.933594;
263669;-0.031250;0.039062;0.923828;
263829;-0.033203;0.041016;0.916992;
263984;-0.030273;0.036133;0.920898;
264124;-0.033203;0.038086;0.920898;
264274;-0.032227;0.037109;0.920898;
264414;-0.031250;0.037109;0.930664;
264554;-0.031250;0.038086;0.923828;
264694;-0.030273;0.037109;0.921875;
264834;-0.034180;0.033203;0.926758;
264974;-0.035156;0.035156;0.913086;
265114;-0.034180;0.038086;0.922852;
265254;-0.032227;0.037109;0.915039;
265394;-0.036133;0.035156;0.915039;
265534;-0.033203;0.036133;0.921875;
265674;-0.034180;0.034180;0.923828;
265814;-0.035156;0.039062;0.919922;
265950;-0.035156;0.035156;0.923828;
266109;-0.035156;0.039062;0.920898;
266270;-0.035156;0.035156;0.915039;
266424;-0.036133;0.036133;0.914062;
266564;-0.034180;0.034180;0.914062;
266704;-0.037109;0.035156;0.918945;
266844;-0.034180;0.037109;0.922852;
266984;-0.038086;0.035156;0.916016;
267124;-0.037109;0.035156;0.918945;
267264;-0.036133;0.037109;0.932617;
267414;-0.035156;0.037109;0.915039;
267554;-0.035156;0.040039;0.928711;
267694;-0.033203;0.037109;0.937500;
267834;-0.037109;0.036133;0.927734;
267974;-0.035156;0.039062;0.945312;
268114;-0.037109;0.037109;0.940430;
268254;-0.037109;0.038086;0.947266;
268389;-0.035156;0.037109;0.957031;
268541;-0.035156;0.037109;0.966797;
268701;-0.034180;0.037109;0.978516;
268864;-0.036133;0.035156;0.983398;
269004;-0.034180;0.031250;0.984375;
269144;-0.034180;0.036133;0.991211;
269284;-0.032227;0.033203;0.995117;
269424;-0.035156;0.035156;1.004883;
269564;-0.034180;0.039062;1.015625;
269704;-0.033203;0.036133;1.012695;
269844;-0.032227;0.038086;1.029297;
269984;-0.029297;0.034180;1.036133;
270124;-0.029297;0.034180;1.037109;
270264;-0.029297;0.033203;1.040039;
270404;-0.029297;0.032227;1.052734;
270554;-0.028320;0.034180;1.052734;
270694;-0.030273;0.034180;1.062500;
270829;-0.028320;0.033203;1.064453;
270989;-0.029297;0.032227;1.072266;
271139;-0.026367;0.032227;1.069336;
271304;-0.030273;0.032227;1.083008;
271444;-0.027344;0.034180;1.086914;
271594;-0.025391;0.035156;1.092773;
271734;-0.026367;0.038086;1.103516;
271874;-0.027344;0.037109;1.101562;
272024;-0.024414;0.036133;1.108398;
272164;-0.026367;0.036133;1.109375;
272304;-0.024414;0.036133;1.111328;
272444;-0.027344;0.035156;1.109375;
272584;-0.025391;0.039062;1.114258;
272734;-0.026367;0.037109;1.115234;
272874;-0.027344;0.035156;1.109375;
273014;-0.026367;0.036133;1.120117;
273154;-0.027344;0.034180;1.121094;
273290;-0.024414;0.040039;1.121094;
273439;-0.026367;0.037109;1.125000;
273599;-0.025391;0.034180;1.121094;
273764;-0.026367;0.036133;1.121094;
273904;-0.026367;0.035156;1.116211;
274044;-0.029297;0.036133;1.123047;
274184;-0.028320;0.034180;1.116211;
274324;-0.024414;0.030273;1.124023;
274464;-0.028320;0.034180;1.119141;
274604;-0.028320;0.033203;1.122070;
274744;-0.026367;0.038086;1.125977;
274884;-0.027344;0.033203;1.119141;
275024;-0.028320;0.032227;1.123047;
275164;-0.029297;0.033203;1.125977;
275304;-0.028320;0.033203;1.126953;
275454;-0.027344;0.034180;1.121094;
275594;-0.029297;0.033203;1.122070;
275730;-0.025391;0.032227;1.119141;
275890;-0.027344;0.033203;1.125977;
276049;-0.028320;0.033203;1.122070;
276214;-0.027344;0.032227;1.116211;
276354;-0.028320;0.037109;1.120117;
276494;-0.028320;0.033203;1.112305;
276634;-0.029297;0.037109;1.116211;
276774;-0.030273;0.036133;1.112305;
276914;-0.028320;0.038086;1.101562;
277054;-0.031250;0.034180;1.096680;
277194;-0.033203;0.032227;1.089844;
277334;-0.032227;0.035156;1.087891;
277474;-0.030273;0.035156;1.086914;
277614;-0.032227;0.035156;1.080078;
277754;-0.033203;0.031250;1.073242;
277894;-0.032227;0.031250;1.074219;
278034;-0.033203;0.034180;1.083008;
278184;-0.032227;0.037109;1.076172;
278330;-0.033203;0.034180;1.067383;
278490;-0.033203;0.036133;1.068359;
278650;-0.033203;0.031250;1.063477;
278804;-0.035156;0.033203;1.064453;
278944;-0.036133;0.032227;1.059570;
279094;-0.033203;0.036133;1.057617;
279234;-0.034180;0.033203;1.049805;
279374;-0.031250;0.036133;1.051758;
279514;-0.035156;0.039062;1.052734;
279654;-0.037109;0.039062;1.048828;
279794;-0.035156;0.036133;1.049805;
279934;-0.035156;0.037109;1.041992;
280074;-0.035156;0.034180;1.035156;
280224;-0.037109;0.036133;1.040039;
280364;-0.038086;0.026367;1.024414;
280504;-0.037109;0.033203;1.034180;
280644;-0.039062;0.032227;1.032227;
280779;-0.034180;0.035156;1.038086;
280939;-0.036133;0.036133;1.041016;
281099;-0.037109;0.037109;1.030273;
281241;-0.036133;0.036133;1.044922;
281384;-0.039062;0.036133;1.041992;
281534;-0.037109;0.035156;1.030273;
281674;-0.038086;0.036133;1.031250;
281814;-0.038086;0.033203;1.026367;
281964;-0.039062;0.034180;1.015625;
282104;-0.037109;0.038086;1.032227;
282244;-0.041016;0.032227;1.023438;
282384;-0.036133;0.037109;1.024414;
282524;-0.035156;0.038086;1.018555;
282664;-0.039062;0.035156;1.025391;
282804;-0.037109;0.039062;1.022461;
282944;-0.037109;0.035156;1.025391;
283084;-0.040039;0.038086;1.017578;
283224;-0.037109;0.031250;1.019531;
283370;-0.037109;0.037109;1.022461;
283529;-0.040039;0.035156;1.022461;
283689;-0.038086;0.038086;1.023438;
283854;-0.039062;0.035156;1.010742;
283994;-0.039062;0.035156;1.017578;
284134;-0.038086;0.033203;1.018555;
284274;-0.039062;0.033203;1.011719;
284414;-0.038086;0.038086;1.008789;
284554;-0.039062;0.039062;1.010742;
284694;-0.041016;0.036133;1.009766;
284834;-0.037109;0.037109;1.017578;
284974;-0.040039;0.034180;1.009766;
285114;-0.038086;0.036133;1.011719;
285254;-0.039062;0.033203;1.009766;
285394;-0.039062;0.033203;1.006836;
285534;-0.038086;0.033203;1.011719;
285674;-0.040039;0.035156;1.020508;
285809;-0.039062;0.035156;1.018555;
285950;-0.039062;0.035156;1.025391;
286109;-0.040039;0.035156;1.015625;
286270;-0.037109;0.033203;1.022461;
286414;-0.038086;0.032227;1.014648;
286564;-0.038086;0.033203;1.014648;
286704;-0.039062;0.035156;1.021484;
286844;-0.039062;0.037109;1.014648;
286984;-0.039062;0.036133;1.028320;
287124;-0.039062;0.035156;1.015625;
287264;-0.040039;0.040039;1.021484;
287404;-0.039062;0.035156;1.022461;
287544;-0.039062;0.034180;1.017578;
287684;-0.039062;0.037109;1.029297;
287824;-0.039062;0.036133;1.024414;
287964;-0.039062;0.036133;1.025391;
288114;-0.038086;0.038086;1.026367;
288254;-0.037109;0.035156;1.027344;
288400;-0.037109;0.038086;1.029297;
288549;-0.038086;0.030273;1.032227;
288709;-0.036133;0.034180;1.028320;
288859;-0.035156;0.033203;1.031250;
289014;-0.036133;0.029297;1.038086;
289154;-0.035156;0.035156;1.042969;
289294;-0.036133;0.032227;1.041992;
289434;-0.037109;0.030273;1.033203;
289574;-0.037109;0.032227;1.045898;
289714;-0.038086;0.032227;1.037109;
289854;-0.036133;0.033203;1.037109;
289994;-0.036133;0.035156;1.042969;
290134;-0.039062;0.035156;1.043945;
290274;-0.036133;0.041016;1.044922;
290414;-0.040039;0.039062;1.037109;
290554;-0.037109;0.041992;1.039062;
290694;-0.038086;0.034180;1.041016;
290834;-0.037109;0.038086;1.033203;
290980;-0.038086;0.039062;1.041992;
291121;-0.037109;0.037109;1.042969;
291280;-0.038086;0.034180;1.038086;
291439;-0.038086;0.035156;1.041992;
291604;-0.036133;0.032227;1.034180;
291744;-0.036133;0.033203;1.035156;
291884;-0.038086;0.035156;1.040039;
292024;-0.036133;0.037109;1.041016;
292164;-0.037109;0.034180;1.040039;
292304;-0.038086;0.032227;1.041992;
292444;-0.039062;0.032227;1.036133;
292584;-0.037109;0.036133;1.041016;
292724;-0.036133;0.033203;1.035156;
292864;-0.037109;0.036133;1.041992;
293014;-0.040039;0.038086;1.037109;
293154;-0.038086;0.035156;1.038086;
293294;-0.038086;0.037109;1.033203;
293444;-0.039062;0.036133;1.038086;
293590;-0.038086;0.037109;1.040039;
293752;-0.034180;0.033203;1.040039;
293909;-0.039062;0.035156;1.045898;
294074;-0.038086;0.034180;1.033203;
294224;-0.038086;0.035156;1.035156;
294364;-0.036133;0.035156;1.037109;
294504;-0.038086;0.031250;1.034180;
294644;-0.035156;0.035156;1.041016;
294784;-0.039062;0.031250;1.029297;
294924;-0.038086;0.034180;1.036133;
295064;-0.037109;0.035156;1.031250;
295204;-0.036133;0.034180;1.030273;
295344;-0.039062;0.033203;1.034180;
295484;-0.037109;0.034180;1.035156;
295624;-0.037109;0.036133;1.033203;
295764;-0.037109;0.035156;1.033203;
295904;-0.039062;0.034180;1.029297;
296039;-0.037109;0.036133;1.031250;
296199;-0.038086;0.033203;1.034180;
296361;-0.037109;0.036133;1.035156;
296524;-0.039062;0.034180;1.031250;
296664;-0.037109;0.037109;1.036133;
296804;-0.039062;0.035156;1.030273;
296944;-0.036133;0.035156;1.029297;
297084;-0.036133;0.034180;1.033203;
297224;-0.037109;0.034180;1.029297;
297364;-0.036133;0.040039;1.028320;
297504;-0.040039;0.032227;1.018555;
297644;-0.039062;0.034180;1.021484;
297784;-0.035156;0.037109;1.024414;
297924;-0.039062;0.033203;1.021484;
298064;-0.037109;0.037109;1.020508;
298204;-0.039062;0.036133;1.023438;
298344;-0.039062;0.033203;1.022461;
298491;-0.039062;0.036133;1.026367;
298640;-0.038086;0.038086;1.026367;
298799;-0.037109;0.037109;1.030273;
298960;-0.037109;0.036133;1.030273;
299114;-0.037109;0.035156;1.031250;
299254;-0.038086;0.036133;1.036133;
299404;-0.038086;0.035156;1.033203;
299544;-0.038086;0.036133;1.037109;
299684;-0.041016;0.035156;1.027344;
299824;-0.037109;0.036133;1.027344;
299964;-0.039062;0.036133;1.029297;
300104;-0.040039;0.035156;1.023438;
300244;-0.039062;0.034180;1.032227;
300394;-0.040039;0.034180;1.028320;
300534;-0.037109;0.035156;1.037109;
300674;-0.036133;0.033203;1.033203;
300814;-0.039062;0.036133;1.033203;
300954;-0.035156;0.036133;1.034180;
301089;-0.037109;0.033203;1.031250;
301239;-0.037109;0.035156;1.033203;
301401;-0.036133;0.033203;1.035156;
301544;-0.038086;0.036133;1.034180;
301684;-0.038086;0.032227;1.031250;
301820;-0.037109;0.035156;1.025391;
301974;-0.036133;0.038086;1.038086;
302114;-0.037109;0.033203;1.031250;
302254;-0.038086;0.036133;1.031250;
302394;-0.036133;0.033203;1.035156;
302534;-0.040039;0.034180;1.032227;
302674;-0.038086;0.036133;1.028320;
302814;-0.035156;0.033203;1.040039;
302954;-0.040039;0.029297;1.023438;
303094;-0.037109;0.033203;1.035156;
303234;-0.036133;0.034180;1.033203;
303374;-0.036133;0.037109;1.040039;
303514;-0.037109;0.032227;1.041992;
303654;-0.038086;0.034180;1.037109;
303794;-0.041016;0.032227;1.032227;
303930;-0.038086;0.039062;1.028320;
304071;-0.037109;0.033203;1.039062;
304229;-0.037109;0.035156;1.042969;
304369;-0.038086;0.036133;1.036133;
304514;-0.039062;0.032227;1.039062;
304654;-0.039062;0.030273;1.034180;
304794;-0.037109;0.032227;1.034180;
304944;-0.036133;0.035156;1.041992;
305084;-0.035156;0.034180;1.041992;
305224;-0.037109;0.033203;1.041016;
305374;-0.038086;0.036133;1.040039;
305514;-0.040039;0.035156;1.035156;
305654;-0.038086;0.040039;1.041016;
305794;-0.037109;0.033203;1.044922;
305934;-0.039062;0.034180;1.043945;
306074;-0.038086;0.031250;1.041992;
306214;-0.040039;0.030273;1.032227;
306354;-0.038086;0.037109;1.045898;
306491;-0.035156;0.036133;1.049805;
306629;-0.036133;0.031250;1.035156;
306779;-0.038086;0.034180;1.041016;
306914;-0.040039;0.035156;1.036133;
307054;-0.036133;0.034180;1.041992;
307191;-0.035156;0.031250;1.046875;
307344;-0.040039;0.036133;1.038086;
307484;-0.037109;0.037109;1.038086;
307624;-0.037109;0.030273;1.049805;
307764;-0.040039;0.033203;1.046875;
307904;-0.034180;0.040039;1.056641;
308044;-0.036133;0.033203;1.046875;
308184;-0.036133;0.037109;1.050781;
308324;-0.035156;0.034180;1.049805;
308464;-0.038086;0.036133;1.037109;
308604;-0.037109;0.033203;1.039062;
308744;-0.037109;0.035156;1.041992;
308884;-0.037109;0.033203;1.048828;
309024;-0.038086;0.032227;1.041016;
309164;-0.037109;0.033203;1.048828;
309304;-0.038086;0.039062;1.041992;
309449;-0.039062;0.034180;1.049805;
309594;-0.038086;0.032227;1.048828;
309719;-0.037109;0.034180;1.042969;
309860;-0.036133;0.035156;1.051758;
310010;-0.040039;0.035156;1.043945;
310171;-0.036133;0.036133;1.056641;
310324;-0.038086;0.035156;1.054688;
310464;-0.036133;0.035156;1.049805;
310604;-0.035156;0.034180;1.053711;
310744;-0.039062;0.031250;1.047852;
310884;-0.035156;0.041992;1.048828;
311024;-0.040039;0.034180;1.041992;
311174;-0.039062;0.038086;1.051758;
311314;-0.036133;0.032227;1.052734;
311454;-0.035156;0.034180;1.050781;
311604;-0.036133;0.035156;1.050781;
311744;-0.038086;0.035156;1.050781;
311884;-0.037109;0.037109;1.042969;
312024;-0.040039;0.040039;1.046875;
312164;-0.038086;0.039062;1.050781;
312309;-0.039062;0.034180;1.041992;
312470;-0.039062;0.039062;1.045898;
312629;-0.035156;0.040039;1.037109;
312794;-0.040039;0.037109;1.046875;
312934;-0.038086;0.039062;1.050781;
313084;-0.041016;0.035156;1.046875;
313224;-0.036133;0.035156;1.058594;
313364;-0.038086;0.032227;1.044922;
313504;-0.036133;0.036133;1.045898;
313644;-0.040039;0.036133;1.046875;
313794;-0.037109;0.037109;1.036133;
313934;-0.039062;0.034180;1.037109;
314074;-0.039062;0.037109;1.042969;
314214;-0.038086;0.037109;1.043945;
314354;-0.038086;0.038086;1.047852;
314504;-0.039062;0.041992;1.055664;
314644;-0.037109;0.036133;1.054688;
314789;-0.037109;0.038086;1.051758;
314942;-0.039062;0.036133;1.045898;
315099;-0.039062;0.039062;1.050781;
315264;-0.036133;0.040039;1.054688;
315404;-0.037109;0.033203;1.052734;
315554;-0.038086;0.035156;1.053711;
315704;-0.038086;0.034180;1.046875;
315844;-0.037109;0.033203;1.045898;
315984;-0.037109;0.037109;1.051758;
316124;-0.038086;0.036133;1.046875;
316264;-0.039062;0.033203;1.049805;
316404;-0.037109;0.032227;1.053711;
316544;-0.037109;0.030273;1.037109;
316684;-0.037109;0.029297;1.041016;
316824;-0.040039;0.031250;1.037109;
316964;-0.039062;0.034180;1.041016;
317104;-0.038086;0.038086;1.038086;
317239;-0.038086;0.034180;1.043945;
317389;-0.040039;0.037109;1.040039;
317549;-0.041016;0.039062;1.033203;
317714;-0.038086;0.038086;1.032227;
317850;-0.039062;0.041992;1.041016;
318004;-0.039062;0.041016;1.039062;
318154;-0.041016;0.038086;1.028320;
318294;-0.039062;0.039062;1.045898;
318434;-0.039062;0.036133;1.039062;
318574;-0.038086;0.035156;1.035156;
318714;-0.036133;0.041016;1.033203;
318854;-0.040039;0.036133;1.032227;
319004;-0.040039;0.034180;1.026367;
319144;-0.037109;0.031250;1.026367;
319284;-0.039062;0.037109;1.029297;
319434;-0.038086;0.028320;1.027344;
319574;-0.039062;0.034180;1.023438;
319724;-0.038086;0.032227;1.031250;
319864;-0.038086;0.032227;1.026367;
319999;-0.038086;0.029297;1.029297;
320159;-0.040039;0.031250;1.026367;
320320;-0.037109;0.033203;1.026367;
320464;-0.037109;0.039062;1.030273;
320604;-0.041016;0.036133;1.020508;
320744;-0.041016;0.038086;1.033203;
320884;-0.036133;0.040039;1.030273;
321024;-0.038086;0.041016;1.031250;
321164;-0.039062;0.039062;1.025391;
321314;-0.039062;0.041992;1.028320;
321454;-0.040039;0.037109;1.030273;
321594;-0.037109;0.036133;1.029297;
321734;-0.038086;0.036133;1.030273;
321874;-0.039062;0.037109;1.023438;
322014;-0.038086;0.040039;1.027344;
322154;-0.040039;0.037109;1.026367;
322294;-0.037109;0.032227;1.028320;
322434;-0.038086;0.031250;1.024414;
322571;-0.037109;0.034180;1.027344;
322721;-0.037109;0.033203;1.034180;
322859;-0.038086;0.033203;1.028320;
323009;-0.038086;0.031250;1.029297;
323164;-0.035156;0.037109;1.038086;
323304;-0.038086;0.035156;1.031250;
323444;-0.038086;0.037109;1.033203;
323584;-0.037109;0.037109;1.036133;
323724;-0.039062;0.039062;1.039062;
323864;-0.037109;0.033203;1.037109;
324014;-0.035156;0.038086;1.056641;
324154;-0.038086;0.038086;1.062500;
324294;-0.033203;0.039062;1.063477;
324444;-0.035156;0.040039;1.065430;
324584;-0.030273;0.041992;1.082031;
324724;-0.032227;0.036133;1.083008;
324864;-0.032227;0.032227;1.090820;
325004;-0.032227;0.030273;1.089844;
325139;-0.030273;0.038086;1.095703;
325299;-0.030273;0.034180;1.099609;
325450;-0.035156;0.034180;1.104492;
325609;-0.030273;0.036133;1.120117;
325764;-0.028320;0.036133;1.125000;
325904;-0.029297;0.034180;1.123047;
326044;-0.028320;0.031250;1.125000;
326184;-0.027344;0.033203;1.133789;
326324;-0.025391;0.034180;1.144531;
326464;-0.026367;0.034180;1.139648;
326604;-0.024414;0.036133;1.154297;
326744;-0.025391;0.034180;1.148438;
326884;-0.026367;0.033203;1.146484;
327034;-0.025391;0.032227;1.150391;
327174;-0.023438;0.034180;1.151367;
327314;-0.021484;0.037109;1.134766;
327454;-0.023438;0.031250;1.140625;
327594;-0.021484;0.034180;1.129883;
327729;-0.023438;0.035156;1.119141;
327880;-0.022461;0.033203;1.107422;
328030;-0.025391;0.033203;1.093750;
328190;-0.023438;0.033203;1.086914;
328334;-0.019531;0.033203;1.091797;
328474;-0.020508;0.036133;1.078125;
328614;-0.019531;0.032227;1.071289;
328754;-0.020508;0.034180;1.065430;
328904;-0.017578;0.035156;1.057617;
329044;-0.018555;0.030273;1.051758;
329184;-0.019531;0.033203;1.043945;
329334;-0.015625;0.032227;1.047852;
329474;-0.018555;0.031250;1.046875;
329624;-0.017578;0.032227;1.035156;
329764;-0.013672;0.035156;1.025391;
329904;-0.017578;0.036133;1.021484;
330044;-0.017578;0.034180;1.011719;
330184;-0.012695;0.035156;1.013672;
330329;-0.013672;0.034180;1.008789;
330480;-0.014648;0.035156;1.002930;
330639;-0.014648;0.040039;0.991211;
330794;-0.017578;0.038086;0.979492;
330934;-0.014648;0.039062;0.987305;
331084;-0.015625;0.041992;0.982422;
331224;-0.013672;0.038086;0.980469;
331364;-0.016602;0.039062;0.981445;
331504;-0.016602;0.040039;0.986328;
331644;-0.014648;0.040039;0.995117;
331784;-0.012695;0.041016;0.993164;
331924;-0.016602;0.037109;0.998047;
332064;-0.014648;0.041016;1.000977;
332204;-0.017578;0.034180;0.997070;
332344;-0.016602;0.036133;0.996094;
332484;-0.014648;0.038086;1.000000;
332634;-0.014648;0.036133;1.003906;
332769;-0.011719;0.034180;1.020508;
332929;-0.014648;0.033203;1.013672;
333089;-0.014648;0.034180;1.007812;
333240;-0.012695;0.037109;1.022461;
333394;-0.012695;0.035156;1.018555;
333534;-0.011719;0.033203;1.029297;
333674;-0.014648;0.031250;1.004883;
333814;-0.014648;0.032227;1.024414;
333954;-0.012695;0.035156;1.022461;
334104;-0.014648;0.035156;1.014648;
334244;-0.011719;0.037109;1.015625;
334384;-0.013672;0.035156;1.017578;
334524;-0.013672;0.036133;1.020508;
334664;-0.011719;0.038086;1.025391;
334814;-0.013672;0.039062;1.034180;
334954;-0.012695;0.037109;1.021484;
335094;-0.012695;0.040039;1.030273;
335234;-0.013672;0.040039;1.027344;
335370;-0.013672;0.040039;1.015625;
335520;-0.013672;0.041016;1.026367;
335682;-0.012695;0.036133;1.025391;
335834;-0.012695;0.039062;1.019531;
335984;-0.012695;0.037109;1.019531;
336124;-0.015625;0.036133;1.017578;
336264;-0.010742;0.035156;1.026367;
336414;-0.013672;0.035156;1.019531;
336554;-0.013672;0.034180;1.025391;
336694;-0.012695;0.035156;1.023438;
336844;-0.011719;0.037109;1.026367;
336984;-0.012695;0.038086;1.024414;
337124;-0.011719;0.035156;1.026367;
337264;-0.010742;0.038086;1.026367;
337404;-0.013672;0.037109;1.022461;
337544;-0.009766;0.038086;1.032227;
337684;-0.013672;0.033203;1.027344;
337830;-0.011719;0.034180;1.029297;
337980;-0.014648;0.032227;1.019531;
338130;-0.009766;0.038086;1.030273;
338280;-0.009766;0.034180;1.031250;
338444;-0.011719;0.033203;1.021484;
338584;-0.011719;0.039062;1.022461;
338724;-0.011719;0.038086;1.026367;
338864;-0.009766;0.037109;1.035156;
339004;-0.012695;0.035156;1.024414;
339144;-0.010742;0.039062;1.033203;
339284;-0.012695;0.037109;1.020508;
339424;-0.011719;0.036133;1.036133;
339564;-0.012695;0.035156;1.020508;
339704;-0.011719;0.038086;1.041992;
339844;-0.011719;0.037109;1.027344;
339984;-0.011719;0.034180;1.026367;
340124;-0.009766;0.036133;1.015625;
340264;-0.009766;0.036133;1.030273;
340410;-0.010742;0.034180;1.027344;
340562;-0.008789;0.036133;1.027344;
340709;-0.009766;0.039062;1.022461;
340870;-0.009766;0.034180;1.031250;
341034;-0.009766;0.032227;1.013672;
341174;-0.007812;0.037109;1.034180;
341314;-0.011719;0.034180;1.021484;
341454;-0.008789;0.034180;1.031250;
341594;-0.008789;0.037109;1.026367;
341734;-0.008789;0.036133;1.033203;
341874;-0.006836;0.034180;1.035156;
342014;-0.007812;0.035156;1.028320;
342154;-0.009766;0.034180;1.029297;
342304;-0.009766;0.034180;1.024414;
342444;-0.009766;0.033203;1.033203;
342584;-0.007812;0.033203;1.034180;
342724;-0.007812;0.037109;1.035156;
342864;-0.008789;0.035156;1.036133;
342994;-0.006836;0.034180;1.025391;
343134;-0.006836;0.038086;1.030273;
343259;-0.009766;0.038086;1.027344;
343410;-0.008789;0.041016;1.031250;
343560;-0.007812;0.034180;1.023438;
343711;-0.007812;0.037109;1.024414;
343874;-0.007812;0.036133;1.028320;
344014;-0.006836;0.037109;1.036133;
344154;-0.007812;0.035156;1.023438;
344294;-0.008789;0.036133;1.022461;
344444;-0.007812;0.033203;1.028320;
344584;-0.006836;0.038086;1.026367;
344724;-0.006836;0.036133;1.020508;
344864;-0.006836;0.035156;1.031250;
345004;-0.009766;0.031250;1.026367;
345154;-0.005859;0.035156;1.039062;
345294;-0.005859;0.034180;1.033203;
345434;-0.004883;0.034180;1.028320;
345574;-0.006836;0.033203;1.032227;
345714;-0.006836;0.032227;1.035156;
345861;-0.005859;0.035156;1.031250;
346009;-0.003906;0.034180;1.035156;
346169;-0.007812;0.034180;1.041016;
346334;-0.005859;0.032227;1.030273;
346474;-0.006836;0.032227;1.030273;
346624;-0.005859;0.037109;1.035156;
346764;-0.007812;0.038086;1.034180;
346904;-0.008789;0.039062;1.027344;
347044;-0.005859;0.040039;1.026367;
347184;-0.006836;0.039062;1.029297;
347324;-0.006836;0.032227;1.033203;
347464;-0.007812;0.037109;1.029297;
347604;-0.003906;0.036133;1.030273;
347744;-0.006836;0.036133;1.030273;
347884;-0.005859;0.036133;1.023438;
348024;-0.005859;0.037109;1.025391;
348164;-0.006836;0.035156;1.028320;
348299;-0.007812;0.037109;1.036133;
348470;-0.005859;0.033203;1.027344;
348632;-0.005859;0.035156;1.026367;
348794;-0.005859;0.037109;1.026367;
348934;-0.005859;0.039062;1.029297;
349074;-0.002930;0.037109;1.035156;
349214;-0.006836;0.037109;1.024414;
349364;-0.005859;0.038086;1.030273;
349504;-0.004883;0.035156;1.041016;
349644;-0.003906;0.033203;1.027344;
349784;-0.003906;0.037109;1.025391;
349924;-0.006836;0.032227;1.028320;
350064;-0.007812;0.036133;1.034180;
350204;-0.004883;0.035156;1.025391;
350344;-0.003906;0.033203;1.023438;
350484;-0.006836;0.036133;1.029297;
350624;-0.003906;0.038086;1.036133;
350760;-0.003906;0.037109;1.036133;
350909;-0.003906;0.033203;1.031250;
351070;-0.004883;0.033203;1.029297;
351229;-0.004883;0.034180;1.039062;
351384;-0.002930;0.036133;1.033203;
351534;-0.004883;0.033203;1.034180;
351674;-0.004883;0.038086;1.022461;
351814;-0.004883;0.037109;1.018555;
351954;-0.003906;0.037109;1.022461;
352094;-0.002930;0.040039;1.033203;
352234;-0.006836;0.033203;1.030273;
352374;-0.004883;0.034180;1.020508;
352514;-0.007812;0.033203;1.016602;
352654;-0.002930;0.038086;1.029297;
352794;-0.004883;0.037109;1.028320;
352944;-0.006836;0.035156;1.024414;
353084;-0.003906;0.036133;1.019531;
353224;-0.004883;0.035156;1.023438;
353370;-0.005859;0.031250;1.026367;
353529;-0.005859;0.035156;1.025391;
353669;-0.002930;0.038086;1.026367;
353819;-0.002930;0.038086;1.022461;
353964;-0.004883;0.037109;1.022461;
354114;-0.004883;0.037109;1.023438;
354254;-0.004883;0.036133;1.030273;
354394;-0.000977;0.036133;1.029297;
354534;-0.002930;0.038086;1.028320;
354674;-0.003906;0.037109;1.018555;
354814;-0.003906;0.035156;1.024414;
354964;-0.001953;0.037109;1.030273;
355104;-0.001953;0.040039;1.028320;
355244;-0.001953;0.033203;1.029297;
355384;-0.001953;0.034180;1.033203;
355524;-0.002930;0.039062;1.025391;
355664;-0.002930;0.035156;1.029297;
355814;-0.004883;0.035156;1.021484;
355939;-0.001953;0.035156;1.032227;
356092;-0.002930;0.034180;1.027344;
356239;-0.001953;0.036133;1.035156;
356391;-0.003906;0.033203;1.040039;
356554;-0.001953;0.033203;1.033203;
356694;-0.001953;0.034180;1.040039;
356834;-0.002930;0.032227;1.027344;
356974;-0.002930;0.035156;1.031250;
357124;-0.002930;0.034180;1.041992;
357264;-0.003906;0.032227;1.029297;
357404;-0.002930;0.033203;1.023438;
357554;-0.001953;0.035156;1.037109;
357694;-0.000977;0.035156;1.028320;
357834;-0.001953;0.036133;1.022461;
357974;-0.001953;0.040039;1.037109;
358114;-0.003906;0.037109;1.033203;
358254;-0.003906;0.039062;1.018555;
358394;-0.002930;0.041016;1.019531;
358530;-0.003906;0.039062;1.026367;
358679;-0.003906;0.039062;1.019531;
358829;-0.001953;0.037109;1.025391;
358994;-0.003906;0.040039;1.021484;
359144;-0.005859;0.040039;1.020508;
359284;-0.004883;0.036133;1.017578;
359424;-0.000977;0.039062;1.023438;
359564;-0.003906;0.036133;1.028320;
359704;-0.003906;0.035156;1.030273;
359844;-0.001953;0.038086;1.019531;
359984;-0.002930;0.034180;1.022461;
360124;-0.001953;0.032227;1.037109;
360264;-0.002930;0.030273;1.023438;
360404;-0.000977;0.040039;1.028320;
360544;-0.004883;0.032227;1.037109;
360684;-0.001953;0.041016;1.038086;
360824;-0.002930;0.039062;1.033203;
360960;-0.002930;0.031250;1.032227;
361111;-0.002930;0.033203;1.034180;
361271;-0.004883;0.034180;1.027344;
361434;-0.002930;0.039062;1.030273;
361574;-0.001953;0.037109;1.024414;
361724;-0.001953;0.038086;1.028320;
361864;-0.002930;0.034180;1.030273;
362004;-0.003906;0.039062;1.031250;
362144;-0.000977;0.035156;1.037109;
362284;-0.003906;0.035156;1.026367;
362424;-0.002930;0.034180;1.019531;
362564;-0.002930;0.038086;1.018555;
362704;-0.004883;0.037109;1.028320;
362844;-0.000977;0.035156;1.028320;
362984;-0.005859;0.036133;1.025391;
363124;-0.004883;0.035156;1.025391;
363264;-0.002930;0.040039;1.016602;
363404;-0.002930;0.038086;1.024414;
363540;-0.001953;0.037109;1.029297;
363689;-0.002930;0.039062;1.035156;
363839;-0.003906;0.039062;1.025391;
363994;-0.003906;0.037109;1.029297;
364134;-0.000977;0.034180;1.030273;
364274;-0.003906;0.033203;1.029297;
364424;-0.004883;0.036133;1.019531;
364564;-0.004883;0.033203;1.029297;
364704;-0.003906;0.034180;1.025391;
364844;-0.000977;0.034180;1.020508;
364984;-0.001953;0.033203;1.033203;
365124;-0.004883;0.033203;1.027344;
365264;-0.002930;0.036133;1.021484;
365404;-0.003906;0.040039;1.020508;
365544;-0.002930;0.032227;1.018555;
365684;-0.002930;0.035156;1.018555;
365824;-0.002930;0.039062;1.015625;
365962;-0.001953;0.035156;1.022461;
366109;-0.004883;0.036133;1.024414;
366259;-0.002930;0.037109;1.022461;
366409;-0.003906;0.035156;1.017578;
366554;-0.002930;0.035156;1.023438;
366704;-0.003906;0.034180;1.025391;
366844;-0.002930;0.037109;1.014648;
366984;-0.003906;0.033203;1.018555;
367124;-0.003906;0.035156;1.022461;
367264;-0.000977;0.037109;1.025391;
367404;-0.003906;0.036133;1.023438;
367544;-0.004883;0.032227;1.027344;
367684;-0.002930;0.043945;1.021484;
367824;-0.001953;0.038086;1.029297;
367964;-0.001953;0.040039;1.033203;
368104;-0.002930;0.036133;1.023438;
368244;-0.001953;0.038086;1.035156;
368384;-0.001953;0.035156;1.038086;
368519;-0.003906;0.038086;1.025391;
368669;-0.005859;0.040039;1.025391;
368830;-0.002930;0.037109;1.029297;
368974;-0.003906;0.035156;1.038086;
369120;-0.003906;0.035156;1.039062;
369274;-0.002930;0.033203;1.030273;
369414;-0.000977;0.034180;1.034180;
369564;-0.005859;0.035156;1.030273;
369704;-0.003906;0.035156;1.038086;
369844;-0.000977;0.033203;1.036133;
369994;-0.001953;0.036133;1.037109;
370134;-0.003906;0.033203;1.035156;
370274;-0.002930;0.032227;1.034180;
370424;-0.003906;0.037109;1.035156;
370564;-0.003906;0.034180;1.024414;
370704;-0.001953;0.035156;1.030273;
370844;-0.002930;0.034180;1.030273;
370984;-0.002930;0.036133;1.026367;
371124;-0.004883;0.033203;1.038086;
371269;-0.001953;0.037109;1.029297;
371429;-0.003906;0.036133;1.026367;
371570;-0.003906;0.041016;1.021484;
371719;-0.003906;0.040039;1.030273;
371884;-0.003906;0.040039;1.026367;
372024;-0.004883;0.042969;1.027344;
372164;-0.003906;0.035156;1.015625;
372304;-0.003906;0.035156;1.021484;
372444;-0.005859;0.037109;1.023438;
372584;-0.003906;0.039062;1.032227;
372734;-0.003906;0.035156;1.022461;
372874;-0.004883;0.035156;1.018555;
373024;-0.000977;0.033203;1.026367;
373174;-0.003906;0.036133;1.019531;
373314;-0.005859;0.033203;1.015625;
373454;-0.002930;0.031250;1.017578;
373594;-0.003906;0.031250;1.029297;
373734;-0.002930;0.031250;1.035156;
373876;-0.001953;0.033203;1.025391;
374014;-0.002930;0.031250;1.015625;
374149;-0.002930;0.030273;1.025391;
374299;-0.004883;0.035156;1.031250;
374450;-0.002930;0.037109;1.020508;
374614;-0.003906;0.034180;1.026367;
374754;-0.001953;0.036133;1.031250;
374894;-0.002930;0.040039;1.034180;
375034;-0.004883;0.039062;1.030273;
375174;-0.002930;0.038086;1.036133;
375314;-0.003906;0.038086;1.023438;
375454;-0.003906;0.039062;1.016602;
375594;-0.001953;0.041016;1.039062;
375734;-0.004883;0.041992;1.032227;
375884;0.000000;0.041016;1.033203;
376024;-0.002930;0.039062;1.024414;
376164;-0.003906;0.041992;1.025391;
376304;-0.004883;0.041992;1.029297;
376444;-0.002930;0.035156;1.016602;
376594;-0.004883;0.035156;1.018555;
376739;-0.006836;0.034180;1.026367;
376880;-0.001953;0.036133;1.025391;
377030;-0.001953;0.034180;1.029297;
377194;-0.005859;0.038086;1.021484;
377334;-0.002930;0.037109;1.019531;
377474;-0.001953;0.036133;1.023438;
377614;-0.002930;0.033203;1.023438;
377754;-0.004883;0.035156;1.019531;
377904;-0.003906;0.032227;1.031250;
378044;-0.003906;0.032227;1.034180;
378184;-0.003906;0.032227;1.030273;
378324;-0.003906;0.034180;1.029297;
378464;-0.002930;0.034180;1.032227;
378614;-0.002930;0.037109;1.027344;
378754;-0.005859;0.036133;1.027344;
378894;-0.005859;0.033203;1.036133;
379034;-0.002930;0.035156;1.031250;
379174;-0.002930;0.039062;1.028320;
379319;-0.002930;0.038086;1.027344;
379479;-0.003906;0.037109;1.029297;
379640;-0.000977;0.038086;1.026367;
379804;-0.002930;0.039062;1.031250;
379944;-0.003906;0.037109;1.037109;
380084;-0.004883;0.037109;1.019531;
380224;-0.004883;0.035156;1.026367;
380364;-0.001953;0.037109;1.035156;
380504;0.000000;0.037109;1.041016;
380644;-0.004883;0.039062;1.025391;
380784;-0.005859;0.033203;1.024414;
380924;-0.004883;0.036133;1.030273;
381064;-0.004883;0.041016;1.029297;
381204;-0.002930;0.034180;1.027344;
381344;-0.006836;0.032227;1.026367;
381484;-0.003906;0.035156;1.028320;
381624;-0.003906;0.032227;1.025391;
381759;-0.003906;0.035156;1.031250;
381909;-0.003906;0.030273;1.031250;
382070;-0.004883;0.036133;1.037109;
382219;-0.003906;0.034180;1.030273;
382354;-0.004883;0.035156;1.023438;
382494;-0.005859;0.036133;1.024414;
382634;-0.004883;0.034180;1.015625;
382774;-0.003906;0.039062;1.035156;
382914;-0.005859;0.038086;1.028320;
383054;-0.004883;0.037109;1.030273;
383194;-0.004883;0.036133;1.031250;
383334;-0.003906;0.038086;1.026367;
383474;-0.006836;0.038086;1.029297;
383614;-0.007812;0.037109;1.031250;
383754;-0.001953;0.037109;1.032227;
383894;-0.006836;0.036133;1.022461;
384034;-0.007812;0.034180;1.028320;
384184;-0.005859;0.039062;1.025391;
384320;-0.006836;0.036133;1.033203;
384469;-0.005859;0.033203;1.030273;
384619;-0.004883;0.036133;1.022461;
384759;-0.007812;0.033203;1.019531;
384909;-0.004883;0.038086;1.026367;
385054;-0.004883;0.036133;1.029297;
385194;-0.004883;0.035156;1.031250;
385334;-0.003906;0.036133;1.027344;
385474;-0.004883;0.034180;1.024414;
385614;-0.005859;0.031250;1.034180;
385754;-0.005859;0.032227;1.039062;
385894;-0.005859;0.035156;1.034180;
386034;-0.002930;0.037109;1.029297;
386174;-0.005859;0.033203;1.026367;
386314;-0.006836;0.036133;1.031250;
386454;-0.004883;0.036133;1.028320;
386594;-0.005859;0.033203;1.024414;
386734;-0.007812;0.030273;1.020508;
386884;-0.004883;0.032227;1.023438;
387024;-0.004883;0.030273;1.027344;
387164;-0.005859;0.032227;1.019531;
387304;-0.005859;0.033203;1.022461;
387430;-0.005859;0.036133;1.034180;
387589;-0.004883;0.031250;1.031250;
387740;-0.002930;0.036133;1.035156;
387904;-0.007812;0.035156;1.027344;
388044;-0.002930;0.031250;1.039062;
388194;-0.006836;0.038086;1.031250;
388334;-0.005859;0.045898;1.038086;
388474;-0.009766;0.035156;1.021484;
388614;-0.006836;0.041992;1.025391;
388754;-0.006836;0.041016;1.031250;
388894;-0.007812;0.044922;1.028320;
389044;-0.007812;0.039062;1.025391;
389184;-0.007812;0.042969;1.019531;
389324;-0.006836;0.041992;1.022461;
389464;-0.003906;0.038086;1.035156;
389604;-0.007812;0.038086;1.029297;
389744;-0.007812;0.035156;1.024414;
389884;-0.004883;0.039062;1.022461;
390029;-0.009766;0.036133;1.023438;
390180;-0.005859;0.039062;1.024414;
390329;-0.006836;0.036133;1.025391;
390494;-0.008789;0.034180;1.024414;
390634;-0.006836;0.034180;1.019531;
390774;-0.003906;0.034180;1.033203;
390914;-0.008789;0.031250;1.031250;
391054;-0.007812;0.031250;1.023438;
391194;-0.010742;0.040039;1.014648;
391334;-0.008789;0.035156;1.022461;
391474;-0.001953;0.032227;1.032227;
391624;-0.005859;0.029297;1.062500;
391764;-0.006836;0.032227;1.071289;
391904;-0.008789;0.039062;1.039062;
392054;-0.005859;0.044922;1.032227;
392194;-0.007812;0.039062;1.035156;
392334;-0.011719;0.041016;1.035156;
392489;-0.009766;0.047852;1.026367;
392640;-0.008789;0.050781;1.022461;
392800;-0.011719;0.041016;1.003906;
392964;-0.009766;0.041016;1.010742;
393104;-0.009766;0.036133;1.010742;
393254;-0.009766;0.038086;1.002930;
393394;-0.008789;0.039062;1.007812;
393534;-0.004883;0.039062;1.022461;
393684;-0.010742;0.027344;1.033203;
393824;-0.006836;0.028320;1.028320;
393964;-0.008789;0.032227;1.017578;
394104;-0.008789;0.034180;1.029297;
394244;-0.005859;0.034180;1.032227;
394394;-0.007812;0.031250;1.049805;
394534;-0.006836;0.030273;1.054688;
394674;-0.008789;0.041992;1.040039;
394814;-0.007812;0.043945;1.033203;
394951;-0.010742;0.041992;1.032227;
395099;-0.006836;0.037109;1.018555;
395259;-0.009766;0.036133;1.021484;
395420;-0.011719;0.034180;1.020508;
395574;-0.011719;0.033203;1.003906;
395724;-0.008789;0.027344;1.010742;
395874;-0.009766;0.029297;1.025391;
396014;-0.012695;0.038086;1.027344;
396154;-0.004883;0.030273;1.033203;
396304;-0.011719;0.035156;1.022461;
396444;-0.007812;0.036133;1.032227;
396594;-0.007812;0.038086;1.035156;
396734;-0.012695;0.041016;1.022461;
396874;-0.005859;0.039062;1.019531;
397024;-0.009766;0.040039;1.025391;
397164;-0.011719;0.040039;1.022461;
397304;-0.008789;0.037109;1.024414;
397444;-0.008789;0.031250;1.021484;
397589;-0.011719;0.040039;1.022461;
397749;-0.009766;0.033203;1.018555;
397900;-0.008789;0.027344;1.029297;
398064;-0.011719;0.026367;1.040039;
398204;-0.009766;0.040039;1.026367;
398344;-0.005859;0.033203;1.040039;
398484;-0.008789;0.038086;1.041016;
398624;-0.008789;0.038086;1.040039;
398764;-0.009766;0.032227;1.027344;
398904;-0.007812;0.030273;1.019531;
399054;-0.009766;0.036133;1.027344;
399194;-0.008789;0.033203;1.027344;
399334;-0.007812;0.035156;1.037109;
399484;-0.009766;0.033203;1.026367;
399624;-0.009766;0.043945;1.025391;
399764;-0.012695;0.041992;1.017578;
399904;-0.011719;0.040039;1.004883;
400040;-0.010742;0.042969;1.017578;
400190;-0.011719;0.041992;1.020508;
400349;-0.012695;0.037109;1.016602;
400510;-0.010742;0.044922;1.016602;
400654;-0.012695;0.044922;1.018555;
400794;-0.009766;0.040039;1.009766;
400934;-0.009766;0.040039;1.023438;
401074;-0.010742;0.037109;1.017578;
401214;-0.011719;0.036133;1.021484;
401354;-0.008789;0.036133;1.028320;
401494;-0.009766;0.033203;1.016602;
401634;-0.006836;0.036133;1.032227;
401774;-0.010742;0.034180;1.025391;
401914;-0.012695;0.037109;1.027344;
402054;-0.008789;0.035156;1.039062;
402194;-0.009766;0.030273;1.030273;
402344;-0.009766;0.028320;1.042969;
402484;-0.008789;0.029297;1.038086;
402630;-0.009766;0.033203;1.026367;
402789;-0.007812;0.035156;1.030273;
402949;-0.006836;0.036133;1.039062;
403109;-0.010742;0.032227;1.023438;
403264;-0.011719;0.039062;1.024414;
403404;-0.011719;0.034180;1.036133;
403544;-0.009766;0.038086;1.019531;
403694;-0.008789;0.041992;1.026367;
403834;-0.013672;0.041992;1.027344;
403984;-0.010742;0.035156;1.019531;
404134;-0.010742;0.032227;1.034180;
404274;-0.010742;0.037109;1.021484;
404414;-0.011719;0.033203;1.028320;
404554;-0.011719;0.035156;1.031250;
404694;-0.010742;0.037109;1.015625;
404834;-0.009766;0.035156;1.028320;
404974;-0.011719;0.036133;1.012695;
405114;-0.013672;0.041016;1.022461;
405249;-0.009766;0.037109;1.037109;
405409;-0.012695;0.033203;1.017578;
405560;-0.008789;0.031250;1.028320;
405709;-0.010742;0.031250;1.025391;
405864;-0.008789;0.025391;1.042969;
406004;-0.008789;0.025391;1.048828;
406144;-0.009766;0.022461;1.022461;
406284;-0.010742;0.030273;1.010742;
406424;-0.006836;0.023438;1.037109;
406564;-0.005859;0.028320;1.060547;
406704;-0.015625;0.034180;1.033203;
406844;-0.007812;0.046875;1.012695;
406994;-0.010742;0.037109;1.032227;
407134;-0.012695;0.036133;1.029297;
407274;-0.011719;0.035156;1.031250;
407414;-0.011719;0.044922;1.016602;
407554;-0.014648;0.041016;1.011719;
407694;-0.011719;0.038086;1.018555;
407829;-0.010742;0.040039;1.006836;
407969;-0.009766;0.049805;1.013672;
408114;-0.016602;0.041992;1.006836;
408249;-0.009766;0.035156;1.022461;
408399;-0.006836;0.028320;1.030273;
408554;-0.010742;0.024414;1.033203;
408694;-0.005859;0.026367;1.045898;
408834;-0.005859;0.026367;1.046875;
408974;-0.011719;0.027344;1.026367;
409114;-0.011719;0.036133;1.005859;
409254;-0.011719;0.039062;1.010742;
409394;-0.016602;0.035156;0.977539;
409544;-0.010742;0.033203;0.972656;
409684;-0.018555;0.030273;0.963867;
409824;-0.016602;0.036133;0.943359;
409964;-0.017578;0.027344;0.947266;
410104;-0.016602;0.030273;0.937500;
410244;-0.012695;0.030273;0.953125;
410384;-0.016602;0.026367;0.956055;
410519;-0.016602;0.020508;0.968750;
410674;-0.016602;0.025391;0.955078;
410810;-0.012695;0.019531;0.979492;
410960;-0.014648;0.028320;0.979492;
411119;-0.015625;0.030273;0.980469;
411284;-0.010742;0.029297;0.997070;
411424;-0.015625;0.029297;1.006836;
411564;-0.015625;0.041016;1.002930;
411704;-0.014648;0.040039;0.989258;
411844;-0.014648;0.043945;0.995117;
411984;-0.015625;0.040039;0.992188;
412134;-0.018555;0.042969;0.989258;
412274;-0.016602;0.038086;0.985352;
412414;-0.017578;0.037109;0.974609;
412554;-0.021484;0.032227;0.968750;
412694;-0.019531;0.041016;0.967773;
412834;-0.019531;0.035156;0.958008;
412974;-0.017578;0.038086;0.983398;
413114;-0.017578;0.041992;0.987305;
413250;-0.017578;0.040039;0.977539;
413411;-0.017578;0.037109;0.986328;
413569;-0.018555;0.040039;0.993164;
413724;-0.019531;0.037109;0.983398;
413864;-0.021484;0.034180;0.983398;
414004;-0.015625;0.033203;0.999023;
414144;-0.015625;0.030273;1.006836;
414284;-0.019531;0.026367;0.995117;
414424;-0.016602;0.032227;0.978516;
414564;-0.018555;0.034180;0.987305;
414704;-0.021484;0.040039;1.007812;
414844;-0.014648;0.033203;1.014648;
414984;-0.020508;0.041016;0.997070;
415124;-0.017578;0.034180;1.000977;
415264;-0.021484;0.035156;0.999023;
415404;-0.019531;0.029297;0.989258;
415544;-0.018555;0.030273;0.980469;
415680;-0.020508;0.026367;0.984375;
415829;-0.018555;0.033203;0.989258;
415979;-0.021484;0.034180;0.972656;
416140;-0.019531;0.039062;0.973633;
416304;-0.020508;0.041016;0.978516;
416454;-0.024414;0.036133;0.984375;
416594;-0.024414;0.033203;0.991211;
416734;-0.019531;0.033203;0.991211;
416874;-0.025391;0.039062;0.980469;
417014;-0.026367;0.042969;0.956055;
417154;-0.026367;0.038086;0.947266;
417294;-0.027344;0.040039;0.964844;
417434;-0.029297;0.034180;0.950195;
417574;-0.023438;0.035156;0.943359;
417714;-0.030273;0.032227;0.938477;
417854;-0.024414;0.032227;0.950195;
418004;-0.029297;0.028320;0.950195;
418144;-0.028320;0.028320;0.937500;
418280;-0.024414;0.025391;0.932617;
418429;-0.025391;0.026367;0.939453;
418584;-0.030273;0.029297;0.942383;
418709;-0.027344;0.032227;0.935547;
418864;-0.029297;0.034180;0.927734;
419084;-0.037109;0.028320;0.921875;
419234;-0.033203;0.030273;0.916016;
419374;-0.032227;0.036133;0.924805;
419524;-0.032227;0.037109;0.941406;
419664;-0.031250;0.033203;0.953125;
419804;-0.030273;0.035156;0.966797;
419954;-0.032227;0.030273;0.973633;
420094;-0.028320;0.037109;0.981445;
420234;-0.029297;0.040039;0.982422;
420384;-0.032227;0.037109;0.982422;
420524;-0.031250;0.039062;0.989258;
420664;-0.033203;0.041016;0.983398;
420804;-0.033203;0.036133;0.971680;
420944;-0.033203;0.036133;0.967773;
421079;-0.035156;0.037109;0.965820;
421239;-0.033203;0.038086;0.986328;
421399;-0.032227;0.034180;0.985352;
421539;-0.032227;0.033203;0.993164;
421680;-0.029297;0.033203;1.000977;
421824;-0.035156;0.033203;1.006836;
421964;-0.032227;0.038086;1.004883;
422104;-0.033203;0.039062;1.017578;
422244;-0.032227;0.033203;1.029297;
422384;-0.032227;0.037109;1.031250;
422524;-0.032227;0.035156;1.019531;
422664;-0.032227;0.035156;1.043945;
422814;-0.032227;0.025391;1.032227;
422954;-0.028320;0.038086;1.039062;
423094;-0.032227;0.034180;1.039062;
423234;-0.032227;0.043945;1.021484;
423374;-0.028320;0.036133;1.028320;
423514;-0.035156;0.039062;1.026367;
423654;-0.036133;0.035156;1.022461;
423790;-0.032227;0.040039;1.026367;
423939;-0.034180;0.036133;1.007812;
424089;-0.036133;0.040039;1.015625;
424229;-0.033203;0.036133;1.017578;
424374;-0.038086;0.035156;1.003906;
424524;-0.036133;0.029297;1.009766;
424664;-0.036133;0.034180;1.015625;
424804;-0.038086;0.037109;1.011719;
424944;-0.032227;0.040039;1.002930;
425084;-0.037109;0.032227;1.023438;
425234;-0.034180;0.028320;1.025391;
425374;-0.034180;0.029297;1.003906;
425514;-0.035156;0.034180;1.012695;
425654;-0.036133;0.038086;1.022461;
425794;-0.036133;0.031250;1.019531;
425934;-0.036133;0.034180;1.026367;
426074;-0.034180;0.031250;1.008789;
426214;-0.039062;0.037109;1.007812;
426349;-0.034180;0.033203;1.018555;
426501;-0.034180;0.034180;1.021484;
426660;-0.036133;0.032227;1.012695;
426809;-0.034180;0.027344;1.013672;
426974;-0.039062;0.029297;1.016602;
427114;-0.037109;0.034180;1.005859;
427264;-0.034180;0.041016;1.008789;
427404;-0.040039;0.037109;1.010742;
427544;-0.041016;0.037109;1.013672;
427684;-0.037109;0.038086;1.011719;
427824;-0.038086;0.037109;1.005859;
427964;-0.041016;0.035156;1.009766;
428104;-0.037109;0.036133;1.010742;
428244;-0.037109;0.033203;1.010742;
428384;-0.040039;0.034180;1.014648;
428524;-0.039062;0.033203;1.013672;
428664;-0.040039;0.033203;0.992188;
428814;-0.039062;0.029297;0.993164;
428950;-0.037109;0.032227;1.001953;
429109;-0.040039;0.031250;1.020508;
429260;-0.041016;0.032227;1.018555;
429419;-0.038086;0.030273;1.018555;
429584;-0.039062;0.038086;1.015625;
429724;-0.041016;0.034180;1.008789;
429864;-0.041016;0.041016;1.006836;
430004;-0.043945;0.034180;1.004883;
430144;-0.041992;0.034180;0.997070;
430284;-0.041016;0.036133;0.998047;
430424;-0.041016;0.040039;1.002930;
430574;-0.042969;0.035156;0.989258;
430714;-0.042969;0.035156;0.991211;
430854;-0.041992;0.035156;0.998047;
430994;-0.042969;0.033203;1.003906;
431134;-0.039062;0.035156;1.009766;
431274;-0.039062;0.024414;1.014648;
431414;-0.040039;0.027344;0.999023;
431554;-0.041992;0.025391;0.999023;
431690;-0.040039;0.026367;1.005859;
431850;-0.040039;0.030273;1.005859;
431999;-0.041016;0.034180;1.000000;
432164;-0.046875;0.034180;0.991211;
432304;-0.040039;0.039062;1.004883;
432444;-0.041992;0.036133;1.019531;
432584;-0.041992;0.036133;1.035156;
432724;-0.041016;0.042969;1.035156;
432864;-0.036133;0.034180;1.061523;
433004;-0.034180;0.028320;1.080078;
433144;-0.038086;0.026367;1.069336;
433284;-0.033203;0.033203;1.056641;
433424;-0.041992;0.026367;1.041016;
433564;-0.037109;0.033203;1.049805;
433704;-0.036133;0.040039;1.050781;
433854;-0.039062;0.043945;1.063477;
433994;-0.041016;0.040039;1.037109;
434130;-0.041016;0.043945;1.036133;
434280;-0.041016;0.035156;1.031250;
434440;-0.042969;0.038086;1.019531;
434589;-0.042969;0.039062;1.005859;
434754;-0.040039;0.034180;1.003906;
434904;-0.041016;0.031250;1.014648;
435044;-0.043945;0.032227;1.018555;
435184;-0.039062;0.030273;1.009766;
435334;-0.044922;0.036133;0.987305;
435474;-0.045898;0.041016;0.994141;
435614;-0.044922;0.039062;1.006836;
435764;-0.042969;0.035156;1.012695;
435904;-0.043945;0.033203;1.000977;
436044;-0.040039;0.030273;1.005859;
436184;-0.043945;0.028320;1.010742;
436324;-0.043945;0.034180;1.017578;
436464;-0.041992;0.038086;1.023438;
436604;-0.041016;0.030273;1.044922;
436750;-0.041016;0.031250;1.052734;
436909;-0.041992;0.041016;1.065430;
437069;-0.037109;0.030273;1.083984;
437234;-0.035156;0.034180;1.124023;
437374;-0.031250;0.038086;1.141602;
437514;-0.033203;0.035156;1.138672;
437654;-0.034180;0.026367;1.130859;
437794;-0.034180;0.026367;1.121094;
437934;-0.037109;0.022461;1.120117;
438074;-0.035156;0.028320;1.122070;
438214;-0.039062;0.034180;1.092773;
438364;-0.041992;0.042969;1.075195;
438504;-0.038086;0.033203;1.068359;
438644;-0.042969;0.035156;1.048828;
438794;-0.043945;0.031250;1.054688;
438934;-0.040039;0.035156;1.047852;
439074;-0.041016;0.041016;1.033203;
439210;-0.045898;0.039062;1.038086;
439359;-0.041016;0.037109;1.050781;
439519;-0.040039;0.039062;1.063477;
439684;-0.041016;0.042969;1.073242;
439824;-0.038086;0.039062;1.072266;
439964;-0.041016;0.035156;1.082031;
440114;-0.041016;0.039062;1.084961;
440254;-0.034180;0.037109;1.097656;
440394;-0.039062;0.039062;1.095703;
440544;-0.041016;0.035156;1.075195;
440684;-0.039062;0.035156;1.060547;
440824;-0.041016;0.034180;1.071289;
440974;-0.042969;0.034180;1.057617;
441114;-0.041016;0.036133;1.039062;
441254;-0.045898;0.032227;1.021484;
441394;-0.044922;0.033203;1.006836;
441534;-0.045898;0.035156;0.992188;
441669;-0.046875;0.030273;0.976562;
441819;-0.049805;0.035156;0.974609;
441979;-0.048828;0.034180;0.955078;
442129;-0.051758;0.032227;0.937500;
442274;-0.048828;0.033203;0.935547;
442424;-0.051758;0.038086;0.940430;
442564;-0.052734;0.036133;0.949219;
442704;-0.047852;0.035156;0.955078;
442854;-0.050781;0.035156;0.962891;
442994;-0.051758;0.038086;0.979492;
443134;-0.047852;0.038086;0.997070;
443284;-0.042969;0.040039;1.031250;
443424;-0.044922;0.034180;1.015625;
443564;-0.045898;0.038086;1.026367;
443704;-0.042969;0.034180;1.036133;
443844;-0.044922;0.037109;1.043945;
443984;-0.045898;0.037109;1.039062;
444124;-0.041992;0.032227;1.047852;
444270;-0.041016;0.032227;1.054688;
444419;-0.045898;0.038086;1.066406;
444579;-0.042969;0.033203;1.056641;
444744;-0.045898;0.033203;1.041016;
444884;-0.043945;0.033203;1.038086;
445024;-0.041992;0.028320;1.034180;
445164;-0.042969;0.028320;1.029297;
445314;-0.044922;0.032227;1.013672;
445454;-0.046875;0.027344;0.995117;
445594;-0.046875;0.023438;1.009766;
445744;-0.048828;0.029297;1.003906;
445884;-0.050781;0.036133;0.985352;
446024;-0.046875;0.031250;0.968750;
446164;-0.045898;0.029297;0.983398;
446304;-0.050781;0.029297;0.987305;
446444;-0.051758;0.033203;0.982422;
446584;-0.046875;0.041992;0.983398;
446719;-0.046875;0.038086;0.995117;
446869;-0.046875;0.038086;0.993164;
447019;-0.045898;0.033203;1.015625;
447174;-0.049805;0.037109;1.007812;
447314;-0.046875;0.030273;1.004883;
447454;-0.048828;0.036133;1.001953;
447594;-0.052734;0.039062;0.982422;
447734;-0.045898;0.044922;0.987305;
447874;-0.052734;0.034180;0.978516;
448014;-0.050781;0.033203;0.965820;
448154;-0.048828;0.034180;0.960938;
448294;-0.050781;0.038086;0.971680;
448444;-0.047852;0.033203;0.966797;
448584;-0.048828;0.029297;0.956055;
448724;-0.051758;0.032227;0.959961;
448864;-0.052734;0.032227;0.965820;
449004;-0.049805;0.029297;0.977539;
449140;-0.050781;0.029297;0.990234;
449301;-0.045898;0.031250;1.005859;
449460;-0.045898;0.031250;1.025391;
449609;-0.044922;0.031250;1.048828;
449774;-0.045898;0.036133;1.047852;
449924;-0.043945;0.034180;1.042969;
450064;-0.048828;0.038086;1.037109;
450204;-0.043945;0.036133;1.052734;
450344;-0.046875;0.035156;1.041016;
450484;-0.044922;0.040039;1.064453;
450624;-0.039062;0.043945;1.062500;
450764;-0.044922;0.035156;1.063477;
450904;-0.045898;0.036133;1.048828;
451044;-0.043945;0.041016;1.043945;
451184;-0.041992;0.036133;1.049805;
451324;-0.048828;0.030273;1.035156;
451464;-0.048828;0.033203;1.046875;
451604;-0.041016;0.022461;1.036133;
451759;-0.044922;0.024414;1.034180;
451920;-0.046875;0.027344;1.036133;
452059;-0.047852;0.040039;1.045898;
452209;-0.045898;0.018555;1.016602;
452364;-0.043945;0.036133;1.023438;
452504;-0.053711;0.033203;0.997070;
452644;-0.046875;0.036133;0.981445;
452784;-0.049805;0.019531;0.992188;
452924;-0.053711;0.032227;1.012695;
453064;-0.043945;0.031250;1.000000;
453204;-0.052734;0.024414;0.986328;
453344;-0.051758;0.024414;0.952148;
453484;-0.045898;0.027344;0.998047;
453624;-0.050781;0.031250;1.024414;
453764;-0.046875;0.021484;1.013672;
453904;-0.041992;0.035156;1.022461;
454054;-0.054688;0.032227;1.003906;
454194;-0.043945;0.049805;1.031250;
454329;-0.054688;0.042969;1.033203;
454481;-0.046875;0.048828;1.048828;
454639;-0.050781;0.044922;1.036133;
454790;-0.049805;0.043945;1.040039;
454944;-0.049805;0.034180;1.032227;
455084;-0.047852;0.049805;1.051758;
455224;-0.049805;0.047852;1.057617;
455374;-0.046875;0.061523;1.039062;
455514;-0.052734;0.045898;1.015625;
455654;-0.047852;0.045898;1.041016;
455794;-0.048828;0.041992;1.046875;
455934;-0.044922;0.047852;1.056641;
456074;-0.049805;0.029297;1.046875;
456214;-0.044922;0.032227;1.035156;
456354;-0.046875;0.028320;1.032227;
456494;-0.049805;0.044922;1.063477;
456634;-0.046875;0.031250;1.065430;
456774;-0.045898;0.037109;1.068359;
456919;-0.046875;0.031250;1.063477;
457069;-0.046875;0.031250;1.055664;
457220;-0.049805;0.030273;1.056641;
457374;-0.046875;0.041016;1.060547;
457524;-0.051758;0.029297;1.048828;
457664;-0.044922;0.032227;1.056641;
457804;-0.045898;0.031250;1.037109;
457954;-0.051758;0.028320;1.009766;
458094;-0.049805;0.035156;1.008789;
458234;-0.057617;0.040039;0.980469;
458384;-0.051758;0.037109;0.966797;
458524;-0.053711;0.040039;0.981445;
458664;-0.054688;0.039062;0.969727;
458814;-0.054688;0.041016;0.958984;
458954;-0.053711;0.035156;0.966797;
459094;-0.053711;0.037109;0.969727;
459234;-0.049805;0.043945;1.013672;
459370;-0.055664;0.042969;1.022461;
459519;-0.057617;0.032227;0.973633;
459680;-0.046875;0.039062;0.999023;
459834;-0.054688;0.041016;1.025391;
459974;-0.052734;0.031250;1.020508;
460114;-0.046875;0.025391;1.013672;
460254;-0.050781;0.040039;1.050781;
460404;-0.051758;0.032227;1.053711;
460544;-0.049805;0.027344;1.034180;
460684;-0.049805;0.032227;1.037109;
460824;-0.047852;0.031250;1.033203;
460964;-0.053711;0.028320;1.018555;
461104;-0.054688;0.036133;1.017578;
461254;-0.054688;0.037109;1.010742;
461394;-0.053711;0.027344;1.009766;
461534;-0.053711;0.033203;0.997070;
461674;-0.054688;0.034180;0.981445;
461816;-0.052734;0.026367;0.984375;
461970;-0.057617;0.024414;0.961914;
462130;-0.055664;0.031250;0.958984;
462269;-0.057617;0.033203;0.966797;
462414;-0.058594;0.036133;0.974609;
462554;-0.053711;0.038086;0.977539;
462694;-0.054688;0.039062;1.004883;
462834;-0.054688;0.042969;1.031250;
462974;-0.051758;0.048828;1.032227;
463124;-0.051758;0.041992;1.040039;
463264;-0.049805;0.041016;1.060547;
463404;-0.052734;0.041016;1.056641;
463544;-0.049805;0.039062;1.067383;
463684;-0.048828;0.039062;1.066406;
463824;-0.047852;0.036133;1.072266;
463964;-0.048828;0.037109;1.083008;
464104;-0.050781;0.038086;1.084961;
464244;-0.044922;0.039062;1.078125;
464380;-0.051758;0.037109;1.083008;
464529;-0.049805;0.041016;1.079102;
464680;-0.045898;0.040039;1.073242;
464839;-0.050781;0.041016;1.057617;
464994;-0.052734;0.035156;1.041016;
465134;-0.052734;0.037109;1.024414;
465274;-0.057617;0.036133;1.005859;
465414;-0.050781;0.033203;1.011719;
465554;-0.056641;0.037109;0.989258;
465704;-0.053711;0.033203;0.964844;
465844;-0.056641;0.030273;0.956055;
465984;-0.057617;0.033203;0.967773;
466124;-0.055664;0.036133;0.966797;
466264;-0.058594;0.034180;0.957031;
466414;-0.055664;0.031250;0.983398;
466554;-0.053711;0.028320;1.000977;
466694;-0.055664;0.030273;1.005859;
466834;-0.048828;0.036133;1.022461;
466976;-0.050781;0.035156;1.042969;
467119;-0.049805;0.032227;1.055664;
467254;-0.051758;0.032227;1.067383;
467389;-0.050781;0.031250;1.071289;
467539;-0.047852;0.031250;1.077148;
467689;-0.048828;0.035156;1.090820;
467854;-0.046875;0.039062;1.092773;
467994;-0.048828;0.038086;1.086914;
468134;-0.045898;0.034180;1.087891;
468274;-0.047852;0.034180;1.074219;
468414;-0.050781;0.041992;1.056641;
468554;-0.052734;0.041016;1.053711;
468694;-0.054688;0.039062;1.028320;
468844;-0.052734;0.040039;1.017578;
468984;-0.054688;0.041016;1.002930;
469124;-0.056641;0.040039;0.987305;
469274;-0.056641;0.038086;0.976562;
469414;-0.056641;0.040039;0.970703;
469554;-0.057617;0.036133;0.960938;
469694;-0.057617;0.034180;0.963867;
469830;-0.058594;0.035156;0.967773;
469979;-0.055664;0.032227;0.974609;
470139;-0.056641;0.036133;0.980469;
470304;-0.056641;0.034180;0.989258;
470444;-0.055664;0.035156;1.002930;
470594;-0.052734;0.033203;1.020508;
470734;-0.052734;0.033203;1.024414;
470874;-0.049805;0.030273;1.040039;
471024;-0.048828;0.029297;1.064453;
471164;-0.049805;0.028320;1.075195;
471304;-0.047852;0.030273;1.087891;
471444;-0.046875;0.030273;1.083984;
471584;-0.047852;0.034180;1.095703;
471724;-0.048828;0.036133;1.096680;
471864;-0.047852;0.032227;1.083984;
472004;-0.050781;0.031250;1.075195;
472144;-0.048828;0.034180;1.058594;
472284;-0.052734;0.036133;1.053711;
472430;-0.055664;0.034180;1.024414;
472590;-0.055664;0.035156;1.001953;
472749;-0.054688;0.035156;0.995117;
472894;-0.059570;0.033203;0.972656;
473034;-0.058594;0.036133;0.964844;
473174;-0.055664;0.037109;0.962891;
473314;-0.058594;0.037109;0.958984;
473454;-0.060547;0.039062;0.967773;
473594;-0.055664;0.037109;0.987305;
473734;-0.056641;0.032227;1.005859;
473874;-0.053711;0.032227;1.016602;
474014;-0.052734;0.034180;1.033203;
474154;-0.049805;0.033203;1.037109;
474294;-0.049805;0.032227;1.048828;
474434;-0.049805;0.031250;1.055664;
474574;-0.052734;0.030273;1.051758;
474714;-0.049805;0.033203;1.054688;
474859;-0.052734;0.034180;1.054688;
475009;-0.052734;0.032227;1.035156;
475159;-0.053711;0.036133;1.026367;
475310;-0.054688;0.035156;1.009766;
475454;-0.055664;0.036133;1.000000;
475594;-0.054688;0.039062;0.989258;
475734;-0.055664;0.039062;0.974609;
475874;-0.056641;0.035156;0.959961;
476014;-0.060547;0.037109;0.951172;
476154;-0.058594;0.041016;0.956055;
476294;-0.058594;0.036133;0.944336;
476434;-0.057617;0.034180;0.946289;
476574;-0.058594;0.036133;0.953125;
476714;-0.059570;0.037109;0.945312;
476864;-0.058594;0.037109;0.956055;
477004;-0.059570;0.035156;0.961914;
477144;-0.056641;0.036133;0.967773;
477284;-0.054688;0.035156;0.981445;
477429;-0.055664;0.037109;0.993164;
477590;-0.054688;0.036133;0.998047;
477741;-0.053711;0.034180;1.003906;
477889;-0.056641;0.034180;1.012695;
478044;-0.054688;0.034180;1.014648;
478184;-0.050781;0.034180;1.025391;
478324;-0.055664;0.031250;1.027344;
478464;-0.052734;0.028320;1.031250;
478604;-0.050781;0.035156;1.029297;
478744;-0.053711;0.033203;1.017578;
478884;-0.051758;0.032227;1.025391;
479024;-0.050781;0.035156;1.029297;
479174;-0.050781;0.036133;1.039062;
479314;-0.051758;0.034180;1.048828;
479454;-0.050781;0.037109;1.050781;
479604;-0.050781;0.034180;1.064453;
479744;-0.048828;0.039062;1.077148;
479884;-0.047852;0.038086;1.085938;
480019;-0.045898;0.034180;1.094727;
480169;-0.047852;0.037109;1.102539;
480330;-0.045898;0.037109;1.115234;
480489;-0.045898;0.035156;1.121094;
480654;-0.045898;0.031250;1.126953;
480794;-0.043945;0.034180;1.129883;
480934;-0.044922;0.033203;1.134766;
481084;-0.045898;0.033203;1.144531;
481224;-0.042969;0.034180;1.141602;
481364;-0.043945;0.033203;1.150391;
481504;-0.043945;0.035156;1.150391;
481644;-0.042969;0.033203;1.157227;
481784;-0.040039;0.034180;1.168945;
481924;-0.041992;0.031250;1.189453;
482064;-0.041016;0.035156;1.188477;
482204;-0.040039;0.033203;1.188477;
482354;-0.039062;0.036133;1.190430;
482494;-0.041992;0.032227;1.188477;
482629;-0.040039;0.035156;1.194336;
482789;-0.040039;0.036133;1.183594;
482920;-0.041992;0.035156;1.178711;
483069;-0.042969;0.038086;1.170898;
483234;-0.043945;0.037109;1.157227;
483374;-0.041992;0.040039;1.159180;
483514;-0.043945;0.042969;1.163086;
483654;-0.045898;0.037109;1.142578;
483794;-0.044922;0.039062;1.145508;
483934;-0.045898;0.034180;1.138672;
484074;-0.044922;0.040039;1.126953;
484214;-0.044922;0.039062;1.129883;
484354;-0.045898;0.035156;1.117188;
484494;-0.046875;0.032227;1.105469;
484634;-0.046875;0.031250;1.101562;
484774;-0.046875;0.031250;1.084961;
484914;-0.048828;0.034180;1.088867;
485054;-0.046875;0.032227;1.086914;
485189;-0.048828;0.034180;1.083008;
485331;-0.046875;0.034180;1.082031;
485479;-0.051758;0.034180;1.066406;
485630;-0.050781;0.036133;1.054688;
485784;-0.049805;0.040039;1.056641;
485924;-0.049805;0.033203;1.052734;
486064;-0.049805;0.033203;1.051758;
486204;-0.052734;0.035156;1.042969;
486344;-0.049805;0.033203;1.035156;
486494;-0.052734;0.036133;1.034180;
486634;-0.048828;0.034180;1.038086;
486774;-0.050781;0.034180;1.031250;
486914;-0.049805;0.036133;1.035156;
487054;-0.051758;0.034180;1.032227;
487194;-0.053711;0.038086;1.025391;
487334;-0.052734;0.039062;1.020508;
487474;-0.053711;0.036133;1.012695;
487614;-0.053711;0.035156;1.004883;
487749;-0.056641;0.035156;0.998047;
487901;-0.054688;0.034180;0.989258;
488061;-0.056641;0.036133;0.986328;
488220;-0.053711;0.035156;0.966797;
488364;-0.055664;0.036133;0.963867;
488504;-0.056641;0.033203;0.958008;
488644;-0.056641;0.032227;0.944336;
488784;-0.054688;0.035156;0.957031;
488924;-0.059570;0.031250;0.945312;
489064;-0.056641;0.032227;0.943359;
489204;-0.057617;0.032227;0.935547;
489344;-0.058594;0.033203;0.944336;
489484;-0.056641;0.035156;0.949219;
489624;-0.058594;0.037109;0.947266;
489764;-0.060547;0.037109;0.946289;
489904;-0.055664;0.037109;0.947266;
490044;-0.058594;0.038086;0.950195;
490184;-0.055664;0.035156;0.970703;
490319;-0.056641;0.037109;0.966797;
490470;-0.052734;0.037109;0.994141;
490629;-0.052734;0.036133;1.016602;
490784;-0.049805;0.030273;1.024414;
490924;-0.050781;0.036133;1.039062;
491064;-0.049805;0.038086;1.046875;
491214;-0.048828;0.035156;1.057617;
491354;-0.048828;0.036133;1.066406;
491494;-0.045898;0.038086;1.076172;
491644;-0.045898;0.035156;1.063477;
491784;-0.048828;0.035156;1.076172;
491924;-0.047852;0.036133;1.079102;
492064;-0.043945;0.032227;1.079102;
492204;-0.045898;0.032227;1.072266;
492344;-0.046875;0.030273;1.069336;
492484;-0.047852;0.027344;1.050781;
492624;-0.051758;0.029297;1.036133;
492761;-0.048828;0.034180;1.030273;
492909;-0.053711;0.028320;0.996094;
493070;-0.055664;0.032227;0.976562;
493229;-0.055664;0.028320;0.958008;
493374;-0.056641;0.030273;0.936523;
493514;-0.055664;0.033203;0.928711;
493654;-0.060547;0.031250;0.914062;
493794;-0.060547;0.034180;0.906250;
493934;-0.061523;0.036133;0.909180;
494074;-0.057617;0.037109;0.911133;
494224;-0.058594;0.035156;0.916992;
494364;-0.056641;0.035156;0.948242;
494504;-0.057617;0.035156;0.960938;
494644;-0.054688;0.035156;0.989258;
494784;-0.054688;0.037109;1.007812;
494924;-0.052734;0.035156;1.021484;
495064;-0.049805;0.038086;1.032227;
495204;-0.049805;0.034180;1.059570;
495350;-0.049805;0.036133;1.071289;
495510;-0.045898;0.036133;1.080078;
495670;-0.047852;0.035156;1.086914;
495834;-0.046875;0.033203;1.083984;
495974;-0.043945;0.037109;1.093750;
496114;-0.048828;0.036133;1.089844;
496254;-0.045898;0.038086;1.099609;
496394;-0.047852;0.033203;1.072266;
496534;-0.048828;0.032227;1.060547;
496674;-0.049805;0.036133;1.046875;
496814;-0.049805;0.034180;1.028320;
496954;-0.051758;0.038086;1.001953;
497104;-0.054688;0.033203;0.970703;
497244;-0.056641;0.035156;0.961914;
497384;-0.054688;0.032227;0.963867;
497534;-0.054688;0.033203;0.975586;
497674;-0.052734;0.035156;0.986328;
497819;-0.052734;0.035156;1.000000;
497979;-0.051758;0.032227;1.008789;
498141;-0.048828;0.033203;1.033203;
498279;-0.048828;0.036133;1.039062;
498410;-0.048828;0.036133;1.059570;
498574;-0.047852;0.031250;1.066406;
498724;-0.047852;0.036133;1.078125;
498864;-0.045898;0.035156;1.081055;
499004;-0.048828;0.036133;1.083008;
499154;-0.045898;0.036133;1.090820;
499294;-0.042969;0.038086;1.089844;
499434;-0.046875;0.035156;1.085938;
499574;-0.045898;0.036133;1.094727;
499714;-0.043945;0.038086;1.100586;
499854;-0.046875;0.040039;1.096680;
499994;-0.045898;0.041992;1.091797;
500134;-0.046875;0.036133;1.089844;
500274;-0.047852;0.038086;1.083984;
500414;-0.044922;0.034180;1.088867;
500559;-0.046875;0.032227;1.083008;
500721;-0.043945;0.034180;1.077148;
500864;-0.044922;0.034180;1.082031;
501000;-0.047852;0.037109;1.067383;
501161;-0.046875;0.034180;1.050781;
501324;-0.049805;0.033203;1.040039;
501464;-0.050781;0.032227;1.020508;
501604;-0.052734;0.032227;1.004883;
501754;-0.052734;0.031250;1.003906;
501894;-0.051758;0.031250;0.998047;
502034;-0.048828;0.036133;1.010742;
502174;-0.051758;0.029297;1.014648;
502314;-0.052734;0.032227;1.023438;
502454;-0.048828;0.034180;1.031250;
502594;-0.048828;0.035156;1.044922;
502744;-0.048828;0.036133;1.051758;
502884;-0.048828;0.031250;1.053711;
503024;-0.049805;0.032227;1.061523;
503164;-0.046875;0.032227;1.058594;
503300;-0.046875;0.033203;1.065430;
503449;-0.047852;0.030273;1.063477;
503599;-0.044922;0.034180;1.078125;
503749;-0.046875;0.031250;1.073242;
503909;-0.047852;0.035156;1.078125;
504054;-0.044922;0.033203;1.069336;
504194;-0.044922;0.036133;1.066406;
504334;-0.047852;0.036133;1.068359;
504474;-0.048828;0.030273;1.066406;
504614;-0.046875;0.035156;1.059570;
504754;-0.047852;0.033203;1.060547;
504894;-0.046875;0.034180;1.055664;
505034;-0.044922;0.035156;1.058594;
505174;-0.046875;0.033203;1.052734;
505314;-0.049805;0.031250;1.049805;
505454;-0.045898;0.028320;1.044922;
505594;-0.044922;0.034180;1.045898;
505734;-0.047852;0.034180;1.049805;
505884;-0.046875;0.028320;1.044922;
506010;-0.045898;0.035156;1.049805;
506159;-0.047852;0.033203;1.054688;
506319;-0.047852;0.033203;1.040039;
506484;-0.047852;0.033203;1.044922;
506624;-0.047852;0.033203;1.048828;
506764;-0.046875;0.033203;1.049805;
506904;-0.046875;0.035156;1.041016;
507044;-0.046875;0.035156;1.038086;
507184;-0.048828;0.035156;1.032227;
507324;-0.049805;0.034180;1.024414;
507464;-0.052734;0.032227;1.000977;
507604;-0.052734;0.035156;0.985352;
507744;-0.052734;0.033203;0.970703;
507884;-0.054688;0.031250;0.951172;
508024;-0.056641;0.030273;0.933594;
508164;-0.055664;0.031250;0.927734;
508304;-0.057617;0.034180;0.918945;
508440;-0.055664;0.035156;0.922852;
508589;-0.057617;0.030273;0.910156;
508750;-0.055664;0.033203;0.911133;
508910;-0.054688;0.037109;0.919922;
509074;-0.053711;0.036133;0.921875;
509214;-0.054688;0.035156;0.916992;
509354;-0.056641;0.034180;0.928711;
509504;-0.056641;0.036133;0.928711;
509644;-0.055664;0.032227;0.939453;
509784;-0.053711;0.037109;0.948242;
509934;-0.052734;0.033203;0.977539;
510074;-0.051758;0.033203;0.987305;
510214;-0.046875;0.033203;1.009766;
510354;-0.050781;0.030273;1.017578;
510494;-0.047852;0.033203;1.030273;
510634;-0.046875;0.031250;1.044922;
510774;-0.046875;0.030273;1.061523;
510914;-0.044922;0.030273;1.064453;
511050;-0.042969;0.032227;1.080078;
511199;-0.043945;0.036133;1.086914;
511350;-0.045898;0.030273;1.085938;
511504;-0.046875;0.032227;1.076172;
511644;-0.046875;0.033203;1.061523;
511784;-0.045898;0.030273;1.056641;
511924;-0.044922;0.033203;1.052734;
512074;-0.046875;0.029297;1.035156;
512214;-0.048828;0.031250;1.032227;
512354;-0.046875;0.033203;1.028320;
512494;-0.047852;0.032227;1.020508;
512634;-0.049805;0.034180;1.024414;
512774;-0.049805;0.031250;1.018555;
512914;-0.049805;0.033203;1.017578;
513054;-0.047852;0.033203;1.019531;
513194;-0.047852;0.036133;1.024414;
513334;-0.047852;0.034180;1.033203;
513470;-0.046875;0.030273;1.033203;
513630;-0.047852;0.028320;1.045898;
513789;-0.044922;0.033203;1.048828;
513939;-0.047852;0.035156;1.056641;
514094;-0.045898;0.033203;1.063477;
514244;-0.047852;0.035156;1.063477;
514384;-0.044922;0.031250;1.061523;
514524;-0.044922;0.027344;1.064453;
514664;-0.045898;0.025391;1.061523;
514804;-0.046875;0.028320;1.056641;
514944;-0.046875;0.029297;1.037109;
515084;-0.047852;0.025391;1.024414;
515224;-0.049805;0.028320;1.012695;
515364;-0.050781;0.027344;1.007812;
515504;-0.053711;0.027344;0.991211;
515644;-0.053711;0.025391;0.977539;
515784;-0.052734;0.030273;0.966797;
515924;-0.054688;0.028320;0.949219;
516070;-0.057617;0.030273;0.924805;
516230;-0.057617;0.028320;0.917969;
516390;-0.056641;0.024414;0.911133;
516544;-0.058594;0.024414;0.913086;
516694;-0.054688;0.027344;0.939453;
516834;-0.053711;0.028320;0.956055;
516974;-0.052734;0.029297;0.970703;
517124;-0.051758;0.029297;0.988281;
517264;-0.049805;0.028320;1.007812;
517404;-0.047852;0.024414;1.025391;
517554;-0.048828;0.027344;1.040039;
517694;-0.047852;0.022461;1.051758;
517834;-0.045898;0.025391;1.065430;
517974;-0.043945;0.024414;1.076172;
518124;-0.043945;0.023438;1.081055;
518264;-0.046875;0.024414;1.082031;
518404;-0.042969;0.025391;1.088867;
518539;-0.044922;0.024414;1.083008;
518691;-0.044922;0.025391;1.086914;
518839;-0.044922;0.024414;1.083008;
518989;-0.044922;0.026367;1.073242;
519134;-0.044922;0.022461;1.072266;
519274;-0.046875;0.023438;1.064453;
519424;-0.044922;0.025391;1.062500;
519564;-0.047852;0.020508;1.057617;
519704;-0.046875;0.024414;1.058594;
519844;-0.046875;0.019531;1.052734;
519984;-0.046875;0.021484;1.050781;
520124;-0.046875;0.021484;1.055664;
520264;-0.043945;0.021484;1.048828;
520404;-0.044922;0.023438;1.051758;
520544;-0.044922;0.022461;1.057617;
520684;-0.047852;0.018555;1.047852;
520824;-0.045898;0.021484;1.059570;
520974;-0.044922;0.023438;1.057617;
521109;-0.043945;0.027344;1.065430;
521264;-0.045898;0.022461;1.057617;
521404;-0.042969;0.027344;1.072266;
521539;-0.043945;0.028320;1.076172;
521700;-0.042969;0.026367;1.065430;
521859;-0.045898;0.028320;1.067383;
522024;-0.046875;0.030273;1.064453;
522164;-0.045898;0.029297;1.061523;
522304;-0.045898;0.032227;1.061523;
522444;-0.045898;0.031250;1.053711;
522584;-0.043945;0.032227;1.058594;
522734;-0.043945;0.032227;1.051758;
522874;-0.046875;0.031250;1.051758;
523014;-0.045898;0.027344;1.043945;
523154;-0.048828;0.029297;1.041016;
523294;-0.044922;0.026367;1.041992;
523434;-0.045898;0.023438;1.039062;
523574;-0.046875;0.026367;1.056641;
523714;-0.044922;0.022461;1.037109;
523854;-0.043945;0.021484;1.043945;
523989;-0.045898;0.023438;1.047852;
524139;-0.044922;0.023438;1.042969;
524290;-0.045898;0.024414;1.038086;
524454;-0.044922;0.024414;1.041992;
524594;-0.045898;0.020508;1.029297;
524734;-0.043945;0.023438;1.046875;
524874;-0.047852;0.019531;1.037109;
525014;-0.043945;0.020508;1.041992;
525154;-0.046875;0.024414;1.036133;
525294;-0.045898;0.026367;1.039062;
525434;-0.046875;0.025391;1.037109;
525574;-0.046875;0.027344;1.034180;
525714;-0.047852;0.026367;1.034180;
525854;-0.045898;0.026367;1.034180;
525994;-0.044922;0.029297;1.037109;
526134;-0.044922;0.028320;1.037109;
526274;-0.046875;0.025391;1.035156;
526414;-0.045898;0.025391;1.040039;
526560;-0.045898;0.025391;1.041992;
526719;-0.045898;0.028320;1.047852;
526879;-0.044922;0.027344;1.042969;
527034;-0.044922;0.022461;1.039062;
527174;-0.045898;0.023438;1.028320;
527314;-0.047852;0.025391;1.019531;
527454;-0.047852;0.024414;1.000000;
527594;-0.048828;0.025391;0.987305;
527734;-0.050781;0.026367;0.966797;
527874;-0.054688;0.023438;0.946289;
528014;-0.053711;0.022461;0.934570;
528164;-0.053711;0.022461;0.923828;
528304;-0.054688;0.020508;0.908203;
528444;-0.056641;0.020508;0.913086;
528584;-0.056641;0.020508;0.921875;
528734;-0.054688;0.019531;0.926758;
528874;-0.053711;0.018555;0.939453;
529011;-0.051758;0.018555;0.957031;
529171;-0.050781;0.022461;0.982422;
529324;-0.048828;0.023438;1.006836;
529460;-0.046875;0.022461;1.016602;
529599;-0.043945;0.026367;1.028320;
529739;-0.046875;0.021484;1.040039;
529894;-0.045898;0.023438;1.048828;
530034;-0.045898;0.020508;1.048828;
530174;-0.045898;0.023438;1.052734;
530324;-0.044922;0.028320;1.057617;
530464;-0.044922;0.028320;1.053711;
530604;-0.044922;0.025391;1.046875;
530754;-0.046875;0.030273;1.052734;
530894;-0.044922;0.029297;1.052734;
531034;-0.045898;0.029297;1.055664;
531174;-0.043945;0.026367;1.059570;
531314;-0.044922;0.026367;1.046875;
531454;-0.044922;0.023438;1.044922;
531594;-0.045898;0.024414;1.045898;
531734;-0.046875;0.022461;1.046875;
531869;-0.045898;0.025391;1.043945;
532019;-0.045898;0.022461;1.043945;
532159;-0.046875;0.025391;1.045898;
532299;-0.043945;0.022461;1.041016;
532454;-0.046875;0.026367;1.036133;
532604;-0.045898;0.025391;1.043945;
532744;-0.044922;0.028320;1.041992;
532894;-0.041992;0.025391;1.050781;
533034;-0.047852;0.025391;1.050781;
533174;-0.044922;0.023438;1.046875;
533314;-0.041016;0.027344;1.059570;
533454;-0.044922;0.022461;1.050781;
533594;-0.043945;0.022461;1.061523;
533734;-0.043945;0.020508;1.068359;
533874;-0.043945;0.024414;1.060547;
534014;-0.043945;0.026367;1.066406;
534154;-0.044922;0.024414;1.058594;
534294;-0.044922;0.020508;1.053711;
534445;-0.042969;0.022461;1.060547;
534570;-0.044922;0.025391;1.057617;
534709;-0.044922;0.023438;1.054688;
534871;-0.041992;0.028320;1.056641;
535030;-0.044922;0.025391;1.056641;
535184;-0.045898;0.029297;1.048828;
535334;-0.043945;0.027344;1.048828;
535474;-0.044922;0.027344;1.053711;
535614;-0.048828;0.028320;1.043945;
535754;-0.041992;0.029297;1.045898;
535894;-0.043945;0.027344;1.042969;
536034;-0.045898;0.023438;1.038086;
536174;-0.045898;0.028320;1.048828;
536314;-0.046875;0.026367;1.044922;
536454;-0.044922;0.025391;1.029297;
536594;-0.046875;0.020508;1.023438;
536734;-0.047852;0.025391;1.013672;
536874;-0.047852;0.022461;1.004883;
537014;-0.050781;0.020508;1.001953;
537159;-0.048828;0.023438;0.987305;
537319;-0.048828;0.023438;0.983398;
537470;-0.052734;0.019531;0.975586;
537614;-0.050781;0.020508;0.978516;
537754;-0.050781;0.018555;0.976562;
537894;-0.051758;0.021484;0.978516;
538034;-0.048828;0.023438;0.985352;
538174;-0.048828;0.021484;0.985352;
538314;-0.051758;0.022461;0.988281;
538454;-0.049805;0.021484;1.000977;
538594;-0.047852;0.022461;1.000000;
538744;-0.046875;0.020508;1.003906;
538884;-0.048828;0.026367;1.010742;
539024;-0.047852;0.028320;1.016602;
539164;-0.048828;0.025391;1.018555;
539304;-0.047852;0.028320;1.023438;
539444;-0.044922;0.023438;1.024414;
539580;-0.043945;0.026367;1.026367;
539739;-0.047852;0.026367;1.037109;
539900;-0.044922;0.028320;1.038086;
540060;-0.045898;0.028320;1.032227;
540204;-0.044922;0.027344;1.033203;
540344;-0.045898;0.027344;1.024414;
540484;-0.048828;0.023438;1.018555;
540624;-0.047852;0.028320;1.009766;
540764;-0.048828;0.019531;1.003906;
540904;-0.050781;0.024414;0.988281;
541044;-0.053711;0.025391;0.975586;
541184;-0.051758;0.021484;0.969727;
541324;-0.052734;0.020508;0.979492;
541464;-0.049805;0.022461;0.983398;
541604;-0.051758;0.021484;0.985352;
541744;-0.051758;0.026367;0.988281;
541884;-0.048828;0.026367;0.992188;
542034;-0.051758;0.027344;0.998047;
542181;-0.047852;0.029297;1.001953;
542339;-0.047852;0.022461;1.007812;
542489;-0.050781;0.025391;1.020508;
542620;-0.048828;0.025391;1.025391;
542774;-0.044922;0.023438;1.037109;
542924;-0.046875;0.022461;1.030273;
543064;-0.044922;0.022461;1.048828;
543204;-0.045898;0.026367;1.064453;
543344;-0.046875;0.023438;1.072266;
543484;-0.041992;0.024414;1.065430;
543624;-0.044922;0.021484;1.063477;
543764;-0.042969;0.019531;1.066406;
543904;-0.043945;0.020508;1.066406;
544044;-0.047852;0.021484;1.049805;
544184;-0.044922;0.022461;1.040039;
544324;-0.047852;0.023438;1.028320;
544464;-0.047852;0.024414;1.029297;
544604;-0.047852;0.020508;1.019531;
544739;-0.048828;0.024414;1.013672;
544889;-0.045898;0.022461;1.026367;
545044;-0.046875;0.025391;1.033203;
545169;-0.045898;0.022461;1.030273;
545319;-0.044922;0.021484;1.047852;
545484;-0.042969;0.021484;1.061523;
545624;-0.043945;0.024414;1.061523;
545774;-0.045898;0.024414;1.054688;
545914;-0.048828;0.022461;1.052734;
546054;-0.043945;0.026367;1.058594;
546194;-0.045898;0.026367;1.052734;
546334;-0.045898;0.022461;1.054688;
546474;-0.045898;0.022461;1.048828;
546614;-0.044922;0.027344;1.051758;
546754;-0.043945;0.023438;1.052734;
546894;-0.046875;0.025391;1.053711;
547034;-0.046875;0.024414;1.045898;
547174;-0.047852;0.023438;1.032227;
