Time;acc_x;acc_y;acc_z;

549994;-0.052734;0.026367;0.997070;
550210;-0.047852;0.023438;0.993164;
550360;-0.051758;0.024414;0.994141;
550500;-0.050781;0.024414;1.006836;
550640;-0.052734;0.022461;0.994141;
550780;-0.049805;0.023438;0.983398;
550920;-0.052734;0.021484;0.987305;
551060;-0.053711;0.022461;0.988281;
551200;-0.050781;0.026367;0.987305;
551340;-0.051758;0.022461;0.989258;
551480;-0.051758;0.023438;0.975586;
551620;-0.050781;0.019531;0.975586;
551760;-0.051758;0.022461;0.978516;
551900;-0.050781;0.023438;0.980469;
552040;-0.049805;0.024414;0.989258;
552180;-0.052734;0.024414;0.987305;
552320;-0.048828;0.023438;0.986328;
552460;-0.050781;0.024414;0.995117;
552596;-0.054688;0.021484;0.998047;
552755;-0.049805;0.024414;1.008789;
552916;-0.048828;0.027344;1.021484;
553070;-0.049805;0.022461;1.027344;
553210;-0.046875;0.023438;1.031250;
553350;-0.044922;0.024414;1.040039;
553490;-0.045898;0.022461;1.041992;
553630;-0.045898;0.024414;1.064453;
553775;-0.045898;0.025391;1.072266;
553930;-0.041992;0.025391;1.083984;
554070;-0.041992;0.022461;1.091797;
554210;-0.043945;0.023438;1.095703;
554350;-0.041992;0.024414;1.107422;
554490;-0.039062;0.023438;1.118164;
554630;-0.042969;0.023438;1.125977;
554770;-0.040039;0.028320;1.122070;
554910;-0.040039;0.020508;1.122070;
555047;-0.041016;0.023438;1.131836;
555196;-0.038086;0.024414;1.139648;
555355;-0.039062;0.026367;1.127930;
555510;-0.040039;0.026367;1.128906;
555650;-0.040039;0.023438;1.119141;
555790;-0.039062;0.020508;1.111328;
555930;-0.042969;0.022461;1.096680;
556070;-0.042969;0.021484;1.079102;
556210;-0.045898;0.023438;1.063477;
556350;-0.045898;0.023438;1.052734;
556490;-0.045898;0.027344;1.048828;
556630;-0.045898;0.023438;1.038086;
556770;-0.048828;0.021484;1.034180;
556910;-0.048828;0.024414;1.025391;
557050;-0.047852;0.027344;1.027344;
557190;-0.049805;0.027344;1.027344;
557330;-0.049805;0.023438;1.034180;
557470;-0.046875;0.024414;1.031250;
557606;-0.050781;0.028320;1.031250;
557768;-0.046875;0.025391;1.028320;
557927;-0.047852;0.027344;1.036133;
558080;-0.047852;0.024414;1.044922;
558220;-0.045898;0.024414;1.043945;
558360;-0.048828;0.025391;1.032227;
558510;-0.047852;0.021484;1.023438;
558650;-0.046875;0.025391;1.027344;
558790;-0.048828;0.021484;1.024414;
558930;-0.048828;0.025391;1.021484;
559070;-0.048828;0.018555;1.017578;
559210;-0.044922;0.023438;1.012695;
559350;-0.050781;0.017578;1.005859;
559490;-0.047852;0.019531;1.003906;
559630;-0.047852;0.019531;0.991211;
559770;-0.050781;0.023438;0.990234;
559910;-0.050781;0.020508;0.973633;
560056;-0.049805;0.020508;0.975586;
560205;-0.053711;0.020508;0.959961;
560365;-0.049805;0.020508;0.951172;
560530;-0.055664;0.019531;0.942383;
560680;-0.053711;0.019531;0.943359;
560820;-0.055664;0.021484;0.939453;
560960;-0.055664;0.027344;0.948242;
561100;-0.055664;0.025391;0.941406;
561240;-0.053711;0.023438;0.950195;
561380;-0.054688;0.019531;0.959961;
561530;-0.053711;0.024414;0.983398;
561670;-0.051758;0.020508;0.988281;
561810;-0.050781;0.025391;0.999023;
561950;-0.048828;0.028320;1.011719;
562090;-0.046875;0.026367;1.012695;
562240;-0.048828;0.025391;1.017578;
562380;-0.048828;0.026367;1.011719;
562515;-0.050781;0.023438;1.010742;
562665;-0.048828;0.024414;1.002930;
562825;-0.052734;0.019531;1.000000;
562980;-0.049805;0.023438;0.991211;
563130;-0.052734;0.020508;0.990234;
563270;-0.052734;0.023438;0.994141;
563410;-0.049805;0.022461;0.988281;
563560;-0.050781;0.019531;0.987305;
563700;-0.050781;0.025391;0.989258;
563840;-0.051758;0.023438;0.983398;
563990;-0.052734;0.021484;0.973633;
564130;-0.052734;0.023438;0.965820;
564270;-0.051758;0.021484;0.969727;
564420;-0.053711;0.025391;0.971680;
564560;-0.051758;0.027344;0.976562;
564700;-0.053711;0.024414;0.985352;
564840;-0.048828;0.025391;1.000000;
564995;-0.048828;0.022461;1.015625;
565156;-0.044922;0.025391;1.022461;
565316;-0.046875;0.025391;1.039062;
565470;-0.045898;0.021484;1.033203;
565610;-0.044922;0.021484;1.047852;
565750;-0.045898;0.020508;1.049805;
565900;-0.041992;0.020508;1.060547;
566040;-0.040039;0.025391;1.067383;
566180;-0.040039;0.022461;1.061523;
566320;-0.038086;0.020508;1.060547;
566460;-0.038086;0.021484;1.070312;
566600;-0.039062;0.018555;1.069336;
566740;-0.032227;0.018555;1.078125;
566880;-0.028320;0.017578;1.088867;
567020;-0.028320;0.018555;1.109375;
567160;-0.023438;0.018555;1.118164;
567300;-0.022461;0.018555;1.136719;
567435;-0.017578;0.019531;1.147461;
567585;-0.014648;0.019531;1.159180;
567745;-0.012695;0.019531;1.172852;
567910;-0.007812;0.017578;1.186523;
568050;-0.003906;0.024414;1.205078;
568190;0.000000;0.021484;1.221680;
568330;0.002930;0.026367;1.228516;
568470;0.004883;0.028320;1.263672;
568610;0.011719;0.029297;1.291016;
568750;0.012695;0.028320;1.287109;
568890;0.010742;0.025391;1.306641;
569040;0.012695;0.028320;1.334961;
569180;0.017578;0.024414;1.346680;
569320;0.016602;0.021484;1.369141;
569460;0.016602;0.025391;1.366211;
569600;0.016602;0.017578;1.373047;
569740;0.017578;0.024414;1.394531;
569875;0.015625;0.023438;1.381836;
570035;0.015625;0.022461;1.360352;
570196;0.013672;0.019531;1.341797;
570340;0.009766;0.019531;1.303711;
570476;0.007812;0.018555;1.279297;
570640;0.006836;0.017578;1.253906;
570780;0.005859;0.024414;1.243164;
570920;0.002930;0.022461;1.215820;
571060;0.000000;0.019531;1.209961;
571200;0.002930;0.029297;1.203125;
571340;0.001953;0.025391;1.206055;
571480;0.001953;0.024414;1.218750;
571620;0.005859;0.022461;1.215820;
571760;0.004883;0.023438;1.237305;
571900;0.004883;0.019531;1.234375;
572050;0.008789;0.025391;1.227539;
572190;0.008789;0.027344;1.223633;
572330;0.003906;0.024414;1.208984;
572470;0.002930;0.024414;1.166016;
572606;0.000977;0.023438;1.144531;
572756;-0.002930;0.024414;1.075195;
572896;-0.004883;0.021484;1.042969;
573047;-0.004883;0.024414;1.023438;
573200;-0.005859;0.019531;0.987305;
573340;-0.002930;0.023438;0.990234;
573480;-0.002930;0.022461;1.003906;
573620;0.004883;0.026367;1.053711;
573760;0.008789;0.024414;1.067383;
573900;0.006836;0.024414;1.067383;
574050;0.006836;0.020508;1.056641;
574190;0.008789;0.018555;1.054688;
574330;0.009766;0.019531;1.056641;
574480;0.011719;0.019531;1.063477;
574620;0.011719;0.018555;1.052734;
574760;0.010742;0.018555;1.041016;
574900;0.010742;0.025391;1.037109;
575040;0.011719;0.023438;1.011719;
575185;0.008789;0.027344;1.014648;
575336;0.008789;0.029297;0.981445;
575496;0.010742;0.030273;0.971680;
575660;0.009766;0.030273;0.960938;
575800;0.005859;0.031250;0.964844;
575940;0.011719;0.029297;0.953125;
576080;0.013672;0.025391;0.947266;
576220;0.015625;0.026367;0.957031;
576360;0.019531;0.026367;0.942383;
576500;0.017578;0.023438;0.944336;
576640;0.020508;0.024414;0.956055;
576780;0.020508;0.025391;0.972656;
576920;0.024414;0.020508;0.994141;
577060;0.024414;0.015625;0.999023;
577200;0.027344;0.020508;1.025391;
577340;0.027344;0.021484;1.034180;
577480;0.026367;0.021484;1.041016;
577625;0.029297;0.024414;1.060547;
577786;0.025391;0.026367;1.090820;
577945;0.026367;0.029297;1.089844;
578110;0.025391;0.025391;1.081055;
578250;0.027344;0.027344;1.081055;
578390;0.026367;0.028320;1.078125;
578540;0.019531;0.023438;1.072266;
578680;0.020508;0.021484;1.059570;
578820;0.022461;0.021484;1.078125;
578960;0.024414;0.025391;1.074219;
579100;0.022461;0.022461;1.069336;
579240;0.019531;0.024414;1.054688;
579380;0.019531;0.019531;1.037109;
579520;0.022461;0.023438;1.030273;
579660;0.020508;0.025391;1.019531;
579800;0.018555;0.019531;1.003906;
579940;0.016602;0.020508;0.980469;
580075;0.019531;0.021484;0.976562;
580216;0.018555;0.023438;0.973633;
580376;0.016602;0.021484;0.964844;
580530;0.019531;0.021484;0.976562;
580670;0.016602;0.022461;0.977539;
580810;0.013672;0.023438;0.979492;
580950;0.016602;0.025391;1.005859;
581090;0.020508;0.026367;1.024414;
581230;0.019531;0.026367;1.020508;
581370;0.018555;0.026367;1.027344;
581510;0.017578;0.025391;1.029297;
581650;0.019531;0.020508;1.045898;
581790;0.023438;0.021484;1.067383;
581930;0.024414;0.022461;1.080078;
582080;0.023438;0.026367;1.070312;
582220;0.021484;0.028320;1.077148;
582360;0.024414;0.029297;1.079102;
582506;0.025391;0.021484;1.091797;
582655;0.021484;0.024414;1.103516;
582816;0.025391;0.027344;1.096680;
582980;0.024414;0.028320;1.088867;
583120;0.018555;0.022461;1.074219;
583260;0.023438;0.021484;1.079102;
583400;0.022461;0.021484;1.065430;
583550;0.023438;0.021484;1.060547;
583690;0.023438;0.021484;1.047852;
583830;0.020508;0.020508;1.040039;
583980;0.022461;0.025391;1.045898;
584120;0.021484;0.023438;1.047852;
584260;0.019531;0.024414;1.045898;
584400;0.017578;0.024414;1.024414;
584540;0.016602;0.025391;1.025391;
584680;0.018555;0.029297;1.029297;
584820;0.020508;0.028320;1.038086;
584956;0.021484;0.026367;1.038086;
585107;0.021484;0.028320;1.040039;
585265;0.021484;0.023438;1.030273;
585420;0.027344;0.024414;1.043945;
585570;0.028320;0.020508;1.041016;
585710;0.034180;0.021484;1.044922;
585860;0.035156;0.024414;1.045898;
586000;0.037109;0.022461;1.053711;
586140;0.037109;0.020508;1.050781;
586290;0.037109;0.021484;1.046875;
586430;0.038086;0.022461;1.056641;
586570;0.036133;0.024414;1.046875;
586710;0.035156;0.020508;1.040039;
586850;0.035156;0.023438;1.030273;
587000;0.034180;0.022461;1.018555;
587140;0.030273;0.024414;1.013672;
587280;0.030273;0.020508;0.999023;
587416;0.026367;0.023438;1.006836;
587575;0.027344;0.020508;0.998047;
587736;0.029297;0.022461;0.995117;
587900;0.028320;0.023438;1.010742;
588050;0.026367;0.022461;1.015625;
588190;0.030273;0.022461;1.040039;
588330;0.028320;0.023438;1.044922;
588470;0.031250;0.021484;1.041992;
588610;0.034180;0.023438;1.056641;
588750;0.034180;0.021484;1.080078;
588890;0.033203;0.025391;1.077148;
589030;0.036133;0.023438;1.086914;
589170;0.034180;0.025391;1.089844;
589310;0.036133;0.021484;1.098633;
589450;0.035156;0.023438;1.081055;
589590;0.033203;0.023438;1.081055;
589730;0.032227;0.021484;1.060547;
589865;0.032227;0.022461;1.062500;
590027;0.032227;0.019531;1.049805;
590175;0.029297;0.021484;1.048828;
590326;0.030273;0.020508;1.036133;
590480;0.029297;0.020508;1.024414;
590620;0.028320;0.022461;1.027344;
590770;0.028320;0.024414;1.010742;
590910;0.030273;0.021484;1.013672;
591050;0.026367;0.023438;0.989258;
591190;0.026367;0.025391;1.000977;
591330;0.026367;0.025391;0.995117;
591470;0.027344;0.020508;0.998047;
591610;0.027344;0.023438;0.991211;
591750;0.028320;0.024414;0.995117;
591890;0.025391;0.022461;0.986328;
592030;0.027344;0.023438;0.996094;
592170;0.027344;0.021484;0.992188;
592320;0.025391;0.025391;0.995117;
592455;0.026367;0.027344;1.008789;
592615;0.028320;0.023438;1.002930;
592776;0.027344;0.023438;1.024414;
592930;0.030273;0.023438;1.029297;
593070;0.027344;0.027344;1.041016;
593210;0.030273;0.020508;1.045898;
593360;0.030273;0.024414;1.041016;
593500;0.028320;0.021484;1.047852;
593640;0.029297;0.022461;1.047852;
593780;0.032227;0.019531;1.056641;
593920;0.029297;0.021484;1.047852;
594060;0.031250;0.021484;1.065430;
594200;0.034180;0.017578;1.070312;
594340;0.033203;0.022461;1.081055;
594480;0.031250;0.019531;1.063477;
594620;0.030273;0.023438;1.084961;
594760;0.033203;0.020508;1.066406;
594905;0.033203;0.020508;1.076172;
595055;0.033203;0.020508;1.068359;
595216;0.031250;0.023438;1.070312;
595380;0.031250;0.021484;1.067383;
595520;0.030273;0.024414;1.061523;
595660;0.030273;0.025391;1.062500;
595800;0.029297;0.023438;1.041992;
595950;0.028320;0.024414;1.035156;
596090;0.032227;0.028320;1.027344;
596230;0.027344;0.028320;1.033203;
596370;0.027344;0.021484;1.010742;
596510;0.026367;0.023438;1.016602;
596650;0.025391;0.024414;1.000000;
596790;0.025391;0.024414;1.000977;
596930;0.024414;0.021484;0.984375;
597070;0.026367;0.026367;0.992188;
597210;0.026367;0.022461;0.989258;
597347;0.027344;0.022461;0.996094;
597507;0.024414;0.023438;1.003906;
597665;0.025391;0.024414;0.986328;
597830;0.022461;0.023438;1.010742;
597980;0.028320;0.022461;1.003906;
598120;0.025391;0.024414;1.016602;
598260;0.030273;0.021484;1.018555;
598410;0.028320;0.021484;1.019531;
598550;0.029297;0.024414;1.040039;
598690;0.028320;0.027344;1.028320;
598830;0.028320;0.021484;1.045898;
598970;0.025391;0.022461;1.021484;
599110;0.028320;0.022461;1.038086;
599250;0.025391;0.023438;1.021484;
599400;0.029297;0.026367;1.049805;
599540;0.028320;0.025391;1.039062;
599680;0.028320;0.025391;1.052734;
599817;0.026367;0.026367;1.045898;
599976;0.031250;0.023438;1.054688;
600120;0.031250;0.023438;1.063477;
600245;0.028320;0.020508;1.062500;
600386;0.031250;0.018555;1.071289;
600525;0.029297;0.024414;1.074219;
600687;0.032227;0.024414;1.083008;
600840;0.032227;0.021484;1.072266;
600980;0.026367;0.025391;1.075195;
601120;0.029297;0.023438;1.068359;
601270;0.029297;0.021484;1.070312;
601410;0.027344;0.021484;1.058594;
601550;0.027344;0.019531;1.041016;
601700;0.027344;0.021484;1.041016;
601840;0.026367;0.020508;1.023438;
601980;0.030273;0.020508;1.022461;
602120;0.030273;0.019531;1.009766;
602260;0.029297;0.019531;0.988281;
602400;0.030273;0.017578;0.997070;
602540;0.030273;0.026367;0.994141;
602680;0.033203;0.021484;1.011719;
602830;0.033203;0.023438;1.013672;
602985;0.040039;0.024414;1.021484;
603146;0.039062;0.022461;1.014648;
603305;0.038086;0.022461;1.007812;
603460;0.041992;0.023438;1.000977;
603600;0.044922;0.025391;1.002930;
603740;0.041992;0.027344;1.012695;
603880;0.041016;0.021484;1.000977;
604020;0.042969;0.023438;1.003906;
604160;0.040039;0.021484;0.993164;
604300;0.038086;0.021484;0.987305;
604440;0.040039;0.021484;0.987305;
604580;0.036133;0.022461;0.979492;
604720;0.039062;0.023438;0.989258;
604860;0.035156;0.021484;0.976562;
605010;0.035156;0.022461;0.988281;
605150;0.036133;0.021484;0.980469;
605290;0.036133;0.022461;0.970703;
605435;0.035156;0.023438;0.959961;
605585;0.034180;0.026367;0.969727;
605745;0.035156;0.023438;0.968750;
605910;0.035156;0.026367;0.973633;
606060;0.035156;0.028320;0.987305;
606200;0.039062;0.028320;1.003906;
606350;0.038086;0.025391;1.006836;
606490;0.037109;0.024414;1.018555;
606630;0.036133;0.026367;1.026367;
606770;0.037109;0.025391;1.028320;
606910;0.037109;0.029297;1.030273;
607050;0.035156;0.025391;1.033203;
607190;0.038086;0.027344;1.033203;
607330;0.039062;0.028320;1.041992;
607470;0.041016;0.025391;1.040039;
607610;0.041016;0.025391;1.033203;
607760;0.041992;0.022461;1.027344;
607896;0.043945;0.024414;1.032227;
608035;0.045898;0.024414;1.028320;
608195;0.048828;0.025391;1.027344;
608346;0.046875;0.023438;1.006836;
608490;0.053711;0.021484;1.010742;
608630;0.053711;0.024414;1.013672;
608770;0.055664;0.027344;1.009766;
608910;0.056641;0.023438;1.000000;
609050;0.057617;0.022461;0.999023;
609190;0.057617;0.029297;0.995117;
609330;0.059570;0.019531;0.997070;
609470;0.061523;0.025391;0.988281;
609610;0.064453;0.022461;0.994141;
609750;0.062500;0.022461;0.985352;
609890;0.067383;0.022461;0.986328;
610030;0.067383;0.022461;0.979492;
610170;0.067383;0.018555;0.979492;
610310;0.067383;0.023438;0.989258;
610445;0.068359;0.020508;0.985352;
610596;0.071289;0.024414;0.980469;
610756;0.071289;0.019531;0.986328;
610920;0.074219;0.023438;0.991211;
611060;0.075195;0.023438;1.012695;
611200;0.071289;0.023438;1.023438;
611340;0.073242;0.020508;1.038086;
611480;0.076172;0.021484;1.048828;
611620;0.075195;0.020508;1.057617;
611770;0.074219;0.019531;1.060547;
611910;0.074219;0.022461;1.048828;
612050;0.072266;0.022461;1.055664;
612190;0.070312;0.023438;1.051758;
612330;0.072266;0.021484;1.052734;
612470;0.071289;0.025391;1.049805;
612610;0.068359;0.021484;1.047852;
612750;0.070312;0.026367;1.047852;
612887;0.072266;0.019531;1.041992;
613045;0.070312;0.019531;1.037109;
613205;0.071289;0.022461;1.041016;
613365;0.069336;0.022461;1.041016;
613510;0.067383;0.025391;1.039062;
613650;0.068359;0.024414;1.031250;
613790;0.067383;0.022461;1.034180;
613930;0.067383;0.026367;1.046875;
614070;0.068359;0.028320;1.035156;
614210;0.066406;0.024414;1.041016;
614350;0.067383;0.025391;1.041992;
614490;0.065430;0.023438;1.047852;
614630;0.068359;0.024414;1.044922;
614770;0.066406;0.022461;1.045898;
614910;0.066406;0.018555;1.043945;
615060;0.064453;0.023438;1.061523;
615200;0.068359;0.023438;1.055664;
615340;0.069336;0.019531;1.054688;
615485;0.065430;0.024414;1.073242;
615636;0.066406;0.019531;1.063477;
615797;0.071289;0.015625;1.064453;
615950;0.067383;0.020508;1.075195;
616090;0.067383;0.024414;1.056641;
616230;0.067383;0.021484;1.048828;
616380;0.067383;0.021484;1.057617;
616520;0.070312;0.018555;1.045898;
616660;0.070312;0.016602;1.023438;
616800;0.065430;0.016602;1.011719;
616940;0.067383;0.019531;1.020508;
617080;0.063477;0.022461;1.017578;
617220;0.063477;0.018555;1.011719;
617360;0.064453;0.024414;1.025391;
617500;0.063477;0.029297;1.029297;
617640;0.060547;0.022461;1.011719;
617780;0.060547;0.025391;1.036133;
617917;0.063477;0.024414;1.032227;
618065;0.059570;0.023438;1.044922;
618217;0.061523;0.025391;1.036133;
618365;0.057617;0.021484;1.032227;
618520;0.059570;0.026367;1.047852;
618670;0.061523;0.028320;1.042969;
618810;0.056641;0.017578;1.041992;
618950;0.057617;0.022461;1.050781;
619090;0.058594;0.024414;1.047852;
619230;0.059570;0.022461;1.051758;
619370;0.058594;0.021484;1.053711;
619510;0.061523;0.020508;1.046875;
619650;0.061523;0.024414;1.052734;
619790;0.058594;0.025391;1.033203;
619930;0.060547;0.024414;1.041016;
620070;0.054688;0.026367;1.036133;
620210;0.058594;0.024414;1.044922;
620350;0.058594;0.023438;1.037109;
620486;0.058594;0.021484;1.033203;
620635;0.056641;0.023438;1.039062;
620786;0.059570;0.023438;1.023438;
620940;0.054688;0.030273;1.045898;
621076;0.059570;0.022461;1.041992;
621216;0.055664;0.023438;1.056641;
621360;0.060547;0.023438;1.059570;
621500;0.058594;0.023438;1.060547;
621640;0.061523;0.022461;1.062500;
621790;0.059570;0.017578;1.047852;
621930;0.058594;0.024414;1.050781;
622070;0.061523;0.020508;1.047852;
622210;0.057617;0.019531;1.048828;
622350;0.058594;0.017578;1.023438;
622490;0.056641;0.021484;1.022461;
622630;0.057617;0.018555;1.024414;
622770;0.054688;0.020508;1.020508;
622910;0.056641;0.021484;1.006836;
623050;0.055664;0.024414;1.005859;
623190;0.053711;0.022461;0.995117;
623330;0.058594;0.023438;1.002930;
623457;0.055664;0.024414;1.010742;
623595;0.053711;0.024414;1.004883;
623737;0.056641;0.024414;1.015625;
623886;0.058594;0.023438;1.028320;
624040;0.054688;0.026367;1.039062;
624180;0.058594;0.027344;1.054688;
624330;0.054688;0.024414;1.066406;
624470;0.057617;0.024414;1.053711;
624610;0.055664;0.024414;1.064453;
624750;0.057617;0.023438;1.071289;
624890;0.057617;0.023438;1.062500;
625030;0.058594;0.020508;1.058594;
625170;0.055664;0.022461;1.058594;
625310;0.058594;0.024414;1.057617;
625450;0.057617;0.023438;1.071289;
625600;0.059570;0.022461;1.070312;
625740;0.057617;0.021484;1.074219;
625880;0.056641;0.027344;1.070312;
626020;0.058594;0.017578;1.061523;
626160;0.054688;0.022461;1.063477;
626295;0.058594;0.020508;1.053711;
626435;0.052734;0.020508;1.055664;
626597;0.052734;0.017578;1.034180;
626745;0.055664;0.019531;1.032227;
626896;0.053711;0.025391;1.028320;
627050;0.054688;0.022461;1.007812;
627190;0.055664;0.022461;1.001953;
627330;0.051758;0.021484;0.993164;
627470;0.052734;0.025391;0.994141;
627610;0.050781;0.026367;0.991211;
627750;0.050781;0.027344;0.995117;
627890;0.053711;0.024414;1.006836;
628030;0.051758;0.022461;1.000977;
628170;0.052734;0.018555;1.007812;
628310;0.053711;0.021484;1.003906;
628460;0.053711;0.022461;0.995117;
628600;0.050781;0.021484;0.989258;
628740;0.051758;0.022461;0.992188;
628880;0.053711;0.022461;0.999023;
629015;0.054688;0.019531;0.992188;
629165;0.050781;0.018555;0.994141;
629315;0.053711;0.014648;0.996094;
629466;0.052734;0.018555;0.998047;
629620;0.048828;0.019531;1.000000;
629760;0.053711;0.018555;1.002930;
629900;0.049805;0.018555;0.995117;
630040;0.052734;0.026367;0.998047;
630180;0.049805;0.023438;1.006836;
630320;0.052734;0.021484;0.993164;
630460;0.052734;0.025391;1.002930;
630600;0.052734;0.026367;1.010742;
630740;0.052734;0.023438;1.009766;
630880;0.050781;0.021484;1.015625;
631020;0.053711;0.022461;1.013672;
631160;0.052734;0.024414;1.010742;
631300;0.053711;0.027344;1.004883;
631440;0.051758;0.023438;1.012695;
631586;0.050781;0.022461;1.000000;
631736;0.053711;0.020508;0.995117;
631895;0.050781;0.022461;0.996094;
632050;0.047852;0.022461;0.991211;
632190;0.048828;0.022461;1.001953;
632330;0.049805;0.021484;0.997070;
632470;0.050781;0.016602;0.994141;
632620;0.047852;0.022461;0.997070;
632760;0.048828;0.020508;0.991211;
632900;0.049805;0.022461;1.001953;
633040;0.051758;0.022461;1.004883;
633180;0.047852;0.020508;1.008789;
633320;0.050781;0.022461;1.012695;
633460;0.052734;0.021484;1.032227;
633600;0.056641;0.020508;1.057617;
633740;0.058594;0.021484;1.061523;
633940;0.060547;0.023438;1.071289;
634150;0.060547;0.022461;1.092773;
634355;0.064453;0.024414;1.096680;
634587;0.066406;0.018555;1.082031;
634826;0.063477;0.017578;1.073242;
635040;0.067383;0.016602;1.057617;
635250;0.068359;0.021484;1.044922;
635460;0.074219;0.017578;1.032227;
635680;0.078125;0.018555;1.011719;
635890;0.076172;0.016602;1.018555;
636100;0.083984;0.016602;1.009766;
636310;0.087891;0.010742;0.999023;
636520;0.092773;0.017578;1.005859;
636730;0.093750;0.017578;1.013672;
636940;0.093750;0.015625;1.017578;
637150;0.096680;0.023438;1.011719;
637360;0.090820;0.023438;0.993164;
637570;0.096680;0.023438;0.991211;
637780;0.094727;0.027344;0.987305;
637995;0.095703;0.023438;0.956055;
638235;0.093750;0.024414;0.950195;
638470;0.092773;0.023438;0.939453;
638680;0.090820;0.022461;0.954102;
638900;0.094727;0.018555;0.960938;
639110;0.093750;0.022461;0.996094;
639320;0.098633;0.015625;1.018555;
639530;0.095703;0.025391;1.039062;
639740;0.095703;0.018555;1.024414;
639950;0.098633;0.025391;1.030273;
640160;0.092773;0.022461;1.022461;
640370;0.099609;0.020508;1.015625;
640580;0.091797;0.023438;1.024414;
640790;0.094727;0.019531;1.022461;
641000;0.097656;0.023438;1.054688;
641207;0.094727;0.020508;1.053711;
641435;0.091797;0.024414;1.057617;
641675;0.090820;0.022461;1.074219;
641890;0.094727;0.023438;1.079102;
642100;0.095703;0.019531;1.074219;
642310;0.095703;0.022461;1.064453;
642520;0.094727;0.021484;1.077148;
642730;0.092773;0.016602;1.057617;
642940;0.096680;0.017578;1.057617;
643150;0.091797;0.023438;1.064453;
643360;0.090820;0.020508;1.053711;
643570;0.090820;0.020508;1.059570;
643780;0.089844;0.019531;1.054688;
643990;0.088867;0.019531;1.054688;
644200;0.088867;0.020508;1.065430;
644420;0.091797;0.018555;1.048828;
644630;0.090820;0.020508;1.052734;
644845;0.088867;0.024414;1.064453;
645087;0.091797;0.021484;1.037109;
645330;0.090820;0.023438;1.041016;
645540;0.086914;0.017578;1.037109;
645750;0.087891;0.019531;1.041992;
645960;0.088867;0.018555;1.027344;
646170;0.085938;0.016602;1.014648;
646380;0.091797;0.019531;1.030273;
646590;0.085938;0.018555;1.012695;
646800;0.085938;0.018555;0.985352;
647010;0.080078;0.027344;0.997070;
647220;0.081055;0.020508;0.986328;
647430;0.082031;0.019531;0.981445;
647640;0.083008;0.022461;1.003906;
647850;0.083984;0.020508;1.025391;
648060;0.082031;0.026367;1.017578;
648267;0.086914;0.023438;1.036133;
648507;0.084961;0.020508;1.037109;
648735;0.083984;0.020508;1.036133;
648950;0.080078;0.024414;1.038086;
649160;0.081055;0.016602;1.016602;
649370;0.083008;0.017578;1.013672;
649580;0.085938;0.023438;1.018555;
649800;0.081055;0.021484;1.005859;
650010;0.080078;0.020508;1.019531;
650220;0.083008;0.021484;1.035156;
650430;0.084961;0.024414;1.040039;
650640;0.081055;0.017578;0.999023;
650850;0.082031;0.021484;0.984375;
651060;0.080078;0.025391;1.000000;
651270;0.081055;0.021484;0.998047;
651480;0.080078;0.018555;0.990234;
651690;0.080078;0.020508;1.017578;
651905;0.080078;0.020508;1.008789;
652145;0.080078;0.025391;1.015625;
652390;0.082031;0.028320;1.037109;
652610;0.079102;0.017578;1.030273;
652820;0.078125;0.024414;1.034180;
653030;0.078125;0.021484;1.066406;
653240;0.083008;0.018555;1.119141;
653450;0.079102;0.017578;1.171875;
653660;0.086914;0.025391;1.270508;
653880;0.090820;0.020508;1.347656;
654100;0.093750;0.017578;1.420898;
654320;0.099609;0.018555;1.504883;
654530;0.108398;0.014648;1.595703;
654740;0.110352;0.017578;1.647461;
654950;0.113281;0.014648;1.713867;
655160;0.114258;0.019531;1.752930;
655375;0.118164;0.012695;1.770508;
655600;0.120117;0.008789;1.782227;
655817;0.122070;0.015625;1.811523;
656056;0.123047;0.009766;1.798828;
656290;0.123047;0.015625;1.803711;
656500;0.122070;0.014648;1.804688;
656710;0.124023;0.013672;1.810547;
656920;0.125000;0.017578;1.808594;
657130;0.125977;0.020508;1.829102;
657340;0.127930;0.021484;1.831055;
657550;0.125000;0.014648;1.838867;
657770;0.128906;0.014648;1.827148;
657980;0.129883;0.023438;1.843750;
658190;0.127930;0.009766;1.842773;
658400;0.127930;0.010742;1.832031;
658610;0.127930;0.013672;1.838867;
658820;0.125977;0.010742;1.836914;
659030;0.126953;0.003906;1.831055;
659235;0.131836;0.004883;1.832031;
659450;0.129883;0.007812;1.830078;
659665;0.129883;0.000000;1.831055;
659900;0.127930;0.011719;1.835938;
660110;0.131836;0.009766;1.833984;
660320;0.131836;0.011719;1.836914;
660530;0.136719;0.019531;1.840820;
660740;0.132812;0.019531;1.836914;
660950;0.135742;0.020508;1.840820;
661160;0.136719;0.017578;1.829102;
661370;0.138672;0.015625;1.833984;
661580;0.134766;0.006836;1.828125;
661790;0.137695;0.012695;1.842773;
662000;0.139648;0.008789;1.856445;
662220;0.139648;0.010742;1.866211;
662430;0.144531;0.003906;1.869141;
662640;0.138672;0.009766;1.873047;
662850;0.143555;0.011719;1.861328;
663066;0.138672;0.013672;1.848633;
663275;0.142578;0.015625;1.820312;
663508;0.141602;0.014648;1.811523;
663750;0.143555;0.017578;1.798828;
663960;0.143555;0.016602;1.816406;
664170;0.152344;0.018555;1.821289;
664380;0.149414;0.006836;1.825195;
664590;0.153320;0.014648;1.857422;
664800;0.156250;0.006836;1.875977;
665010;0.159180;-0.002930;1.875000;
665220;0.160156;0.007812;1.878906;
665430;0.163086;0.001953;1.873047;
665640;0.159180;0.015625;1.879883;
665860;0.165039;0.008789;1.875977;
666070;0.164062;0.017578;1.878906;
666280;0.166016;0.011719;1.881836;
666500;0.166016;0.016602;1.871094;
666706;0.163086;0.015625;1.877930;
666937;0.166016;0.017578;1.868164;
667155;0.168945;0.018555;1.865234;
667380;0.168945;0.016602;1.867188;
667590;0.168945;0.005859;1.849609;
667800;0.169922;0.015625;1.864258;
668010;0.171875;0.009766;1.838867;
668220;0.170898;0.011719;1.813477;
668430;0.172852;0.009766;1.829102;
668640;0.174805;0.007812;1.814453;
668850;0.173828;0.002930;1.815430;
669060;0.177734;0.004883;1.801758;
669270;0.181641;0.006836;1.799805;
669480;0.177734;0.006836;1.773438;
669690;0.181641;0.015625;1.776367;
669900;0.183594;0.013672;1.784180;
670110;0.184570;0.013672;1.773438;
670329;0.187500;0.012695;1.799805;
670555;0.194336;0.009766;1.815430;
670795;0.195312;0.012695;1.819336;
671010;0.196289;0.013672;1.836914;
671220;0.200195;0.018555;1.825195;
671440;0.195312;0.018555;1.791016;
671660;0.196289;0.023438;1.782227;
671870;0.198242;0.018555;1.733398;
672080;0.196289;0.014648;1.713867;
672290;0.194336;0.013672;1.698242;
672500;0.189453;0.006836;1.625000;
672710;0.174805;0.012695;1.605469;
672920;0.174805;0.014648;1.541992;
673130;0.157227;0.021484;1.489258;
673350;0.139648;0.024414;1.441406;
673560;0.122070;0.019531;1.379883;
673770;0.112305;0.021484;1.338867;
673985;0.095703;0.014648;1.277344;
674215;0.079102;0.016602;1.189453;
674440;0.067383;0.009766;1.100586;
674650;0.058594;0.014648;1.029297;
674860;0.048828;0.018555;0.967773;
675070;0.040039;0.018555;0.891602;
675280;0.033203;0.012695;0.837891;
675490;0.031250;0.016602;0.820312;
675700;0.025391;0.019531;0.757812;
675910;0.021484;0.026367;0.759766;
676120;0.023438;0.028320;0.762695;
676330;0.016602;0.021484;0.666992;
676540;0.009766;0.025391;0.600586;
676760;0.001953;0.022461;0.523438;
676970;0.000000;0.026367;0.463867;
677180;-0.003906;0.030273;0.402344;
677386;-0.002930;0.026367;0.317383;
677616;-0.009766;0.028320;0.270508;
677846;-0.009766;0.027344;0.231445;
678070;-0.010742;0.031250;0.205078;
678280;-0.008789;0.033203;0.164062;
678500;-0.011719;0.034180;0.143555;
678710;-0.015625;0.035156;0.137695;
678920;-0.011719;0.035156;0.125977;
679130;-0.012695;0.037109;0.131836;
679340;-0.013672;0.036133;0.134766;
679550;-0.014648;0.035156;0.130859;
679770;-0.014648;0.031250;0.125977;
679980;-0.013672;0.029297;0.115234;
680190;-0.011719;0.029297;0.118164;
680410;-0.016602;0.029297;0.101562;
680620;-0.012695;0.030273;0.094727;
680826;-0.017578;0.027344;0.069336;
681035;-0.015625;0.026367;0.056641;
681265;-0.017578;0.030273;0.031250;
681500;-0.016602;0.040039;0.030273;
681710;-0.012695;0.034180;0.051758;
681920;-0.014648;0.026367;0.023438;
682140;-0.016602;0.031250;0.030273;
682345;-0.010742;0.031250;0.005859;
682570;-0.011719;0.026367;-0.006836;
682780;-0.012695;0.021484;0.001953;
682990;-0.013672;0.027344;-0.005859;
683200;-0.017578;0.019531;0.000977;
683410;-0.016602;0.024414;0.010742;
683630;-0.015625;0.022461;0.020508;
683850;-0.016602;0.020508;0.041992;
684070;-0.019531;0.032227;0.016602;
684280;-0.013672;0.025391;0.032227;
684485;-0.012695;0.027344;0.035156;
684715;-0.013672;0.036133;0.023438;
684946;-0.017578;0.022461;0.033203;
685160;-0.018555;0.025391;0.049805;
685370;-0.017578;0.031250;0.070312;
685580;-0.019531;0.027344;0.057617;
685800;-0.018555;0.032227;0.055664;
686010;-0.016602;0.027344;0.059570;
686220;-0.015625;0.021484;0.068359;
686440;-0.013672;0.022461;0.060547;
686650;-0.016602;0.026367;0.053711;
686860;-0.018555;0.030273;0.045898;
687080;-0.015625;0.021484;0.047852;
687290;-0.019531;0.018555;0.017578;
687500;-0.011719;0.019531;0.015625;
687710;-0.014648;0.023438;0.000977;
687920;-0.016602;0.017578;-0.010742;
688135;-0.015625;0.022461;-0.019531;
688366;-0.016602;0.021484;-0.014648;
688610;-0.017578;0.025391;-0.000977;
688820;-0.019531;0.024414;-0.005859;
689030;-0.018555;0.035156;-0.016602;
689250;-0.015625;0.027344;-0.015625;
689470;-0.017578;0.025391;-0.004883;
689680;-0.016602;0.028320;-0.008789;
689890;-0.018555;0.022461;0.012695;
690100;-0.018555;0.028320;0.022461;
690320;-0.022461;0.022461;-0.000977;
690530;-0.016602;0.019531;-0.000977;
690740;-0.021484;0.019531;0.008789;
690950;-0.019531;0.024414;0.010742;
691170;-0.019531;0.018555;0.013672;
691380;-0.018555;0.017578;-0.002930;
691592;-0.021484;0.017578;0.001953;
691826;-0.019531;0.021484;0.006836;
692066;-0.019531;0.025391;0.006836;
692290;-0.021484;0.016602;0.017578;
692500;-0.024414;0.013672;0.009766;
692710;-0.018555;0.020508;0.019531;
692920;-0.023438;0.020508;-0.000977;
693130;-0.020508;0.020508;-0.010742;
693340;-0.023438;0.024414;-0.008789;
693550;-0.024414;0.020508;-0.005859;
693770;-0.024414;0.021484;-0.019531;
693990;-0.023438;0.019531;-0.004883;
694200;-0.020508;0.018555;-0.007812;
694426;-0.025391;0.019531;-0.006836;
694640;-0.026367;0.014648;0.015625;
694850;-0.028320;0.015625;0.002930;
695060;-0.024414;0.016602;0.005859;
695276;-0.028320;0.020508;0.003906;
695517;-0.028320;0.020508;-0.002930;
695760;-0.028320;0.021484;0.012695;
695970;-0.026367;0.018555;0.013672;
696180;-0.030273;0.023438;-0.000977;
696390;-0.030273;0.019531;-0.020508;
696600;-0.027344;0.013672;-0.010742;
696810;-0.028320;0.019531;-0.012695;
697020;-0.030273;0.012695;-0.039062;
697230;-0.029297;0.018555;-0.036133;
697450;-0.031250;0.022461;-0.040039;
697660;-0.032227;0.016602;-0.023438;
697870;-0.027344;0.015625;0.014648;
698080;-0.033203;0.019531;-0.036133;
698300;-0.028320;0.007812;-0.002930;
698510;-0.039062;0.015625;0.084961;
698726;-0.037109;0.012695;0.041992;
698967;-0.027344;0.017578;0.118164;
699196;-0.038086;0.015625;0.125000;
699420;-0.041992;0.019531;0.075195;
699650;-0.041992;0.013672;0.069336;
699860;-0.042969;0.011719;0.080078;
700065;-0.045898;0.013672;0.128906;
700280;-0.043945;0.010742;0.236328;
700490;-0.048828;0.018555;0.327148;
700700;-0.034180;0.005859;0.500977;
700910;-0.020508;0.008789;0.695312;
701120;-0.000977;0.013672;0.877930;
701330;0.008789;0.017578;1.051758;
701550;0.028320;0.014648;1.189453;
701770;0.040039;0.016602;1.305664;
701980;0.047852;0.014648;1.394531;
702190;0.056641;0.025391;1.483398;
702405;0.057617;0.025391;1.532227;
702615;0.065430;0.025391;1.581055;
702846;0.066406;0.028320;1.643555;
703070;0.055664;0.019531;1.631836;
703280;0.056641;0.012695;1.674805;
703490;0.071289;0.014648;1.743164;
703710;0.069336;0.022461;1.660156;
703920;0.058594;0.019531;1.686523;
704140;0.056641;0.039062;1.650391;
704350;0.061523;0.027344;1.575195;
704560;0.048828;0.016602;1.551758;
704770;0.042969;0.032227;1.512695;
704980;0.027344;0.033203;1.466797;
705190;0.025391;0.038086;1.451172;
705400;0.025391;0.023438;1.452148;
705610;0.029297;0.024414;1.492188;
705820;0.036133;0.013672;1.541016;
706035;0.041992;0.017578;1.590820;
706256;0.041016;0.012695;1.615234;
706500;0.039062;0.015625;1.636719;
706720;0.037109;0.020508;1.659180;
706940;0.039062;0.023438;1.671875;
707150;0.039062;0.013672;1.680664;
707360;0.040039;0.015625;1.704102;
707580;0.041016;0.010742;1.713867;
707790;0.044922;0.011719;1.740234;
708000;0.040039;0.013672;1.728516;
708210;0.040039;0.013672;1.729492;
708420;0.034180;0.017578;1.736328;
708630;0.036133;0.014648;1.739258;
708840;0.029297;0.020508;1.736328;
709050;0.028320;0.022461;1.723633;
709260;0.027344;0.021484;1.724609;
709470;0.025391;0.025391;1.720703;
709675;0.023438;0.019531;1.712891;
709905;0.019531;0.021484;1.711914;
710150;0.016602;0.018555;1.712891;
710370;0.018555;0.016602;1.733398;
710580;0.017578;0.014648;1.744141;
710800;0.019531;0.013672;1.756836;
711010;0.022461;0.016602;1.789062;
711220;0.022461;0.011719;1.801758;
711440;0.021484;0.016602;1.830078;
711650;0.022461;0.010742;1.859375;
711860;0.029297;0.009766;1.886719;
712070;0.028320;0.011719;1.896484;
712280;0.027344;0.008789;1.885742;
712490;0.023438;0.010742;1.871094;
712700;0.018555;0.012695;1.841797;
712920;0.012695;0.015625;1.818359;
713130;0.009766;0.017578;1.793945;
713336;0.008789;0.016602;1.771484;
713566;0.004883;0.013672;1.760742;
713810;0.004883;0.014648;1.768555;
714020;0.004883;0.008789;1.775391;
714230;0.004883;0.009766;1.788086;
714440;0.005859;0.014648;1.797852;
714650;0.003906;0.009766;1.783203;
714860;0.000977;0.006836;1.767578;
715070;-0.003906;0.012695;1.757812;
715280;-0.003906;0.007812;1.740234;
715490;-0.005859;0.008789;1.737305;
715700;-0.007812;0.010742;1.728516;
715910;-0.009766;0.009766;1.717773;
716120;-0.011719;0.011719;1.709961;
716330;-0.011719;0.015625;1.712891;
716535;-0.011719;0.019531;1.714844;
716775;-0.012695;0.018555;1.730469;
717000;-0.011719;0.011719;1.736328;
717215;-0.011719;0.012695;1.750977;
717460;-0.006836;0.011719;1.764648;
717670;-0.008789;0.013672;1.764648;
717880;-0.010742;0.015625;1.758789;
718090;-0.012695;0.013672;1.730469;
718300;-0.019531;0.019531;1.694336;
718520;-0.024414;0.017578;1.636719;
718730;-0.030273;0.021484;1.583984;
718940;-0.031250;0.020508;1.543945;
719150;-0.035156;0.019531;1.515625;
719360;-0.038086;0.018555;1.474609;
719570;-0.041992;0.019531;1.447266;
719780;-0.042969;0.018555;1.437500;
719990;-0.045898;0.013672;1.419922;
720200;-0.043945;0.013672;1.419922;
720415;-0.043945;0.016602;1.427734;
720646;-0.043945;0.013672;1.449219;
720867;-0.043945;0.012695;1.466797;
721110;-0.042969;0.018555;1.472656;
721320;-0.043945;0.017578;1.470703;
721530;-0.046875;0.015625;1.455078;
721740;-0.047852;0.022461;1.431641;
721950;-0.052734;0.019531;1.385742;
722160;-0.052734;0.018555;1.341797;
722370;-0.057617;0.015625;1.292969;
722590;-0.060547;0.016602;1.253906;
722800;-0.062500;0.016602;1.220703;
723010;-0.063477;0.017578;1.188477;
723230;-0.067383;0.019531;1.161133;
723440;-0.068359;0.018555;1.142578;
723650;-0.068359;0.020508;1.125977;
723860;-0.067383;0.018555;1.114258;
724065;-0.069336;0.020508;1.109375;
724285;-0.069336;0.022461;1.083984;
724516;-0.074219;0.020508;1.066406;
724740;-0.076172;0.019531;1.041016;
724950;-0.078125;0.017578;1.011719;
725160;-0.076172;0.020508;0.999023;
725370;-0.077148;0.020508;0.991211;
725580;-0.081055;0.018555;0.963867;
725790;-0.081055;0.022461;0.980469;
726000;-0.080078;0.019531;0.987305;
726210;-0.075195;0.022461;0.994141;
726420;-0.078125;0.020508;1.014648;
726630;-0.075195;0.018555;1.048828;
726840;-0.070312;0.013672;1.062500;
727050;-0.065430;0.016602;1.085938;
727260;-0.066406;0.018555;1.104492;
727470;-0.061523;0.018555;1.116211;
727685;-0.061523;0.016602;1.129883;
727920;-0.058594;0.018555;1.136719;
728135;-0.056641;0.020508;1.168945;
728370;-0.047852;0.021484;1.173828;
728580;-0.041016;0.024414;1.191406;
728790;-0.038086;0.018555;1.197266;
729000;-0.032227;0.014648;1.203125;
729220;-0.024414;0.017578;1.211914;
729430;-0.021484;0.011719;1.191406;
729640;-0.021484;0.016602;1.204102;
729850;-0.016602;0.022461;1.184570;
730070;-0.016602;0.024414;1.179688;
730280;-0.016602;0.023438;1.181641;
730490;-0.020508;0.021484;1.167969;
730710;-0.020508;0.016602;1.179688;
730920;-0.014648;0.016602;1.181641;
731130;-0.013672;0.019531;1.170898;
731338;-0.009766;0.019531;1.157227;
731566;-0.006836;0.020508;1.135742;
731786;-0.003906;0.021484;1.114258;
732020;-0.001953;0.020508;1.099609;
732230;-0.006836;0.025391;1.084961;
732440;-0.009766;0.024414;1.067383;
732650;-0.014648;0.017578;1.048828;
732870;-0.017578;0.017578;1.038086;
733080;-0.017578;0.010742;1.034180;
733290;-0.015625;0.019531;1.032227;
733500;-0.015625;0.022461;1.034180;
733720;-0.014648;0.020508;1.031250;
733930;-0.010742;0.023438;1.053711;
734140;-0.012695;0.024414;1.081055;
734350;-0.010742;0.019531;1.089844;
734570;-0.014648;0.021484;1.086914;
734780;-0.014648;0.021484;1.077148;
734986;-0.014648;0.028320;1.056641;
735215;-0.012695;0.017578;1.042969;
735450;-0.015625;0.022461;1.047852;
735660;-0.013672;0.025391;1.037109;
735870;-0.015625;0.021484;1.039062;
736090;-0.012695;0.021484;1.049805;
736300;-0.011719;0.020508;1.055664;
736510;-0.011719;0.015625;1.070312;
736720;-0.013672;0.019531;1.072266;
736930;-0.011719;0.015625;1.081055;
737140;-0.011719;0.015625;1.076172;
737350;-0.012695;0.024414;1.087891;
737570;-0.011719;0.020508;1.095703;
737790;-0.013672;0.018555;1.095703;
738000;-0.010742;0.021484;1.115234;
738210;-0.011719;0.019531;1.111328;
738420;-0.008789;0.019531;1.124023;
738625;-0.010742;0.021484;1.130859;
738855;-0.011719;0.019531;1.132812;
739100;-0.007812;0.017578;1.141602;
739320;-0.007812;0.020508;1.142578;
739530;-0.009766;0.026367;1.143555;
739740;-0.006836;0.021484;1.153320;
739950;-0.008789;0.021484;1.153320;
740160;-0.007812;0.017578;1.148438;
740370;-0.007812;0.022461;1.156250;
740580;-0.006836;0.017578;1.153320;
740790;-0.006836;0.021484;1.143555;
741000;-0.010742;0.019531;1.125000;
741210;-0.005859;0.018555;1.145508;
741430;-0.007812;0.019531;1.169922;
741640;-0.006836;0.020508;1.162109;
741850;-0.005859;0.015625;1.158203;
742055;-0.010742;0.018555;1.126953;
742277;-0.010742;0.023438;1.101562;
742506;-0.016602;0.020508;1.076172;
742730;-0.016602;0.021484;1.031250;
742940;-0.016602;0.022461;1.016602;
743150;-0.019531;0.024414;0.992188;
743360;-0.018555;0.020508;0.976562;
743570;-0.016602;0.025391;0.975586;
743780;-0.013672;0.019531;0.980469;
743990;-0.015625;0.019531;0.976562;
744210;-0.016602;0.015625;0.970703;
744430;-0.021484;0.020508;0.978516;
744640;-0.016602;0.021484;0.998047;
744850;-0.013672;0.022461;1.018555;
745060;-0.014648;0.020508;1.015625;
745270;-0.012695;0.021484;1.023438;
745480;-0.016602;0.017578;1.031250;
745695;-0.015625;0.017578;1.033203;
745926;-0.014648;0.024414;1.035156;
746170;-0.015625;0.019531;1.027344;
746380;-0.014648;0.021484;1.021484;
746597;-0.011719;0.021484;1.017578;
746830;-0.015625;0.021484;1.012695;
747040;-0.016602;0.019531;0.994141;
747250;-0.015625;0.018555;0.986328;
747470;-0.016602;0.022461;1.003906;
747680;-0.015625;0.020508;0.990234;
747910;-0.022461;0.023438;0.965820;
748120;-0.019531;0.023438;0.952148;
748325;-0.022461;0.020508;0.944336;
748550;-0.019531;0.022461;0.936523;
748760;-0.018555;0.023438;0.957031;
748980;-0.022461;0.021484;0.960938;
749186;-0.020508;0.020508;0.958984;
749406;-0.018555;0.022461;0.979492;
749646;-0.017578;0.019531;0.976562;
749860;-0.015625;0.021484;0.987305;
750070;-0.020508;0.018555;0.996094;
750280;-0.016602;0.021484;1.000977;
750490;-0.015625;0.020508;1.005859;
750700;-0.014648;0.018555;1.015625;
750920;-0.013672;0.022461;1.003906;
751140;-0.014648;0.019531;1.006836;
751346;-0.014648;0.017578;1.001953;
751560;-0.012695;0.021484;1.002930;
751780;-0.017578;0.024414;0.997070;
751990;-0.016602;0.022461;1.004883;
752200;-0.012695;0.022461;1.006836;
752415;-0.018555;0.016602;0.993164;
752648;-0.014648;0.023438;1.005859;
752886;-0.017578;0.018555;1.014648;
753130;-0.014648;0.023438;1.027344;
753335;-0.012695;0.020508;1.036133;
753560;-0.016602;0.023438;1.038086;
753770;-0.011719;0.018555;1.037109;
753985;-0.012695;0.020508;1.060547;
754200;-0.011719;0.015625;1.073242;
754420;-0.010742;0.018555;1.091797;
754626;-0.011719;0.019531;1.097656;
754850;-0.009766;0.018555;1.083008;
755060;-0.010742;0.014648;1.077148;
755275;-0.009766;0.017578;1.085938;
755490;-0.010742;0.022461;1.061523;
755700;-0.012695;0.019531;1.034180;
755916;-0.014648;0.018555;0.987305;
756128;-0.018555;0.019531;0.972656;
756365;-0.019531;0.023438;0.975586;
756595;-0.016602;0.019531;0.967773;
756820;-0.018555;0.016602;0.958984;
757040;-0.016602;0.017578;0.972656;
757256;-0.014648;0.020508;0.987305;
757460;-0.016602;0.020508;1.013672;
757670;-0.016602;0.019531;1.025391;
757890;-0.016602;0.019531;1.034180;
758100;-0.013672;0.019531;1.037109;
758310;-0.010742;0.018555;1.030273;
758530;-0.018555;0.020508;1.027344;
758740;-0.012695;0.017578;1.021484;
758960;-0.015625;0.020508;1.022461;
759180;-0.015625;0.018555;1.014648;
759390;-0.014648;0.013672;0.990234;
759607;-0.015625;0.019531;0.991211;
759835;-0.017578;0.016602;0.991211;
760077;-0.016602;0.013672;0.979492;
760320;-0.012695;0.017578;0.993164;
760530;-0.018555;0.024414;1.001953;
760750;-0.016602;0.021484;0.984375;
760960;-0.017578;0.015625;0.998047;
761170;-0.017578;0.019531;1.003906;
761380;-0.017578;0.016602;0.996094;
761590;-0.015625;0.021484;1.023438;
761810;-0.011719;0.016602;1.039062;
762020;-0.010742;0.017578;1.055664;
762241;-0.015625;0.017578;1.045898;
762480;-0.011719;0.017578;1.032227;
762700;-0.014648;0.020508;1.031250;
762910;-0.016602;0.022461;1.011719;
763117;-0.016602;0.023438;1.000977;
763356;-0.018555;0.020508;0.967773;
763586;-0.019531;0.015625;0.969727;
763810;-0.017578;0.009766;0.963867;
764020;-0.017578;0.004883;0.955078;
764230;-0.017578;0.009766;0.964844;
764440;-0.017578;0.009766;0.971680;
764650;-0.016602;0.010742;0.968750;
764860;-0.019531;0.018555;0.973633;
765080;-0.016602;0.018555;0.977539;
765290;-0.015625;0.018555;0.978516;
765500;-0.016602;0.023438;0.994141;
765710;-0.019531;0.023438;1.012695;
765920;-0.014648;0.026367;1.041016;
766130;-0.017578;0.026367;1.056641;
766340;-0.013672;0.027344;1.071289;
766550;-0.011719;0.030273;1.096680;
766755;-0.009766;0.028320;1.096680;
766985;-0.014648;0.028320;1.093750;
767230;-0.014648;0.029297;1.077148;
767440;-0.013672;0.027344;1.060547;
767650;-0.017578;0.030273;1.055664;
767860;-0.016602;0.033203;1.076172;
768070;-0.013672;0.029297;1.075195;
768280;-0.011719;0.027344;1.106445;
768490;-0.008789;0.031250;1.125977;
768700;-0.008789;0.032227;1.145508;
768910;-0.008789;0.030273;1.156250;
769120;-0.006836;0.027344;1.164062;
769340;-0.007812;0.025391;1.181641;
769550;-0.003906;0.022461;1.195312;
769760;-0.002930;0.023438;1.222656;
769970;-0.004883;0.022461;1.243164;
770177;-0.002930;0.023438;1.248047;
770406;-0.002930;0.022461;1.261719;
770650;-0.002930;0.019531;1.255859;
770870;0.000000;0.026367;1.263672;
771080;-0.000977;0.023438;1.265625;
771290;-0.000977;0.023438;1.250977;
771500;0.000977;0.025391;1.252930;
771710;-0.000977;0.027344;1.261719;
771920;0.000977;0.024414;1.252930;
772130;-0.001953;0.029297;1.258789;
772340;0.000000;0.027344;1.260742;
772550;0.000977;0.025391;1.248047;
772760;-0.001953;0.026367;1.247070;
772970;-0.000977;0.026367;1.248047;
773180;-0.003906;0.029297;1.250977;
773390;-0.001953;0.022461;1.227539;
773600;-0.001953;0.023438;1.236328;
773815;0.000000;0.028320;1.240234;
774046;0.000000;0.023438;1.229492;
774280;-0.003906;0.022461;1.222656;
774500;-0.007812;0.021484;1.205078;
774710;-0.001953;0.018555;1.193359;
774930;-0.005859;0.021484;1.187500;
775150;-0.007812;0.021484;1.161133;
775360;-0.002930;0.027344;1.169922;
775570;-0.004883;0.024414;1.165039;
775780;-0.007812;0.025391;1.163086;
775990;-0.006836;0.029297;1.163086;
776200;-0.005859;0.027344;1.166016;
776410;-0.005859;0.023438;1.176758;
776620;-0.007812;0.025391;1.168945;
776840;-0.003906;0.025391;1.173828;
777050;-0.003906;0.025391;1.183594;
777266;-0.002930;0.026367;1.177734;
777506;-0.002930;0.026367;1.185547;
777750;-0.003906;0.021484;1.183594;
777960;-0.002930;0.026367;1.188477;
778170;-0.003906;0.024414;1.180664;
778380;-0.003906;0.022461;1.180664;
778590;-0.004883;0.024414;1.167969;
778800;-0.003906;0.023438;1.170898;
779010;-0.005859;0.024414;1.163086;
779220;-0.002930;0.024414;1.170898;
779430;-0.005859;0.025391;1.164062;
779640;-0.002930;0.025391;1.169922;
779850;-0.006836;0.026367;1.159180;
780070;-0.006836;0.023438;1.159180;
780280;-0.005859;0.026367;1.176758;
780490;-0.004883;0.020508;1.185547;
780696;-0.000977;0.020508;1.191406;
780926;-0.003906;0.028320;1.208008;
781165;-0.002930;0.023438;1.198242;
781380;0.000000;0.024414;1.205078;
781590;-0.000977;0.027344;1.201172;
781800;-0.003906;0.024414;1.186523;
782010;-0.001953;0.027344;1.176758;
782220;-0.003906;0.021484;1.175781;
782430;-0.006836;0.025391;1.165039;
782640;-0.005859;0.025391;1.156250;
782850;-0.003906;0.026367;1.154297;
783060;-0.005859;0.025391;1.159180;
783270;-0.005859;0.025391;1.137695;
783480;-0.004883;0.024414;1.136719;
783690;-0.007812;0.026367;1.141602;
783910;-0.002930;0.023438;1.126953;
784120;-0.006836;0.025391;1.122070;
784336;-0.004883;0.028320;1.118164;
784566;-0.006836;0.026367;1.112305;
784810;-0.009766;0.026367;1.109375;
785020;-0.010742;0.026367;1.097656;
785230;-0.008789;0.027344;1.089844;
785440;-0.006836;0.024414;1.099609;
785650;-0.006836;0.024414;1.107422;
785860;-0.006836;0.024414;1.115234;
786070;-0.005859;0.027344;1.115234;
786280;-0.003906;0.029297;1.129883;
786490;-0.010742;0.026367;1.127930;
786700;-0.004883;0.030273;1.132812;
786910;-0.005859;0.027344;1.139648;
787130;-0.004883;0.025391;1.142578;
787340;-0.004883;0.025391;1.139648;
787550;-0.004883;0.029297;1.137695;
787755;-0.004883;0.027344;1.140625;
787985;-0.005859;0.031250;1.142578;
788230;-0.004883;0.025391;1.159180;
788450;-0.002930;0.023438;1.170898;
788660;-0.003906;0.026367;1.182617;
788870;-0.003906;0.024414;1.186523;
789080;-0.001953;0.026367;1.194336;
789300;-0.002930;0.027344;1.190430;
789510;-0.005859;0.030273;1.174805;
789720;-0.002930;0.024414;1.173828;
789930;-0.005859;0.023438;1.156250;
790140;-0.004883;0.025391;1.154297;
790350;-0.007812;0.032227;1.133789;
790560;-0.006836;0.031250;1.125000;
790770;-0.009766;0.030273;1.117188;
790977;-0.006836;0.026367;1.115234;
791215;-0.005859;0.031250;1.119141;
791446;-0.005859;0.030273;1.140625;
791660;-0.006836;0.026367;1.146484;
791872;-0.004883;0.027344;1.143555;
792090;-0.001953;0.029297;1.169922;
792300;-0.002930;0.030273;1.188477;
792510;-0.001953;0.032227;1.185547;
792720;0.000000;0.032227;1.204102;
792940;0.001953;0.039062;1.221680;
793151;0.000977;0.031250;1.225586;
793370;-0.000977;0.032227;1.234375;
793580;0.002930;0.034180;1.254883;
793800;0.000977;0.035156;1.268555;
794010;0.003906;0.033203;1.263672;
794220;-0.000977;0.029297;1.250977;
794430;0.001953;0.034180;1.237305;
794646;0.001953;0.025391;1.219727;
794885;-0.000977;0.030273;1.213867;
795120;-0.001953;0.029297;1.196289;
795330;-0.001953;0.029297;1.180664;
795540;0.000000;0.031250;1.190430;
795750;0.000000;0.025391;1.178711;
795960;0.000000;0.026367;1.166016;
796170;-0.001953;0.022461;1.177734;
796390;-0.001953;0.025391;1.169922;
796600;-0.001953;0.020508;1.168945;
796810;0.000000;0.023438;1.168945;
797020;-0.003906;0.021484;1.148438;
797230;-0.003906;0.024414;1.127930;
797450;-0.005859;0.024414;1.094727;
797660;-0.004883;0.030273;1.061523;
797870;-0.001953;0.028320;1.053711;
798086;-0.000977;0.031250;1.027344;
798315;0.001953;0.032227;1.022461;
798555;0.003906;0.039062;1.017578;
798790;0.008789;0.036133;1.029297;
799000;0.010742;0.033203;1.037109;
799210;0.014648;0.032227;1.045898;
799430;0.014648;0.029297;1.048828;
799640;0.012695;0.035156;1.046875;
799850;0.007812;0.025391;1.050781;
800060;0.005859;0.026367;1.019531;
800270;0.004883;0.014648;0.993164;
800480;0.001953;0.020508;0.969727;
800690;0.003906;0.021484;0.963867;
800900;0.001953;0.016602;0.957031;
801120;0.001953;0.017578;0.961914;
801330;0.004883;0.020508;0.996094;
801540;0.003906;0.022461;1.015625;
801747;0.007812;0.024414;1.036133;
801965;0.006836;0.021484;1.030273;
802175;0.005859;0.022461;1.029297;
802395;0.004883;0.019531;1.038086;
802630;0.002930;0.026367;1.010742;
802840;0.004883;0.024414;1.014648;
803050;0.006836;0.024414;1.007812;
803260;0.003906;0.023438;0.993164;
803470;0.001953;0.028320;0.986328;
803680;0.004883;0.025391;1.000977;
803890;0.005859;0.025391;1.017578;
804100;0.007812;0.023438;1.034180;
804310;0.005859;0.023438;1.039062;
804520;0.006836;0.022461;1.051758;
804730;0.006836;0.021484;1.054688;
804940;0.007812;0.023438;1.065430;
805160;0.009766;0.020508;1.066406;
805370;0.006836;0.023438;1.073242;
805585;0.008789;0.022461;1.078125;
805795;0.010742;0.025391;1.086914;
806026;0.008789;0.018555;1.079102;
806270;0.005859;0.029297;1.076172;
806480;0.006836;0.024414;1.070312;
806700;0.008789;0.023438;1.050781;
806920;0.004883;0.025391;1.043945;
807130;0.002930;0.020508;1.024414;
807340;0.002930;0.022461;1.017578;
807550;0.003906;0.021484;1.024414;
807760;0.005859;0.016602;1.022461;
807980;0.005859;0.024414;1.025391;
808190;0.006836;0.025391;1.026367;
808400;0.003906;0.023438;1.016602;
808610;0.004883;0.024414;1.019531;
808830;0.005859;0.022461;1.013672;
809040;0.004883;0.024414;1.028320;
809252;0.003906;0.021484;1.017578;
809486;0.004883;0.023438;1.019531;
809696;0.005859;0.024414;1.024414;
809930;0.008789;0.023438;1.030273;
810140;0.005859;0.023438;1.037109;
810350;0.007812;0.016602;1.031250;
810560;0.005859;0.024414;1.018555;
810770;0.005859;0.020508;1.006836;
810990;0.004883;0.024414;0.998047;
811200;-0.000977;0.019531;0.979492;
811410;0.000977;0.023438;0.985352;
811620;0.000977;0.022461;0.981445;
811830;0.001953;0.023438;0.973633;
812050;0.000000;0.023438;0.990234;
812260;0.001953;0.017578;1.001953;
812470;0.003906;0.022461;0.994141;
812676;0.003906;0.026367;0.997070;
812905;0.003906;0.022461;1.009766;
813145;0.004883;0.023438;1.008789;
813360;0.003906;0.023438;1.013672;
813570;0.007812;0.020508;1.023438;
813780;0.005859;0.018555;1.018555;
813990;0.008789;0.015625;1.016602;
814200;0.009766;0.019531;1.019531;
814410;0.004883;0.022461;1.023438;
814620;0.005859;0.021484;1.023438;
814830;0.003906;0.022461;1.007812;
815040;0.006836;0.023438;1.019531;
815250;0.005859;0.024414;1.018555;
815460;0.006836;0.015625;1.012695;
815670;0.009766;0.015625;1.029297;
815880;0.007812;0.021484;1.024414;
816090;0.006836;0.020508;1.024414;
816296;0.007812;0.021484;1.034180;
816525;0.006836;0.023438;1.041016;
816756;0.005859;0.021484;1.037109;
816980;0.004883;0.024414;1.043945;
817190;0.006836;0.026367;1.050781;
817400;0.008789;0.024414;1.061523;
817610;0.005859;0.026367;1.071289;
817820;0.005859;0.020508;1.072266;
818030;0.005859;0.025391;1.076172;
818250;0.003906;0.021484;1.062500;
818460;0.003906;0.019531;1.065430;
818670;0.004883;0.019531;1.056641;
818880;0.004883;0.019531;1.047852;
819090;0.007812;0.021484;1.043945;
819310;0.004883;0.020508;1.041992;
819520;0.003906;0.021484;1.041016;
819730;0.007812;0.019531;1.041016;
819946;0.006836;0.019531;1.029297;
820178;0.004883;0.022461;1.016602;
820420;0.005859;0.022461;1.007812;
820630;0.004883;0.024414;1.012695;
820840;0.005859;0.025391;1.011719;
821050;0.004883;0.014648;1.005859;
821260;0.005859;0.022461;1.012695;
821470;0.002930;0.021484;1.012695;
821680;0.003906;0.022461;1.017578;
821900;0.000977;0.018555;1.010742;
822110;0.002930;0.016602;1.013672;
822320;0.002930;0.018555;1.013672;
822530;0.004883;0.018555;1.016602;
822740;0.001953;0.018555;1.008789;
822950;0.004883;0.025391;1.015625;
823160;0.004883;0.027344;1.007812;
823366;0.002930;0.021484;1.004883;
823595;0.000977;0.023438;0.997070;
823840;0.003906;0.020508;0.997070;
824050;0.001953;0.022461;1.000977;
824260;0.001953;0.023438;0.996094;
824480;0.003906;0.021484;0.996094;
824690;0.001953;0.020508;0.994141;
824900;0.001953;0.019531;0.977539;
825110;0.001953;0.019531;0.969727;
825320;0.002930;0.018555;0.969727;
825530;0.000977;0.019531;0.970703;
825740;0.002930;0.021484;0.961914;
825950;0.002930;0.022461;0.954102;
826160;0.003906;0.023438;0.958008;
826370;0.001953;0.025391;0.969727;
826576;0.001953;0.023438;0.976562;
826787;0.000000;0.023438;0.985352;
827016;0.004883;0.024414;1.001953;
827260;0.004883;0.022461;1.040039;
827470;0.008789;0.022461;1.043945;
827680;0.007812;0.021484;1.044922;
827890;0.008789;0.021484;1.061523;
828100;0.006836;0.017578;1.048828;
828310;0.003906;0.020508;1.042969;
828520;0.006836;0.023438;1.038086;
828730;0.005859;0.018555;1.031250;
828940;0.005859;0.023438;1.027344;
829150;0.003906;0.021484;1.014648;
829360;0.004883;0.022461;1.018555;
829570;0.005859;0.022461;1.018555;
829780;0.002930;0.021484;1.013672;
829990;0.003906;0.020508;1.013672;
830196;0.003906;0.017578;1.011719;
830428;0.004883;0.021484;1.023438;
830670;0.002930;0.023438;1.020508;
830880;0.002930;0.021484;1.017578;
831090;0.000977;0.017578;1.011719;
831300;0.001953;0.023438;1.023438;
831510;0.004883;0.026367;1.027344;
831720;0.003906;0.022461;1.028320;
831930;0.004883;0.020508;1.023438;
832140;0.004883;0.021484;1.034180;
832350;0.003906;0.020508;1.040039;
832570;0.008789;0.022461;1.056641;
832780;0.002930;0.025391;1.070312;
832990;0.007812;0.025391;1.084961;
833200;0.008789;0.019531;1.082031;
833412;0.008789;0.019531;1.079102;
833635;0.007812;0.025391;1.081055;
833876;0.004883;0.024414;1.073242;
834120;0.004883;0.020508;1.073242;
834330;0.005859;0.022461;1.075195;
834540;0.003906;0.020508;1.069336;
834760;0.005859;0.022461;1.085938;
834970;0.005859;0.023438;1.089844;
835180;0.007812;0.016602;1.086914;
835390;0.005859;0.021484;1.079102;
835600;0.007812;0.021484;1.074219;
835810;0.003906;0.022461;1.070312;
836020;0.004883;0.021484;1.054688;
836230;0.005859;0.023438;1.054688;
836450;0.000977;0.018555;1.044922;
836660;0.006836;0.022461;1.041016;
836870;0.005859;0.017578;1.043945;
837078;0.003906;0.017578;1.036133;
837305;0.005859;0.017578;1.049805;
837536;0.004883;0.021484;1.039062;
837750;0.004883;0.022461;1.048828;
837960;0.001953;0.019531;1.045898;
838170;0.002930;0.022461;1.055664;
838380;0.004883;0.016602;1.057617;
838590;0.003906;0.024414;1.056641;
838800;0.002930;0.018555;1.055664;
839020;0.004883;0.021484;1.058594;
839230;0.007812;0.019531;1.065430;
839440;0.004883;0.025391;1.058594;
839650;0.002930;0.022461;1.051758;
839860;0.004883;0.020508;1.053711;
840070;0.004883;0.024414;1.057617;
840280;0.003906;0.020508;1.044922;
840492;0.003906;0.026367;1.041992;
840726;0.005859;0.017578;1.041016;
840955;0.004883;0.022461;1.051758;
841190;0.001953;0.023438;1.049805;
841400;0.006836;0.021484;1.049805;
841610;0.006836;0.022461;1.057617;
841820;0.001953;0.017578;1.044922;
842030;0.005859;0.017578;1.054688;
842240;0.006836;0.021484;1.043945;
842450;0.004883;0.021484;1.049805;
842660;0.007812;0.022461;1.054688;
842870;0.003906;0.020508;1.049805;
843080;0.005859;0.016602;1.059570;
843290;0.005859;0.018555;1.055664;
843510;0.005859;0.020508;1.053711;
843720;0.003906;0.022461;1.046875;
843930;0.002930;0.019531;1.037109;
844135;0.000977;0.020508;1.016602;
844356;0.001953;0.022461;1.000977;
844565;0.002930;0.024414;0.988281;
844800;0.000000;0.021484;0.968750;
845010;-0.001953;0.019531;0.958984;
845220;0.000000;0.026367;0.955078;
845430;0.000000;0.020508;0.944336;
845640;0.000000;0.024414;0.942383;
845850;-0.002930;0.024414;0.935547;
846060;-0.000977;0.018555;0.919922;
846270;-0.001953;0.021484;0.923828;
846480;-0.003906;0.019531;0.923828;
846690;-0.001953;0.021484;0.931641;
846900;-0.002930;0.017578;0.950195;
847120;0.003906;0.022461;0.978516;
847330;0.001953;0.024414;0.990234;
847535;0.001953;0.023438;1.017578;
847766;0.003906;0.022461;1.016602;
847995;0.005859;0.022461;1.035156;
848215;0.002930;0.023438;1.030273;
848430;0.003906;0.022461;1.031250;
848650;0.003906;0.019531;1.025391;
848860;0.001953;0.020508;1.017578;
849070;0.002930;0.019531;1.020508;
849280;0.005859;0.022461;1.017578;
849490;0.002930;0.022461;1.018555;
849710;0.002930;0.019531;1.012695;
849930;0.002930;0.021484;1.025391;
850140;0.006836;0.022461;1.029297;
850350;0.003906;0.018555;1.034180;
850570;0.003906;0.019531;1.041016;
850780;0.002930;0.022461;1.048828;
850990;0.006836;0.022461;1.042969;
851200;0.005859;0.021484;1.032227;
851415;0.003906;0.022461;1.021484;
851635;0.001953;0.020508;1.020508;
851880;0.002930;0.021484;1.012695;
852090;0.001953;0.022461;1.022461;
852300;0.003906;0.020508;1.032227;
852520;0.003906;0.022461;1.040039;
852730;0.003906;0.022461;1.043945;
852940;0.007812;0.024414;1.064453;
853150;0.004883;0.015625;1.054688;
853360;0.002930;0.020508;1.068359;
853580;0.004883;0.020508;1.069336;
853790;0.005859;0.026367;1.062500;
854000;0.000977;0.024414;1.048828;
854210;0.002930;0.021484;1.040039;
854430;0.000000;0.025391;1.008789;
854635;-0.000977;0.023438;1.005859;
854866;0.001953;0.026367;0.982422;
855075;-0.000977;0.022461;0.974609;
855310;0.000000;0.023438;0.977539;
855520;0.000000;0.026367;0.977539;
855730;0.000000;0.023438;0.978516;
855940;0.000000;0.019531;0.980469;
856150;0.003906;0.028320;0.985352;
856360;-0.000977;0.022461;0.978516;
856570;0.001953;0.022461;0.999023;
856780;0.002930;0.022461;0.999023;
856990;0.005859;0.023438;0.996094;
857200;0.002930;0.019531;1.012695;
857420;0.003906;0.021484;1.015625;
857630;0.001953;0.023438;1.018555;
857840;0.004883;0.024414;1.042969;
858060;0.006836;0.022461;1.054688;
858265;0.006836;0.025391;1.062500;
858495;0.003906;0.022461;1.081055;
858705;0.006836;0.023438;1.078125;
858940;0.005859;0.023438;1.092773;
