Time;acc_x;acc_y;acc_z;

863946;0.006836;0.021484;1.043945;
864128;1.600380;0.000000;0.000000;
864218;0.004883;0.020508;1.043945;
864328;1.600380;0.000000;0.000000;
864418;1.600380;0.000000;0.000000;
864508;1.600380;0.000000;0.000000;
864598;0.004883;0.025391;1.043945;
864718;1.600380;0.000000;0.000000;
864808;1.600380;0.000000;0.000000;
864898;1.600380;0.000000;0.000000;
864988;0.004883;0.019531;1.045898;
865108;1.600380;0.000000;0.000000;
865198;1.600380;0.000000;0.000000;
865288;1.600380;0.000000;0.000000;
865378;0.005859;0.018555;1.038086;
865498;1.600380;0.000000;0.000000;
865588;1.600380;0.000000;0.000000;
865678;1.600380;0.000000;0.000000;
865784;0.001953;0.020508;1.011719;
865945;1.600380;0.000000;0.000000;
866033;1.600380;0.000000;0.000000;
866151;1.600380;0.000000;0.000000;
866272;0.001953;0.022461;1.012695;
866438;1.600380;0.000000;0.000000;
866528;1.600380;0.000000;0.000000;
866618;1.600380;0.000000;0.000000;
866708;0.000000;0.016602;0.990234;
866828;0.005859;0.020508;1.000000;
866928;0.000977;0.017578;0.995117;
867028;0.004883;0.016602;0.987305;
867128;0.001953;0.020508;0.986328;
867228;0.002930;0.018555;0.980469;
867328;0.000000;0.016602;0.992188;
867428;0.001953;0.017578;0.987305;
867528;0.002930;0.018555;0.998047;
867628;-0.001953;0.022461;0.996094;
867724;-0.000977;0.020508;0.997070;
867834;1.600380;0.000000;0.000000;
867934;0.001953;0.019531;1.002930;
868084;0.002930;0.018555;1.001953;
868194;0.001953;0.019531;1.006836;
868304;0.002930;0.019531;1.000977;
868425;0.002930;0.024414;1.014648;
868544;1.600380;0.000000;0.000000;
868638;0.000000;0.017578;1.005859;
868748;0.001953;0.015625;1.016602;
868848;0.001953;0.015625;1.008789;
868948;0.001953;0.021484;1.021484;
869048;1.600380;0.000000;0.000000;
869138;0.002930;0.022461;1.020508;
869248;0.000977;0.020508;1.015625;
869348;1.600380;0.000000;0.000000;
869438;0.002930;0.019531;1.024414;
869548;0.000977;0.023438;1.017578;
869658;0.003906;0.024414;1.019531;
869758;0.000977;0.023438;1.015625;
869858;0.003906;0.023438;1.028320;
869953;0.000977;0.024414;1.018555;
870083;1.600380;0.000000;0.000000;
870183;0.000000;0.019531;1.018555;
870324;0.001953;0.025391;1.027344;
870454;0.002930;0.020508;1.033203;
870558;1.600380;0.000000;0.000000;
870648;0.002930;0.017578;1.039062;
870768;-0.000977;0.019531;1.031250;
870868;1.600380;0.000000;0.000000;
870958;0.000000;0.022461;1.036133;
871068;0.004883;0.019531;1.045898;
871168;0.000977;0.022461;1.046875;
871278;0.005859;0.019531;1.055664;
871378;0.004883;0.018555;1.060547;
871478;0.007812;0.019531;1.071289;
871578;0.003906;0.016602;1.064453;
871678;0.004883;0.018555;1.073242;
871798;0.004883;0.014648;1.065430;
871894;0.005859;0.022461;1.071289;
872028;0.002930;0.018555;1.056641;
872154;1.600380;0.000000;0.000000;
872254;0.002930;0.015625;1.041016;
872395;0.006836;0.013672;1.041992;
872508;0.006836;0.015625;1.028320;
872608;0.009766;0.016602;1.031250;
872708;0.004883;0.012695;1.017578;
872808;0.007812;0.011719;1.017578;
872908;0.008789;0.014648;1.019531;
873018;0.009766;0.013672;1.002930;
873118;0.010742;0.014648;1.018555;
873218;0.011719;0.017578;0.999023;
873318;0.013672;0.015625;1.007812;
873418;0.016602;0.024414;1.023438;
873514;0.017578;0.019531;1.026367;
873628;0.019531;0.016602;1.038086;
873728;1.600380;0.000000;0.000000;
873814;0.022461;0.022461;1.048828;
873934;1.600380;0.000000;0.000000;
874028;0.027344;0.018555;1.073242;
874135;0.032227;0.016602;1.088867;
874244;0.035156;0.021484;1.093750;
874374;1.600380;0.000000;0.000000;
874479;0.041992;0.021484;1.117188;
874608;0.045898;0.018555;1.122070;
874708;0.048828;0.015625;1.130859;
874808;0.049805;0.015625;1.133789;
874908;0.050781;0.013672;1.125977;
875008;0.052734;0.019531;1.114258;
875118;0.057617;0.022461;1.099609;
875218;1.600380;0.000000;0.000000;
875308;0.054688;0.018555;1.077148;
875408;0.059570;0.012695;1.057617;
875508;0.056641;0.019531;1.051758;
875610;0.058594;0.015625;1.032227;
875728;1.600380;0.000000;0.000000;
875818;0.062500;0.019531;1.016602;
875925;1.600380;0.000000;0.000000;
876044;0.067383;0.017578;0.989258;
876184;1.600380;0.000000;0.000000;
876294;0.076172;0.018555;0.983398;
876448;0.084961;0.018555;0.967773;
876558;0.087891;0.021484;0.951172;
876658;0.093750;0.023438;0.955078;
876758;0.096680;0.016602;0.949219;
876855;0.096680;0.023438;0.954102;
876958;0.097656;0.027344;0.950195;
877058;0.096680;0.020508;0.934570;
877158;1.600380;0.000000;0.000000;
877248;0.097656;0.014648;0.935547;
877358;0.096680;0.023438;0.936523;
877468;0.094727;0.028320;0.940430;
877568;0.098633;0.018555;0.945312;
877668;0.094727;0.025391;0.972656;
877768;0.098633;0.017578;0.973633;
877870;0.098633;0.018555;0.980469;
877994;0.098633;0.027344;1.005859;
878113;0.102539;0.021484;1.028320;
878234;0.098633;0.024414;1.028320;
878354;1.600380;0.000000;0.000000;
878458;1.600380;0.000000;0.000000;
878548;0.100586;0.023438;1.041016;
878658;0.098633;0.013672;1.033203;
878758;0.099609;0.019531;1.032227;
878858;0.096680;0.017578;1.021484;
878955;0.099609;0.015625;1.010742;
879058;0.095703;0.016602;1.014648;
879158;0.099609;0.020508;1.005859;
879258;0.097656;0.016602;0.992188;
879358;0.100586;0.014648;1.001953;
879458;0.095703;0.016602;0.991211;
879558;0.098633;0.015625;0.998047;
879658;0.096680;0.014648;0.985352;
879760;0.097656;0.022461;0.987305;
879874;0.094727;0.019531;0.982422;
880004;0.094727;0.018555;0.980469;
880108;1.600380;0.000000;0.000000;
880194;0.092773;0.019531;0.987305;
880315;0.096680;0.017578;0.998047;
880434;0.095703;0.023438;0.994141;
880554;0.094727;0.016602;1.010742;
880678;0.094727;0.017578;1.023438;
880773;0.093750;0.023438;1.029297;
880878;0.098633;0.020508;1.025391;
880978;0.096680;0.015625;1.038086;
881078;0.094727;0.013672;1.039062;
881178;0.094727;0.014648;1.043945;
881280;0.094727;0.015625;1.056641;
881388;0.092773;0.011719;1.056641;
881488;0.094727;0.018555;1.062500;
881588;0.094727;0.015625;1.052734;
881688;0.094727;0.011719;1.058594;
881788;0.092773;0.022461;1.065430;
881898;0.093750;0.011719;1.049805;
881995;0.096680;0.018555;1.077148;
882114;0.091797;0.013672;1.048828;
882234;0.090820;0.017578;1.051758;
882354;0.094727;0.026367;1.052734;
882476;0.094727;0.019531;1.050781;
882598;1.600380;0.000000;0.000000;
882688;1.600380;0.000000;0.000000;
882778;0.093750;0.017578;1.028320;
882888;0.090820;0.013672;1.028320;
882988;0.092773;0.017578;1.039062;
883088;0.090820;0.014648;1.036133;
883188;0.088867;0.016602;1.032227;
883288;0.093750;0.020508;1.037109;
883388;0.094727;0.015625;1.031250;
883488;0.089844;0.010742;1.030273;
883608;0.086914;0.016602;1.024414;
883708;0.092773;0.017578;1.038086;
883808;0.090820;0.011719;1.020508;
883904;0.089844;0.018555;1.020508;
884004;0.091797;0.015625;1.011719;
884124;0.089844;0.014648;0.999023;
884244;0.090820;0.010742;0.999023;
884365;0.090820;0.013672;0.991211;
884488;1.600380;0.000000;0.000000;
884578;0.087891;0.014648;0.986328;
884688;0.085938;0.018555;0.980469;
884788;0.089844;0.021484;0.981445;
884888;0.086914;0.022461;0.957031;
884984;0.081055;0.018555;0.955078;
885083;0.089844;0.018555;0.966797;
885178;0.084961;0.022461;0.957031;
885278;0.084961;0.023438;0.978516;
885378;0.084961;0.021484;0.966797;
885478;0.088867;0.017578;0.979492;
885578;0.085938;0.022461;0.980469;
885688;0.086914;0.025391;0.980469;
885788;0.082031;0.018555;0.972656;
885894;0.083008;0.021484;0.981445;
886014;0.088867;0.024414;0.981445;
886134;0.085938;0.025391;0.989258;
886245;0.085938;0.021484;0.992188;
886354;0.086914;0.019531;0.993164;
886464;0.085938;0.017578;0.984375;
886568;0.086914;0.015625;0.970703;
886668;0.087891;0.017578;0.970703;
886764;1.600380;0.000000;0.000000;
886858;0.084961;0.015625;0.991211;
886968;0.085938;0.023438;1.013672;
887068;0.084961;0.012695;1.005859;
887168;0.088867;0.015625;1.023438;
887268;0.088867;0.016602;1.024414;
887378;0.088867;0.015625;1.048828;
887478;0.085938;0.013672;1.055664;
887578;0.089844;0.012695;1.060547;
887678;0.088867;0.017578;1.083008;
887778;0.086914;0.015625;1.083984;
887884;0.088867;0.014648;1.087891;
887994;0.087891;0.012695;1.078125;
888103;0.090820;0.014648;1.086914;
888224;0.089844;0.022461;1.081055;
888344;0.086914;0.014648;1.066406;
888468;1.600380;0.000000;0.000000;
888558;1.600380;0.000000;0.000000;
888648;0.084961;0.015625;1.059570;
888768;0.083984;0.017578;1.049805;
888868;0.086914;0.019531;1.059570;
888965;0.083008;0.020508;1.045898;
889068;0.084961;0.016602;1.046875;
889168;0.084961;0.020508;1.042969;
889268;0.083984;0.017578;1.053711;
889368;0.083984;0.024414;1.063477;
889468;0.085938;0.022461;1.057617;
889578;0.083984;0.012695;1.066406;
889678;0.084961;0.021484;1.074219;
889778;0.084961;0.014648;1.082031;
889884;0.083984;0.017578;1.083984;
890014;0.085938;0.019531;1.102539;
890135;0.087891;0.012695;1.094727;
890254;0.084961;0.016602;1.110352;
890378;0.083984;0.018555;1.110352;
890478;0.086914;0.025391;1.092773;
890578;0.084961;0.014648;1.073242;
890678;0.082031;0.022461;1.058594;
890778;0.083008;0.019531;1.041016;
890874;0.081055;0.016602;1.025391;
890978;0.081055;0.020508;1.007812;
891078;0.080078;0.021484;0.997070;
891178;0.078125;0.018555;0.975586;
891278;0.080078;0.016602;0.961914;
891378;0.082031;0.020508;0.961914;
891484;0.081055;0.023438;0.958984;
891588;0.080078;0.019531;0.955078;
891684;0.077148;0.012695;0.947266;
891795;0.079102;0.022461;0.963867;
891918;0.079102;0.020508;0.958008;
892014;0.079102;0.017578;0.966797;
892135;0.079102;0.021484;0.980469;
892254;1.600380;0.000000;0.000000;
892344;0.077148;0.020508;1.002930;
892464;1.600380;0.000000;0.000000;
892558;0.083008;0.017578;1.012695;
892668;0.079102;0.016602;1.018555;
892768;0.081055;0.019531;1.040039;
892868;0.078125;0.020508;1.037109;
892968;0.077148;0.011719;1.050781;
893068;1.600380;0.000000;0.000000;
893154;0.083008;0.016602;1.067383;
893268;0.079102;0.019531;1.089844;
893368;0.081055;0.013672;1.101562;
893468;0.083984;0.018555;1.124023;
893568;0.085938;0.022461;1.177734;
893668;0.085938;0.018555;1.200195;
893778;0.085938;0.014648;1.228516;
893880;0.086914;0.015625;1.305664;
894004;0.087891;0.013672;1.336914;
894124;0.089844;0.018555;1.394531;
894244;0.102539;0.018555;1.462891;
894375;0.100586;0.014648;1.518555;
894498;0.105469;0.015625;1.564453;
894598;0.110352;0.015625;1.614258;
894698;0.106445;0.012695;1.648438;
894798;0.114258;0.017578;1.696289;
894898;0.116211;0.014648;1.722656;
895003;0.116211;0.012695;1.758789;
895118;0.119141;0.010742;1.777344;
895218;0.121094;0.009766;1.790039;
895318;0.123047;0.015625;1.813477;
895418;0.123047;0.011719;1.816406;
895518;0.122070;0.014648;1.832031;
895628;0.124023;0.013672;1.833008;
895728;0.123047;0.010742;1.830078;
895824;0.125000;0.011719;1.829102;
895946;0.125977;0.011719;1.819336;
896074;0.121094;0.009766;1.813477;
896194;0.125000;0.006836;1.827148;
896303;0.125977;0.014648;1.832031;
896418;0.124023;0.018555;1.844727;
896518;0.122070;0.006836;1.833984;
896618;0.125000;0.013672;1.852539;
896718;0.123047;0.016602;1.863281;
896820;0.125000;0.011719;1.882812;
896928;0.127930;0.011719;1.875000;
897028;0.127930;0.012695;1.888672;
897128;0.129883;0.013672;1.901367;
897228;0.125977;0.015625;1.899414;
897328;0.131836;0.018555;1.916016;
897438;0.131836;0.015625;1.912109;
897538;0.128906;0.016602;1.910156;
897634;0.129883;0.015625;1.920898;
897743;1.600380;0.000000;0.000000;
897844;0.132812;0.015625;1.912109;
897955;0.126953;0.014648;1.891602;
898075;0.129883;0.008789;1.887695;
898184;1.600380;0.000000;0.000000;
898274;0.130859;0.002930;1.871094;
898398;0.126953;0.003906;1.870117;
898498;0.128906;0.000977;1.874023;
898598;0.125977;0.001953;1.855469;
898694;0.123047;0.002930;1.858398;
898798;0.131836;0.002930;1.858398;
898898;0.123047;0.002930;1.837891;
898998;0.128906;0.004883;1.855469;
899098;0.125000;0.010742;1.850586;
899198;0.130859;0.001953;1.849609;
899298;0.128906;0.006836;1.848633;
899398;1.600380;0.000000;0.000000;
899488;0.129883;0.015625;1.853516;
899598;1.600380;0.000000;0.000000;
899688;0.129883;0.016602;1.864258;
899804;0.126953;0.016602;1.864258;
899934;0.132812;0.019531;1.862305;
900054;0.131836;0.016602;1.863281;
900174;0.133789;0.014648;1.855469;
900294;0.131836;0.016602;1.857422;
900414;0.134766;0.020508;1.872070;
900518;0.130859;0.013672;1.851562;
900618;0.127930;0.013672;1.847656;
900718;0.131836;0.015625;1.863281;
900818;0.128906;0.009766;1.843750;
900924;0.132812;0.003906;1.863281;
901048;0.127930;0.014648;1.845703;
901148;0.136719;0.014648;1.853516;
901248;0.136719;0.002930;1.855469;
901348;0.130859;0.008789;1.847656;
901448;0.137695;0.009766;1.853516;
901554;0.136719;0.007812;1.851562;
901658;0.134766;0.012695;1.833984;
901754;0.136719;0.006836;1.854492;
901874;0.134766;0.004883;1.854492;
901974;0.133789;0.007812;1.856445;
902074;0.140625;0.010742;1.855469;
902194;0.136719;0.004883;1.856445;
902314;0.138672;0.011719;1.848633;
902428;0.141602;0.007812;1.846680;
902528;0.130859;0.010742;1.853516;
902628;1.600380;0.000000;0.000000;
902718;0.141602;0.010742;1.856445;
902828;1.600380;0.000000;0.000000;
902914;0.138672;0.012695;1.840820;
903018;0.137695;0.011719;1.838867;
903118;0.141602;0.010742;1.833984;
903218;0.138672;0.010742;1.828125;
903318;0.138672;0.015625;1.828125;
903420;0.138672;0.007812;1.830078;
903528;0.139648;0.020508;1.821289;
903628;0.138672;0.013672;1.828125;
903728;0.138672;0.012695;1.827148;
903844;0.141602;0.012695;1.830078;
903964;0.148438;0.009766;1.851562;
904093;1.600380;0.000000;0.000000;
904194;0.147461;0.010742;1.856445;
904334;1.600380;0.000000;0.000000;
904428;1.600380;0.000000;0.000000;
904518;0.148438;0.007812;1.862305;
904638;0.150391;0.015625;1.873047;
904745;0.151367;0.014648;1.874023;
904848;0.153320;0.021484;1.898438;
904948;0.153320;0.018555;1.876953;
905048;0.157227;0.018555;1.900391;
905148;0.155273;0.018555;1.892578;
905248;0.157227;0.023438;1.895508;
905358;0.158203;0.020508;1.863281;
905458;0.154297;0.018555;1.852539;
905558;0.155273;0.018555;1.868164;
905658;0.156250;0.006836;1.855469;
905758;0.155273;0.007812;1.864258;
905864;1.600380;0.000000;0.000000;
905974;0.159180;-0.000977;1.857422;
906114;0.159180;-0.001953;1.846680;
906234;1.600380;0.000000;0.000000;
906334;1.600380;0.000000;0.000000;
906438;0.163086;0.000977;1.848633;
906558;0.165039;0.000000;1.840820;
906658;0.162109;0.003906;1.830078;
906758;0.159180;0.002930;1.827148;
906858;0.165039;0.004883;1.836914;
906968;0.165039;0.004883;1.822266;
907068;0.163086;0.005859;1.824219;
907168;0.163086;0.012695;1.833008;
907268;0.166016;0.014648;1.843750;
907368;0.166992;0.017578;1.823242;
907464;0.163086;0.013672;1.821289;
907568;0.166016;0.016602;1.836914;
907668;0.170898;0.020508;1.824219;
907764;0.169922;0.015625;1.821289;
907865;0.171875;0.022461;1.837891;
907994;1.600380;0.000000;0.000000;
908094;0.174805;0.011719;1.829102;
908234;0.174805;0.011719;1.844727;
908364;0.177734;0.013672;1.834961;
908478;1.600380;0.000000;0.000000;
908568;0.183594;0.009766;1.836914;
908678;0.177734;0.006836;1.852539;
908778;0.183594;0.007812;1.842773;
908878;0.179688;0.003906;1.850586;
908975;0.185547;0.008789;1.853516;
909078;0.184570;0.008789;1.854492;
909178;0.187500;0.010742;1.841797;
909278;0.189453;0.016602;1.834961;
909378;0.187500;0.012695;1.836914;
909478;0.187500;0.022461;1.833008;
909588;1.600380;0.000000;0.000000;
909678;0.186523;0.026367;1.826172;
909784;0.187500;0.022461;1.825195;
909904;0.193359;0.022461;1.823242;
910026;0.192383;0.018555;1.834961;
910136;0.193359;0.014648;1.853516;
910234;0.199219;0.009766;1.829102;
910344;0.199219;0.006836;1.833984;
910458;1.600380;0.000000;0.000000;
910548;0.201172;-0.004883;1.862305;
910658;0.200195;0.002930;1.880859;
910758;0.206055;0.001953;1.863281;
910858;0.204102;-0.008789;1.858398;
910958;1.600380;0.000000;0.000000;
911048;0.202148;-0.006836;1.896484;
911168;0.206055;-0.006836;1.911133;
911268;1.600380;0.000000;0.000000;
911358;0.208984;-0.006836;1.892578;
911458;0.209961;-0.011719;1.928711;
911558;0.207031;-0.000977;1.877930;
911653;1.600380;0.000000;0.000000;
911748;0.209961;0.005859;1.895508;
911865;0.206055;0.004883;1.875000;
911984;1.600380;0.000000;0.000000;
912083;0.201172;0.014648;1.853516;
912234;0.200195;0.013672;1.832031;
912364;0.196289;0.022461;1.780273;
912478;0.188477;0.018555;1.749023;
912578;0.184570;0.030273;1.710938;
912678;0.170898;0.034180;1.692383;
912778;0.168945;0.024414;1.659180;
912878;1.600380;0.000000;0.000000;
912978;0.160156;0.016602;1.603516;
913088;0.143555;0.023438;1.543945;
913188;0.140625;0.034180;1.531250;
913288;0.131836;0.029297;1.488281;
913388;1.600380;0.000000;0.000000;
913473;0.116211;0.028320;1.437500;
913598;0.110352;0.030273;1.406250;
913698;0.105469;0.027344;1.381836;
913798;0.099609;0.022461;1.360352;
913898;1.600380;0.000000;0.000000;
913987;0.094727;0.023438;1.319336;
914114;0.086914;0.025391;1.304688;
914234;1.600380;0.000000;0.000000;
914344;0.083984;0.016602;1.250000;
914474;0.072266;0.021484;1.177734;
914604;1.600380;0.000000;0.000000;
914695;0.062500;0.015625;1.085938;
914808;0.050781;0.019531;1.028320;
914908;0.044922;0.020508;0.955078;
915008;1.600380;0.000000;0.000000;
915098;0.034180;0.019531;0.846680;
915198;0.026367;0.017578;0.767578;
915308;0.020508;0.017578;0.681641;
915408;0.007812;0.017578;0.589844;
915508;0.003906;0.020508;0.512695;
915608;0.008789;0.019531;0.479492;
915718;0.001953;0.023438;0.401367;
915828;0.000977;0.018555;0.327148;
915928;-0.002930;0.018555;0.306641;
916028;-0.000977;0.017578;0.250000;
916145;-0.001953;0.020508;0.199219;
916275;-0.003906;0.019531;0.145508;
916405;-0.005859;0.018555;0.105469;
916523;-0.008789;0.019531;0.088867;
916644;-0.001953;0.019531;0.078125;
916768;-0.001953;0.016602;0.058594;
916868;-0.000977;0.019531;0.041016;
916968;-0.005859;0.016602;0.029297;
917068;-0.004883;0.017578;0.009766;
917168;-0.003906;0.018555;0.016602;
917265;1.600380;0.000000;0.000000;
917358;-0.005859;0.023438;-0.000977;
917468;-0.008789;0.027344;-0.008789;
917568;-0.005859;0.028320;-0.001953;
917668;1.600380;0.000000;0.000000;
917758;-0.012695;0.029297;0.002930;
917878;-0.007812;0.031250;0.000000;
917978;-0.012695;0.029297;0.010742;
918074;-0.010742;0.032227;0.011719;
918178;1.600380;0.000000;0.000000;
918264;-0.009766;0.035156;0.006836;
918384;-0.011719;0.037109;0.011719;
918508;-0.009766;0.038086;0.011719;
918623;-0.010742;0.040039;0.025391;
918744;-0.010742;0.039062;0.016602;
918864;1.600380;0.000000;0.000000;
918965;-0.012695;0.038086;0.011719;
919108;-0.012695;0.039062;0.003906;
919208;-0.013672;0.039062;0.002930;
919308;-0.011719;0.038086;-0.005859;
919408;-0.014648;0.042969;0.005859;
919508;-0.011719;0.041992;0.005859;
919604;-0.015625;0.041992;0.008789;
919704;-0.014648;0.040039;0.014648;
919818;-0.015625;0.036133;0.004883;
919918;-0.012695;0.036133;0.000977;
920018;1.600380;0.000000;0.000000;
920108;-0.012695;0.031250;0.008789;
920208;-0.013672;0.031250;0.013672;
920310;1.600380;0.000000;0.000000;
920398;-0.012695;0.034180;0.003906;
920525;-0.012695;0.031250;0.014648;
920644;-0.013672;0.029297;0.022461;
920765;-0.014648;0.026367;0.030273;
920866;-0.013672;0.029297;0.029297;
920963;-0.013672;0.032227;0.031250;
921085;-0.009766;0.033203;0.042969;
921204;-0.015625;0.029297;0.034180;
921308;-0.017578;0.030273;0.037109;
921408;-0.013672;0.031250;0.052734;
921510;-0.012695;0.032227;0.041992;
921618;-0.018555;0.032227;0.044922;
921718;-0.019531;0.031250;0.048828;
921818;-0.014648;0.033203;0.053711;
921918;-0.015625;0.034180;0.045898;
922018;-0.016602;0.035156;0.058594;
922128;-0.020508;0.037109;0.046875;
922228;-0.019531;0.039062;0.045898;
922328;1.600380;0.000000;0.000000;
922418;-0.015625;0.037109;0.040039;
922528;-0.019531;0.038086;0.034180;
922624;-0.017578;0.034180;0.030273;
922744;1.600380;0.000000;0.000000;
922844;-0.017578;0.037109;0.029297;
922976;-0.015625;0.035156;0.023438;
923104;-0.017578;0.034180;0.008789;
923225;-0.015625;0.031250;0.005859;
923348;-0.014648;0.031250;0.011719;
923448;-0.013672;0.030273;0.014648;
923548;-0.013672;0.027344;0.012695;
923648;-0.012695;0.028320;0.019531;
923748;-0.018555;0.031250;0.006836;
923858;-0.020508;0.025391;0.009766;
923958;-0.013672;0.028320;0.013672;
924068;-0.017578;0.028320;0.014648;
924168;-0.017578;0.024414;0.014648;
924268;-0.012695;0.032227;0.008789;
924364;-0.016602;0.026367;0.000000;
924478;-0.014648;0.031250;0.004883;
924578;-0.019531;0.030273;0.006836;
924673;1.600380;0.000000;0.000000;
924774;-0.017578;0.026367;0.008789;
924904;-0.016602;0.026367;0.007812;
925024;-0.016602;0.028320;0.015625;
925144;-0.019531;0.025391;0.013672;
925264;-0.015625;0.028320;0.016602;
925384;1.600380;0.000000;0.000000;
925478;-0.018555;0.024414;0.012695;
925588;-0.015625;0.031250;0.017578;
925688;-0.017578;0.025391;0.018555;
925788;-0.017578;0.021484;0.016602;
925888;-0.017578;0.026367;0.026367;
926004;-0.015625;0.023438;0.020508;
926118;-0.018555;0.023438;0.028320;
926218;1.600380;0.000000;0.000000;
926308;-0.014648;0.017578;0.022461;
926418;-0.018555;0.024414;0.023438;
926518;-0.015625;0.021484;0.019531;
926628;-0.022461;0.022461;0.015625;
926728;-0.018555;0.022461;0.021484;
926828;-0.019531;0.022461;0.028320;
926928;-0.015625;0.017578;0.024414;
927027;-0.017578;0.022461;0.026367;
927144;-0.018555;0.020508;0.012695;
927255;-0.018555;0.017578;0.018555;
927374;-0.019531;0.020508;0.020508;
927494;-0.018555;0.018555;0.026367;
927605;-0.019531;0.021484;0.023438;
927724;-0.018555;0.019531;0.019531;
927848;-0.020508;0.020508;0.022461;
927948;1.600380;0.000000;0.000000;
928038;-0.016602;0.017578;0.022461;
928148;-0.018555;0.016602;0.009766;
928248;-0.018555;0.019531;0.023438;
928344;-0.017578;0.019531;0.016602;
928448;-0.019531;0.015625;0.019531;
928548;-0.020508;0.018555;0.014648;
928648;-0.018555;0.019531;0.015625;
928748;-0.017578;0.015625;0.007812;
928848;1.600380;0.000000;0.000000;
928948;-0.017578;0.017578;0.006836;
929058;-0.020508;0.015625;0.004883;
929158;1.600380;0.000000;0.000000;
929254;-0.016602;0.016602;0.002930;
929384;-0.021484;0.017578;0.001953;
929494;-0.022461;0.017578;0.002930;
929603;-0.015625;0.016602;0.014648;
929704;-0.018555;0.015625;0.005859;
929835;-0.019531;0.017578;0.004883;
929954;-0.022461;0.015625;0.007812;
930055;1.600380;0.000000;0.000000;
930148;-0.023438;0.011719;-0.001953;
930258;-0.021484;0.009766;-0.005859;
930358;1.600380;0.000000;0.000000;
930448;-0.020508;0.014648;-0.003906;
930558;-0.017578;0.015625;0.006836;
930664;-0.020508;0.014648;-0.001953;
930768;-0.020508;0.012695;-0.003906;
930868;-0.022461;0.011719;0.003906;
930968;-0.019531;0.012695;-0.011719;
931068;-0.020508;0.012695;0.000977;
931168;-0.019531;0.012695;0.003906;
931274;-0.022461;0.010742;-0.002930;
931383;-0.019531;0.011719;-0.001953;
931504;-0.024414;0.009766;0.000977;
931635;-0.020508;0.012695;-0.003906;
931753;-0.024414;0.009766;-0.006836;
931868;-0.023438;0.008789;0.000977;
931965;-0.023438;0.009766;0.008789;
932084;-0.024414;0.012695;-0.014648;
932194;-0.021484;0.013672;-0.005859;
932295;-0.019531;0.015625;0.006836;
932404;-0.023438;0.013672;0.000977;
932518;-0.018555;0.013672;0.003906;
932620;1.600380;0.000000;0.000000;
932718;-0.021484;0.014648;-0.002930;
932828;-0.027344;0.013672;0.005859;
932928;1.600380;0.000000;0.000000;
933018;-0.020508;0.014648;0.021484;
933128;-0.026367;0.011719;0.018555;
933238;1.600380;0.000000;0.000000;
933328;-0.025391;0.016602;0.016602;
933438;-0.025391;0.015625;0.019531;
933538;-0.023438;0.015625;0.030273;
933638;-0.024414;0.014648;0.023438;
933735;-0.024414;0.011719;0.026367;
933833;-0.027344;0.013672;0.027344;
933954;-0.025391;0.013672;0.030273;
934074;-0.027344;0.012695;0.027344;
934204;1.600380;0.000000;0.000000;
934304;-0.025391;0.014648;0.019531;
934448;-0.024414;0.013672;0.022461;
934548;1.600380;0.000000;0.000000;
934638;-0.027344;0.016602;0.020508;
934748;1.600380;0.000000;0.000000;
934838;-0.030273;0.019531;0.003906;
934943;-0.029297;0.018555;0.010742;
935058;1.600380;0.000000;0.000000;
935148;-0.025391;0.017578;0.011719;
935258;-0.025391;0.022461;0.011719;
935358;-0.031250;0.019531;-0.002930;
935458;-0.029297;0.019531;-0.006836;
935568;1.600380;0.000000;0.000000;
935658;-0.031250;0.020508;-0.002930;
935768;-0.028320;0.019531;0.001953;
935874;-0.026367;0.019531;0.003906;
936005;1.600380;0.000000;0.000000;
936114;-0.027344;0.014648;-0.010742;
936253;1.600380;0.000000;0.000000;
936354;-0.031250;0.016602;0.000000;
936486;-0.031250;0.015625;0.010742;
936608;-0.029297;0.017578;-0.007812;
936708;-0.033203;0.015625;-0.015625;
936808;-0.031250;0.013672;-0.005859;
936905;-0.034180;0.018555;-0.008789;
937018;-0.031250;0.020508;-0.007812;
937118;1.600380;0.000000;0.000000;
937208;-0.032227;0.018555;-0.004883;
937318;-0.034180;0.015625;-0.005859;
937418;-0.033203;0.015625;0.001953;
937513;-0.032227;0.018555;0.000000;
937628;-0.035156;0.015625;-0.006836;
937728;-0.035156;0.013672;-0.011719;
937828;-0.036133;0.013672;0.001953;
937924;-0.033203;0.014648;-0.004883;
938024;-0.037109;0.014648;0.004883;
938124;-0.036133;0.010742;-0.005859;
938244;1.600380;0.000000;0.000000;
938344;-0.035156;0.015625;0.008789;
938474;-0.040039;0.016602;0.000000;
938594;1.600380;0.000000;0.000000;
938694;-0.041992;0.012695;0.012695;
938818;-0.039062;0.011719;0.022461;
938918;-0.045898;0.017578;0.019531;
939018;1.600380;0.000000;0.000000;
939108;-0.049805;0.015625;0.052734;
939208;-0.052734;0.017578;0.098633;
939318;-0.050781;0.019531;0.160156;
939418;-0.047852;0.020508;0.200195;
939518;-0.047852;0.024414;0.276367;
939618;1.600380;0.000000;0.000000;
939708;1.600380;0.000000;0.000000;
939795;1.600380;0.000000;0.000000;
939888;-0.030273;0.021484;0.584961;
940008;-0.020508;0.022461;0.708008;
940103;1.600380;0.000000;0.000000;
940204;-0.000977;0.018555;0.907227;
940333;0.012695;0.020508;1.030273;
940454;0.022461;0.018555;1.133789;
940574;0.036133;0.025391;1.223633;
940695;0.032227;0.028320;1.292969;
940798;0.041016;0.033203;1.358398;
940913;1.600380;0.000000;0.000000;
941008;1.600380;0.000000;0.000000;
941108;1.600380;0.000000;0.000000;
941198;0.049805;0.035156;1.486328;
941318;0.056641;0.028320;1.501953;
941418;0.056641;0.029297;1.527344;
941518;0.053711;0.033203;1.523438;
941613;0.057617;0.025391;1.536133;
941718;0.055664;0.020508;1.564453;
941818;0.054688;0.024414;1.585938;
941918;1.600380;0.000000;0.000000;
942008;0.066406;0.028320;1.609375;
942118;1.600380;0.000000;0.000000;
942218;0.057617;0.031250;1.598633;
942328;1.600380;0.000000;0.000000;
942424;0.056641;0.020508;1.619141;
942574;1.600380;0.000000;0.000000;
942673;0.045898;0.031250;1.568359;
942796;0.049805;0.018555;1.597656;
942917;0.054688;0.019531;1.603516;
943028;1.600380;0.000000;0.000000;
943118;0.051758;0.013672;1.640625;
943234;0.047852;0.031250;1.645508;
943338;0.054688;0.025391;1.638672;
943438;0.051758;0.009766;1.629883;
943538;0.046875;0.026367;1.652344;
943638;0.050781;0.011719;1.634766;
943750;0.046875;0.028320;1.649414;
943868;0.046875;0.019531;1.638672;
943968;0.044922;0.013672;1.659180;
944068;0.053711;0.019531;1.682617;
944168;0.042969;0.019531;1.679688;
944268;0.048828;0.021484;1.678711;
944382;0.041016;0.027344;1.703125;
944504;0.053711;0.017578;1.696289;
944634;0.045898;0.011719;1.703125;
944755;0.052734;0.027344;1.743164;
944874;0.041992;0.015625;1.722656;
944974;0.047852;0.028320;1.752930;
945088;0.041992;0.025391;1.745117;
945188;0.050781;0.010742;1.726562;
945288;0.041016;0.024414;1.745117;
945388;0.048828;0.027344;1.782227;
945488;0.039062;0.016602;1.760742;
945598;0.041016;0.017578;1.741211;
945698;0.041016;0.027344;1.756836;
945798;0.041016;0.027344;1.783203;
945898;0.036133;0.033203;1.783203;
945998;0.036133;0.034180;1.776367;
946094;0.038086;0.037109;1.781250;
946198;0.041992;0.027344;1.785156;
946298;0.040039;0.041992;1.786133;
946405;0.043945;0.027344;1.789062;
946505;0.037109;0.024414;1.790039;
946605;0.039062;0.040039;1.792969;
946714;0.039062;0.031250;1.783203;
946834;0.041992;0.026367;1.800781;
946956;0.037109;0.032227;1.798828;
947074;0.041016;0.028320;1.802734;
947188;0.036133;0.021484;1.785156;
947288;0.041016;0.024414;1.808594;
947388;0.039062;0.024414;1.800781;
947484;0.038086;0.023438;1.804688;
947588;1.600380;0.000000;0.000000;
947678;0.033203;0.014648;1.791016;
947788;0.034180;0.019531;1.791992;
947888;0.034180;0.013672;1.782227;
947988;0.033203;0.008789;1.791016;
948098;0.030273;0.008789;1.783203;
948198;0.033203;0.001953;1.776367;
948298;0.026367;0.000000;1.778320;
948398;0.030273;0.000977;1.774414;
948498;0.026367;-0.001953;1.767578;
948604;0.026367;0.000000;1.771484;
948714;0.023438;0.003906;1.757812;
948834;0.022461;0.007812;1.761719;
948944;0.019531;0.006836;1.757812;
949054;0.019531;0.008789;1.767578;
949154;0.017578;0.014648;1.754883;
949264;0.018555;0.014648;1.765625;
949374;0.014648;0.021484;1.769531;
949495;0.016602;0.025391;1.769531;
949608;0.013672;0.031250;1.769531;
949708;0.013672;0.025391;1.771484;
949808;0.013672;0.030273;1.776367;
949908;0.012695;0.027344;1.774414;
950008;0.011719;0.022461;1.776367;
950114;0.014648;0.021484;1.781250;
950218;0.012695;0.022461;1.786133;
950318;0.011719;0.018555;1.778320;
950418;0.012695;0.014648;1.780273;
950518;0.012695;0.014648;1.788086;
950618;0.012695;0.013672;1.793945;
950718;0.011719;0.008789;1.795898;
950818;0.011719;0.010742;1.791016;
950915;0.007812;0.013672;1.790039;
951024;0.007812;0.011719;1.792969;
951146;0.009766;0.010742;1.791016;
951264;0.005859;0.011719;1.792969;
951374;0.006836;0.011719;1.796875;
951494;0.004883;0.009766;1.793945;
951606;0.004883;0.011719;1.799805;
951718;0.002930;0.011719;1.791992;
951818;0.003906;0.013672;1.801758;
951918;0.003906;0.017578;1.801758;
952013;0.002930;0.019531;1.802734;
952118;0.000000;0.018555;1.794922;
952218;0.000000;0.025391;1.792969;
952318;-0.000977;0.026367;1.785156;
952418;0.000000;0.025391;1.767578;
952518;-0.004883;0.025391;1.764648;
952638;-0.006836;0.024414;1.733398;
952738;-0.004883;0.027344;1.742188;
952838;1.600380;0.000000;0.000000;
952928;-0.008789;0.031250;1.728516;
953038;-0.010742;0.029297;1.708008;
953154;-0.012695;0.025391;1.697266;
953274;-0.012695;0.021484;1.683594;
953395;-0.014648;0.022461;1.684570;
953514;-0.014648;0.020508;1.671875;
953645;-0.016602;0.022461;1.665039;
953768;-0.017578;0.022461;1.658203;
953868;-0.016602;0.016602;1.648438;
953968;-0.021484;0.018555;1.631836;
954068;-0.020508;0.013672;1.628906;
954168;-0.023438;0.015625;1.619141;
954274;-0.021484;0.018555;1.612305;
954388;-0.023438;0.014648;1.604492;
954488;-0.027344;0.013672;1.589844;
954588;-0.029297;0.014648;1.576172;
954688;-0.028320;0.016602;1.568359;
954788;-0.029297;0.014648;1.553711;
954898;-0.032227;0.017578;1.544922;
954998;-0.032227;0.017578;1.539062;
955099;-0.033203;0.021484;1.535156;
955214;-0.033203;0.016602;1.520508;
955334;1.600380;0.000000;0.000000;
955434;-0.038086;0.020508;1.521484;
955564;-0.035156;0.021484;1.515625;
955684;-0.038086;0.018555;1.505859;
955798;-0.035156;0.016602;1.508789;
955898;-0.039062;0.016602;1.496094;
955998;-0.037109;0.012695;1.494141;
956098;-0.037109;0.014648;1.487305;
956198;-0.039062;0.019531;1.481445;
956295;-0.041016;0.011719;1.461914;
956408;-0.041016;0.020508;1.448242;
956508;-0.042969;0.006836;1.451172;
956608;-0.041992;0.006836;1.440430;
956708;-0.045898;0.013672;1.424805;
956808;-0.044922;0.014648;1.423828;
956915;-0.047852;0.028320;1.410156;
957018;-0.048828;0.022461;1.398438;
957113;-0.050781;0.029297;1.388672;
957235;-0.052734;0.021484;1.377930;
957334;-0.048828;0.022461;1.385742;
957444;-0.051758;0.017578;1.362305;
957564;-0.052734;0.024414;1.359375;
957684;-0.053711;0.027344;1.335938;
957803;-0.051758;0.022461;1.337891;
957918;-0.057617;0.021484;1.314453;
958018;-0.055664;0.018555;1.314453;
958118;-0.059570;0.008789;1.299805;
958218;-0.057617;0.022461;1.294922;
958328;-0.055664;0.026367;1.271484;
958428;-0.059570;0.017578;1.264648;
958528;-0.059570;0.018555;1.260742;
958628;-0.062500;0.020508;1.262695;
958728;-0.062500;0.023438;1.257812;
958824;1.600380;0.000000;0.000000;
958918;-0.062500;0.021484;1.246094;
959028;-0.067383;0.020508;1.231445;
959128;1.600380;0.000000;0.000000;
959218;-0.063477;0.015625;1.224609;
959324;-0.065430;0.016602;1.212891;
959444;-0.061523;0.018555;1.215820;
959553;-0.066406;0.007812;1.211914;
959665;-0.064453;0.022461;1.213867;
959774;-0.066406;0.021484;1.198242;
959895;-0.069336;0.017578;1.198242;
960013;-0.067383;0.022461;1.190430;
960128;-0.066406;0.018555;1.201172;
960228;-0.067383;0.015625;1.188477;
960328;1.600380;0.000000;0.000000;
960418;-0.067383;0.017578;1.196289;
960528;-0.065430;0.020508;1.194336;
960625;-0.067383;0.026367;1.200195;
960738;-0.066406;0.019531;1.194336;
960838;1.600380;0.000000;0.000000;
960928;-0.065430;0.024414;1.200195;
961028;-0.065430;0.023438;1.208008;
961128;-0.068359;0.021484;1.199219;
961238;-0.066406;0.022461;1.218750;
961338;-0.065430;0.022461;1.207031;
961438;-0.067383;0.022461;1.202148;
961544;1.600380;0.000000;0.000000;
961645;-0.067383;0.027344;1.191406;
961774;-0.070312;0.020508;1.189453;
961904;-0.066406;0.023438;1.194336;
962013;-0.069336;0.016602;1.180664;
962124;-0.066406;0.023438;1.184570;
962218;-0.065430;0.018555;1.184570;
962333;1.600380;0.000000;0.000000;
962428;-0.063477;0.018555;1.194336;
962535;-0.066406;0.017578;1.181641;
962648;-0.072266;0.026367;1.175781;
962748;-0.070312;0.026367;1.168945;
962848;-0.069336;0.017578;1.173828;
962948;-0.072266;0.021484;1.183594;
963048;-0.069336;0.028320;1.188477;
963158;1.600380;0.000000;0.000000;
963248;-0.069336;0.023438;1.181641;
963358;-0.072266;0.021484;1.180664;
963458;-0.068359;0.023438;1.192383;
963558;-0.070312;0.022461;1.186523;
963654;1.600380;0.000000;0.000000;
963744;-0.068359;0.026367;1.189453;
963874;-0.069336;0.019531;1.191406;
963995;-0.068359;0.023438;1.186523;
964114;-0.067383;0.028320;1.187500;
964234;-0.072266;0.026367;1.195312;
964354;-0.069336;0.021484;1.192383;
964478;-0.068359;0.020508;1.187500;
964578;1.600380;0.000000;0.000000;
964664;-0.069336;0.017578;1.177734;
964778;1.600380;0.000000;0.000000;
964878;-0.071289;0.016602;1.166016;
964988;-0.069336;0.016602;1.174805;
965088;-0.069336;0.013672;1.171875;
965188;-0.068359;0.015625;1.166016;
965288;-0.068359;0.020508;1.170898;
965394;-0.072266;0.016602;1.167969;
965508;-0.070312;0.019531;1.180664;
965608;-0.068359;0.014648;1.173828;
965708;-0.070312;0.017578;1.191406;
965808;-0.065430;0.025391;1.196289;
965908;-0.066406;0.019531;1.198242;
966018;1.600380;0.000000;0.000000;
966108;-0.066406;0.020508;1.212891;
966218;1.600380;0.000000;0.000000;
966308;-0.066406;0.023438;1.220703;
966428;-0.068359;0.021484;1.217773;
966543;-0.067383;0.028320;1.210938;
966666;-0.069336;0.019531;1.195312;
966784;-0.067383;0.024414;1.192383;
966895;-0.067383;0.027344;1.190430;
967004;-0.067383;0.023438;1.175781;
967125;-0.068359;0.022461;1.172852;
967234;-0.067383;0.023438;1.158203;
967348;-0.068359;0.022461;1.150391;
967448;-0.070312;0.018555;1.150391;
967544;-0.070312;0.023438;1.146484;
967648;-0.071289;0.018555;1.142578;
967748;-0.070312;0.021484;1.125977;
967848;-0.068359;0.019531;1.124023;
967948;-0.070312;0.019531;1.101562;
968048;-0.074219;0.019531;1.088867;
968158;-0.075195;0.017578;1.066406;
968258;-0.072266;0.020508;1.055664;
968358;-0.081055;0.023438;1.034180;
968458;-0.077148;0.016602;1.014648;
968558;1.600380;0.000000;0.000000;
968645;-0.080078;0.021484;1.004883;
968764;-0.081055;0.024414;0.989258;
968884;-0.082031;0.019531;0.991211;
969004;-0.082031;0.021484;0.993164;
969114;-0.079102;0.019531;1.003906;
969223;-0.079102;0.022461;1.002930;
969354;-0.081055;0.019531;1.021484;
969468;-0.077148;0.017578;1.025391;
969568;-0.079102;0.025391;1.040039;
969668;-0.075195;0.021484;1.038086;
969768;-0.076172;0.021484;1.047852;
969868;-0.078125;0.021484;1.045898;
969974;-0.079102;0.019531;1.041016;
970098;-0.077148;0.019531;1.042969;
970198;-0.078125;0.018555;1.043945;
970298;-0.079102;0.021484;1.036133;
970398;-0.079102;0.019531;1.043945;
970500;-0.076172;0.021484;1.035156;
970608;-0.075195;0.022461;1.051758;
970708;-0.076172;0.015625;1.046875;
970804;-0.072266;0.020508;1.068359;
970905;-0.072266;0.018555;1.084961;
971005;-0.072266;0.017578;1.104492;
971123;1.600380;0.000000;0.000000;
971224;1.600380;0.000000;0.000000;
971314;-0.063477;0.022461;1.187500;
971465;-0.059570;0.016602;1.224609;
971588;1.600380;0.000000;0.000000;
971680;-0.053711;0.019531;1.291016;
971808;-0.050781;0.016602;1.328125;
971908;-0.045898;0.014648;1.353516;
972008;-0.042969;0.023438;1.371094;
972108;-0.041016;0.020508;1.388672;
972204;-0.040039;0.019531;1.410156;
972308;-0.038086;0.015625;1.420898;
972408;-0.032227;0.014648;1.427734;
972508;-0.035156;0.015625;1.441406;
972608;-0.031250;0.015625;1.456055;
972708;-0.027344;0.015625;1.456055;
972816;-0.026367;0.012695;1.464844;
972918;-0.021484;0.015625;1.474609;
973018;-0.021484;0.013672;1.479492;
973143;1.600380;0.000000;0.000000;
973244;-0.016602;0.016602;1.499023;
973374;-0.014648;0.011719;1.505859;
973484;-0.012695;0.014648;1.511719;
973594;-0.007812;0.013672;1.518555;
973718;-0.007812;0.014648;1.511719;
973838;-0.012695;0.021484;1.503906;
973934;1.600380;0.000000;0.000000;
974028;-0.010742;0.017578;1.458984;
974138;-0.011719;0.020508;1.437500;
974238;1.600380;0.000000;0.000000;
974328;-0.013672;0.020508;1.412109;
974428;-0.013672;0.023438;1.404297;
974538;-0.015625;0.023438;1.378906;
974638;-0.014648;0.022461;1.376953;
974738;-0.013672;0.019531;1.372070;
974838;-0.013672;0.022461;1.362305;
974938;-0.014648;0.019531;1.357422;
975033;-0.011719;0.018555;1.356445;
975138;1.600380;0.000000;0.000000;
975234;-0.008789;0.016602;1.328125;
975364;-0.009766;0.017578;1.328125;
975484;1.600380;0.000000;0.000000;
975584;-0.009766;0.017578;1.275391;
975715;-0.010742;0.023438;1.273438;
975814;-0.007812;0.014648;1.237305;
975914;-0.010742;0.014648;1.226562;
976024;-0.010742;0.018555;1.191406;
976138;-0.012695;0.017578;1.153320;
976248;1.600380;0.000000;0.000000;
976338;-0.014648;0.018555;1.103516;
976448;-0.015625;0.019531;1.074219;
976548;1.600380;0.000000;0.000000;
976638;-0.016602;0.019531;1.026367;
976744;-0.012695;0.016602;1.019531;
976848;-0.017578;0.020508;1.002930;
976948;-0.014648;0.023438;1.003906;
977048;-0.017578;0.019531;0.980469;
977148;-0.016602;0.021484;0.977539;
977248;-0.013672;0.024414;0.973633;
977358;-0.011719;0.025391;0.985352;
977460;-0.007812;0.024414;0.981445;
977576;-0.011719;0.024414;0.972656;
977696;-0.010742;0.023438;0.963867;
977814;1.600380;0.000000;0.000000;
977905;-0.007812;0.025391;0.947266;
978035;-0.007812;0.020508;0.918945;
978133;-0.008789;0.022461;0.921875;
978243;-0.007812;0.022461;0.908203;
978368;-0.005859;0.017578;0.892578;
978478;-0.007812;0.018555;0.875977;
978578;1.600380;0.000000;0.000000;
978668;-0.008789;0.020508;0.869141;
978778;-0.005859;0.018555;0.862305;
978878;-0.008789;0.018555;0.851562;
978975;-0.004883;0.015625;0.844727;
979078;-0.004883;0.019531;0.856445;
979178;-0.001953;0.019531;0.853516;
979278;-0.000977;0.018555;0.854492;
979378;-0.000977;0.019531;0.854492;
979478;-0.001953;0.021484;0.861328;
979585;0.000977;0.019531;0.875977;
979710;-0.000977;0.021484;0.888672;
979826;0.000977;0.024414;0.907227;
979934;0.000000;0.025391;0.936523;
980064;0.002930;0.018555;0.946289;
980184;0.001953;0.027344;0.975586;
980304;0.001953;0.024414;0.993164;
980425;0.004883;0.028320;1.030273;
980544;0.003906;0.019531;1.035156;
980658;1.600380;0.000000;0.000000;
980748;0.002930;0.021484;1.056641;
980858;0.003906;0.020508;1.080078;
980958;0.006836;0.017578;1.084961;
981058;0.005859;0.021484;1.113281;
981154;0.006836;0.015625;1.113281;
981254;0.002930;0.019531;1.118164;
981368;0.007812;0.017578;1.130859;
981468;0.004883;0.022461;1.132812;
981568;0.006836;0.015625;1.134766;
981668;0.006836;0.016602;1.129883;
981768;0.006836;0.017578;1.143555;
981864;0.005859;0.022461;1.129883;
981963;0.004883;0.022461;1.125977;
982074;0.002930;0.019531;1.117188;
982195;0.005859;0.021484;1.101562;
982315;0.005859;0.018555;1.100586;
982434;0.000977;0.021484;1.090820;
982553;1.600380;0.000000;0.000000;
982654;0.004883;0.023438;1.088867;
982784;1.600380;0.000000;0.000000;
982884;0.002930;0.019531;1.076172;
983014;0.003906;0.023438;1.077148;
983128;0.001953;0.024414;1.069336;
983228;0.001953;0.025391;1.075195;
983328;0.002930;0.019531;1.067383;
983428;0.003906;0.024414;1.078125;
983528;0.002930;0.021484;1.073242;
983635;0.003906;0.025391;1.075195;
983754;0.003906;0.027344;1.083984;
983858;0.000977;0.022461;1.064453;
983958;0.001953;0.025391;1.078125;
984058;0.004883;0.023438;1.069336;
984158;0.003906;0.024414;1.072266;
984258;0.002930;0.021484;1.063477;
984364;1.600380;0.000000;0.000000;
984464;0.001953;0.024414;1.069336;
984594;0.001953;0.023438;1.074219;
984694;0.001953;0.022461;1.062500;
984804;0.000977;0.021484;1.061523;
984924;0.003906;0.021484;1.079102;
985043;0.000977;0.021484;1.076172;
985165;0.003906;0.021484;1.063477;
985278;1.600380;0.000000;0.000000;
985368;0.004883;0.018555;1.079102;
985478;0.000977;0.020508;1.084961;
985578;0.001953;0.018555;1.092773;
985688;0.004883;0.017578;1.093750;
985788;0.003906;0.021484;1.087891;
985888;0.004883;0.019531;1.071289;
985988;0.003906;0.019531;1.055664;
986088;0.002930;0.023438;1.031250;
986184;-0.002930;0.017578;1.011719;
986298;-0.001953;0.021484;0.978516;
986398;-0.003906;0.021484;0.963867;
986498;-0.005859;0.020508;0.930664;
986598;-0.006836;0.023438;0.916992;
986704;-0.002930;0.022461;0.899414;
986823;-0.009766;0.022461;0.873047;
986928;1.600380;0.000000;0.000000;
987014;-0.008789;0.024414;0.843750;
987147;-0.011719;0.028320;0.837891;
987248;1.600380;0.000000;0.000000;
987338;-0.011719;0.023438;0.857422;
987464;-0.010742;0.020508;0.872070;
987584;-0.005859;0.020508;0.895508;
987704;-0.007812;0.024414;0.904297;
987816;-0.002930;0.022461;0.937500;
987938;-0.004883;0.022461;0.967773;
988038;-0.001953;0.022461;0.977539;
988138;0.001953;0.021484;1.009766;
988238;1.600380;0.000000;0.000000;
988328;0.000977;0.019531;1.037109;
988434;-0.000977;0.021484;1.035156;
988538;0.000000;0.021484;1.057617;
988638;0.000977;0.022461;1.059570;
988738;0.000000;0.025391;1.070312;
988838;1.600380;0.000000;0.000000;
988928;0.001953;0.019531;1.067383;
989034;0.000000;0.018555;1.069336;
989138;0.001953;0.018555;1.060547;
989238;0.001953;0.023438;1.071289;
989344;0.002930;0.019531;1.055664;
989454;0.001953;0.023438;1.049805;
989594;0.002930;0.023438;1.041992;
989705;0.005859;0.023438;1.043945;
989814;0.002930;0.023438;1.030273;
989915;0.003906;0.027344;1.029297;
990034;1.600380;0.000000;0.000000;
990133;0.001953;0.025391;1.026367;
990255;0.002930;0.026367;1.024414;
990368;0.000977;0.027344;1.041992;
990468;0.002930;0.027344;1.021484;
990568;0.000977;0.031250;1.041016;
990668;0.003906;0.029297;1.040039;
990768;0.000977;0.031250;1.048828;
990874;0.001953;0.030273;1.048828;
990988;0.002930;0.026367;1.061523;
991088;-0.000977;0.023438;1.047852;
991188;0.000977;0.021484;1.058594;
991288;0.003906;0.023438;1.061523;
991388;0.002930;0.024414;1.068359;
991498;-0.000977;0.020508;1.056641;
991594;0.000977;0.022461;1.056641;
991704;0.001953;0.021484;1.054688;
991824;-0.000977;0.021484;1.056641;
991944;0.002930;0.020508;1.051758;
992064;1.600380;0.000000;0.000000;
992154;0.002930;0.019531;1.054688;
992274;0.002930;0.019531;1.056641;
992374;0.001953;0.019531;1.052734;
992478;0.000000;0.019531;1.044922;
992578;0.000977;0.023438;1.046875;
992678;0.001953;0.016602;1.061523;
992788;0.000000;0.019531;1.059570;
992888;0.004883;0.019531;1.076172;
992988;0.000977;0.023438;1.089844;
993088;0.001953;0.021484;1.103516;
993188;0.001953;0.021484;1.115234;
993284;0.004883;0.024414;1.127930;
993388;0.002930;0.028320;1.135742;
993488;0.004883;0.027344;1.127930;
993588;0.003906;0.026367;1.126953;
993688;0.005859;0.020508;1.117188;
993788;1.600380;0.000000;0.000000;
993883;0.004883;0.025391;1.128906;
994004;1.600380;0.000000;0.000000;
994104;0.001953;0.027344;1.118164;
994234;0.002930;0.023438;1.119141;
994354;0.006836;0.027344;1.112305;
994474;0.004883;0.023438;1.098633;
994594;0.003906;0.027344;1.098633;
994708;1.600380;0.000000;0.000000;
994798;0.003906;0.023438;1.084961;
994908;0.001953;0.017578;1.052734;
995008;0.002930;0.019531;1.041992;
995104;-0.000977;0.018555;1.037109;
995208;0.000977;0.017578;1.022461;
995308;1.600380;0.000000;0.000000;
995398;-0.000977;0.022461;1.023438;
995508;-0.004883;0.020508;1.007812;
995608;-0.001953;0.014648;1.000977;
995718;0.000977;0.017578;1.005859;
995818;-0.001953;0.016602;0.990234;
995918;-0.001953;0.017578;0.994141;
996019;0.000000;0.022461;0.997070;
996114;0.000000;0.018555;0.979492;
996214;-0.001953;0.025391;0.995117;
996325;0.000000;0.022461;0.992188;
996434;-0.001953;0.022461;0.994141;
