Time;acc_x;acc_y;acc_z;

1572;-0.001953;0.019531;1.038086;
1713;-0.000977;0.018555;1.045898;
1853;0.000977;0.016602;1.063477;
1993;0.001953;0.018555;1.078125;
2133;0.000000;0.017578;1.067383;
2273;-0.001953;0.017578;1.084961;
2413;0.000977;0.017578;1.084961;
2553;0.002930;0.015625;1.084961;
2693;0.002930;0.020508;1.076172;
2833;0.000977;0.020508;1.062500;
2973;-0.000977;0.021484;1.047852;
3113;0.001953;0.016602;1.039062;
3253;-0.000977;0.020508;1.031250;
3393;-0.001953;0.022461;1.022461;
3533;-0.002930;0.022461;1.031250;
3673;0.000000;0.023438;1.039062;
3813;-0.002930;0.024414;1.039062;
3949;0.000000;0.029297;1.061523;
4099;0.000977;0.026367;1.061523;
4259;0.003906;0.024414;1.054688;
4423;0.002930;0.019531;1.036133;
4573;-0.002930;0.019531;1.021484;
4713;-0.002930;0.020508;1.008789;
4853;0.000977;0.017578;1.008789;
4993;-0.000977;0.015625;1.008789;
5133;0.000000;0.018555;0.995117;
5283;-0.005859;0.014648;0.998047;
5423;0.000000;0.017578;1.014648;
5563;-0.000977;0.014648;1.019531;
5713;-0.002930;0.014648;1.018555;
5853;-0.002930;0.017578;1.027344;
6003;0.001953;0.022461;1.044922;
6153;-0.000977;0.020508;1.044922;
6293;-0.000977;0.022461;1.060547;
6439;0.001953;0.021484;1.069336;
6600;-0.002930;0.022461;1.063477;
6759;0.000977;0.020508;1.077148;
6923;0.004883;0.022461;1.084961;
7064;0.000977;0.016602;1.082031;
7203;0.001953;0.017578;1.082031;
7343;0.000977;0.023438;1.078125;
7483;0.001953;0.023438;1.065430;
7623;0.002930;0.019531;1.065430;
7773;0.000000;0.018555;1.043945;
7913;-0.003906;0.022461;1.030273;
8063;-0.001953;0.025391;1.028320;
8204;0.000000;0.027344;1.020508;
8343;-0.000977;0.023438;1.018555;
8493;-0.001953;0.015625;1.011719;
8634;-0.002930;0.016602;1.002930;
8773;-0.002930;0.016602;1.017578;
8919;0.000000;0.021484;1.013672;
9079;0.000000;0.018555;1.016602;
9239;-0.002930;0.014648;1.005859;
9373;-0.000977;0.015625;1.015625;
9513;-0.000977;0.016602;1.012695;
9653;0.000000;0.015625;1.020508;
9803;-0.000977;0.019531;1.014648;
9943;-0.007812;0.020508;1.021484;
10083;0.000000;0.021484;1.022461;
10223;0.000000;0.021484;1.022461;
10363;-0.001953;0.026367;1.026367;
10503;-0.000977;0.019531;1.026367;
10643;-0.001953;0.021484;1.030273;
10783;0.000977;0.021484;1.029297;
10923;-0.000977;0.021484;1.025391;
11063;0.000000;0.021484;1.020508;
11203;-0.002930;0.021484;1.020508;
11339;0.000977;0.028320;1.031250;
11489;-0.000977;0.019531;1.019531;
11643;-0.000977;0.022461;1.014648;
11783;-0.000977;0.018555;1.022461;
11919;-0.000977;0.020508;1.028320;
12070;-0.003906;0.016602;1.005859;
12220;-0.001953;0.020508;1.012695;
12363;-0.001953;0.020508;1.017578;
12503;-0.001953;0.019531;1.013672;
12643;-0.002930;0.022461;1.023438;
12793;-0.000977;0.018555;1.008789;
12933;-0.000977;0.020508;1.017578;
13073;-0.004883;0.021484;1.010742;
13224;-0.002930;0.021484;1.021484;
13363;0.000977;0.020508;1.032227;
13513;-0.003906;0.019531;1.036133;
13653;0.000977;0.021484;1.054688;
13793;0.002930;0.021484;1.061523;
13943;0.003906;0.023438;1.068359;
14083;0.000000;0.023438;1.058594;
14224;-0.002930;0.019531;1.057617;
14360;0.000977;0.021484;1.062500;
14509;0.001953;0.019531;1.048828;
14669;0.000977;0.021484;1.046875;
14833;0.000977;0.020508;1.036133;
14973;0.000000;0.024414;1.022461;
15113;-0.001953;0.020508;1.026367;
15263;0.000000;0.018555;1.019531;
15403;-0.003906;0.022461;0.998047;
15543;-0.002930;0.020508;1.002930;
15683;-0.000977;0.019531;1.005859;
15823;0.000000;0.023438;1.004883;
15963;-0.004883;0.021484;1.002930;
16103;-0.003906;0.020508;0.999023;
16253;-0.000977;0.024414;1.006836;
16393;-0.000977;0.023438;1.022461;
16533;-0.000977;0.022461;1.020508;
16683;-0.000977;0.019531;1.020508;
16829;-0.001953;0.019531;1.030273;
16989;-0.000977;0.020508;1.032227;
17153;0.001953;0.016602;1.033203;
17291;0.000000;0.019531;1.034180;
17449;-0.001953;0.021484;1.034180;
17613;0.000000;0.019531;1.036133;
17753;-0.001953;0.022461;1.029297;
17893;-0.000977;0.018555;1.037109;
18033;-0.000977;0.023438;1.033203;
18173;-0.003906;0.020508;1.032227;
18313;0.002930;0.024414;1.034180;
18453;-0.000977;0.021484;1.040039;
18603;0.003906;0.024414;1.048828;
18743;0.000000;0.023438;1.036133;
18883;-0.002930;0.022461;1.028320;
19023;0.000977;0.021484;1.033203;
19163;0.002930;0.024414;1.032227;
19303;-0.002930;0.025391;1.026367;
19443;-0.002930;0.027344;1.016602;
19590;-0.002930;0.029297;1.008789;
19750;-0.002930;0.025391;1.011719;
19909;0.000000;0.026367;1.018555;
20053;-0.000977;0.025391;1.002930;
20193;-0.004883;0.025391;1.006836;
20329;-0.001953;0.023438;1.019531;
20483;0.000000;0.023438;1.011719;
20623;0.000000;0.016602;1.004883;
20763;-0.001953;0.021484;1.006836;
20903;-0.000977;0.021484;1.008789;
21043;0.000000;0.023438;1.029297;
21183;-0.002930;0.021484;1.022461;
21323;0.002930;0.022461;1.031250;
21463;0.000000;0.019531;1.043945;
21603;0.001953;0.014648;1.048828;
21743;0.001953;0.017578;1.069336;
21893;0.002930;0.021484;1.079102;
22033;0.001953;0.018555;1.084961;
22173;0.001953;0.014648;1.095703;
22313;0.003906;0.021484;1.091797;
22449;0.000000;0.017578;1.086914;
22591;0.003906;0.016602;1.087891;
22739;0.002930;0.018555;1.076172;
22889;0.004883;0.014648;1.070312;
23049;0.001953;0.019531;1.056641;
23213;-0.000977;0.020508;1.040039;
23353;0.001953;0.020508;1.036133;
23493;-0.000977;0.019531;1.035156;
23643;-0.000977;0.023438;1.032227;
23783;-0.000977;0.022461;1.027344;
23923;-0.000977;0.025391;1.016602;
24063;-0.002930;0.025391;1.025391;
24203;-0.001953;0.019531;1.016602;
24343;0.000000;0.024414;1.009766;
24483;-0.000977;0.021484;1.012695;
24623;-0.002930;0.021484;1.013672;
24763;-0.000977;0.020508;1.023438;
24903;0.001953;0.017578;1.019531;
25043;-0.001953;0.023438;1.021484;
25189;0.000000;0.020508;1.026367;
25333;-0.000977;0.022461;1.030273;
25469;-0.000977;0.021484;1.035156;
25609;-0.000977;0.020508;1.032227;
25739;0.000000;0.024414;1.046875;
25893;-0.000977;0.025391;1.043945;
26034;0.001953;0.022461;1.031250;
26183;0.000000;0.024414;1.033203;
26323;-0.003906;0.016602;1.025391;
26463;0.000977;0.022461;1.033203;
26603;0.000977;0.020508;1.038086;
26743;-0.001953;0.021484;1.023438;
26883;-0.000977;0.019531;1.019531;
27023;-0.000977;0.020508;1.017578;
27163;0.001953;0.022461;1.027344;
27303;0.000977;0.021484;1.020508;
27453;-0.002930;0.019531;1.021484;
27593;-0.002930;0.022461;1.016602;
27733;0.000000;0.019531;1.013672;
27869;0.000000;0.021484;1.012695;
28013;-0.002930;0.020508;1.010742;
28153;0.000000;0.023438;1.014648;
28289;0.000977;0.021484;1.021484;
28439;-0.003906;0.018555;1.016602;
28600;-0.001953;0.021484;1.008789;
28743;-0.002930;0.021484;1.010742;
28884;-0.001953;0.018555;1.017578;
29023;-0.000977;0.015625;1.017578;
29163;-0.003906;0.018555;1.015625;
29303;-0.003906;0.017578;1.000000;
29443;-0.002930;0.022461;1.016602;
29583;0.004883;0.021484;1.018555;
29723;-0.003906;0.020508;1.014648;
29863;-0.002930;0.021484;1.024414;
30003;-0.002930;0.018555;1.026367;
30143;-0.001953;0.023438;1.026367;
30283;-0.000977;0.018555;1.016602;
30423;-0.005859;0.019531;1.008789;
30563;-0.000977;0.020508;1.020508;
30699;0.000000;0.020508;1.018555;
30843;-0.000977;0.022461;1.014648;
30983;0.000000;0.020508;1.012695;
31120;0.002930;0.023438;1.017578;
31283;0.000977;0.018555;1.013672;
31423;-0.003906;0.020508;1.018555;
31559;-0.002930;0.022461;1.014648;
31719;-0.001953;0.016602;1.015625;
31883;0.000977;0.024414;1.017578;
32033;0.000000;0.017578;1.023438;
32173;0.000977;0.019531;1.027344;
32313;-0.002930;0.017578;1.024414;
32463;0.000977;0.021484;1.028320;
32603;0.000000;0.020508;1.026367;
32743;-0.000977;0.024414;1.029297;
32883;-0.001953;0.022461;1.023438;
33023;0.000000;0.023438;1.025391;
33163;-0.000977;0.021484;1.026367;
33303;0.000977;0.019531;1.028320;
33443;-0.000977;0.024414;1.023438;
33583;-0.000977;0.022461;1.018555;
33723;-0.000977;0.020508;1.021484;
33869;0.000000;0.018555;1.017578;
34031;0.000000;0.020508;1.023438;
34189;-0.002930;0.022461;1.016602;
34353;-0.004883;0.019531;1.018555;
34493;-0.001953;0.023438;1.017578;
34633;-0.002930;0.025391;1.017578;
34773;0.002930;0.022461;1.010742;
34913;-0.000977;0.021484;1.012695;
35053;-0.002930;0.020508;1.003906;
35193;-0.000977;0.020508;1.014648;
35333;-0.001953;0.015625;1.016602;
35473;0.000000;0.017578;1.006836;
35613;0.001953;0.019531;1.025391;
35763;-0.004883;0.019531;1.035156;
35899;0.002930;0.023438;1.056641;
36053;0.004883;0.020508;1.060547;
36193;0.001953;0.019531;1.051758;
36339;-0.000977;0.020508;1.044922;
36499;0.001953;0.026367;1.066406;
36659;-0.001953;0.023438;1.062500;
36809;0.001953;0.024414;1.059570;
36963;0.002930;0.022461;1.058594;
37103;0.000000;0.020508;1.040039;
37243;0.000000;0.026367;1.041016;
37389;-0.000977;0.023438;1.041992;
37553;0.002930;0.022461;1.024414;
37693;0.000977;0.020508;1.014648;
37833;-0.002930;0.022461;1.018555;
37969;-0.002930;0.024414;1.013672;
38113;-0.000977;0.026367;1.022461;
38253;0.000977;0.019531;1.012695;
38393;-0.002930;0.019531;1.018555;
38535;-0.002930;0.022461;1.020508;
38693;0.000000;0.024414;1.028320;
38831;-0.000977;0.022461;1.032227;
38981;-0.001953;0.022461;1.015625;
39130;-0.002930;0.023438;1.023438;
39289;0.000977;0.026367;1.035156;
39453;-0.000977;0.021484;1.040039;
39593;0.000000;0.019531;1.033203;
39733;-0.002930;0.022461;1.028320;
39869;-0.000977;0.023438;1.021484;
40033;-0.002930;0.021484;1.026367;
40173;0.002930;0.014648;1.037109;
40313;0.002930;0.020508;1.039062;
40453;-0.000977;0.020508;1.034180;
40603;-0.000977;0.018555;1.028320;
40743;-0.001953;0.025391;1.026367;
40883;0.001953;0.017578;1.036133;
41023;0.000977;0.023438;1.029297;
41173;-0.000977;0.026367;1.035156;
41313;-0.000977;0.024414;1.027344;
41460;0.000977;0.023438;1.033203;
41619;0.000000;0.020508;1.036133;
41779;0.000000;0.019531;1.021484;
41940;0.000000;0.020508;1.018555;
42093;0.000000;0.020508;1.028320;
42233;0.001953;0.020508;1.027344;
42373;-0.001953;0.020508;1.033203;
42519;-0.002930;0.023438;1.022461;
42673;-0.002930;0.020508;1.028320;
42813;-0.004883;0.021484;1.018555;
42953;0.000000;0.021484;1.033203;
43093;0.000977;0.019531;1.033203;
43219;-0.002930;0.016602;1.021484;
43363;-0.001953;0.017578;1.025391;
43503;0.000000;0.019531;1.032227;
43643;0.000000;0.020508;1.040039;
43779;-0.000977;0.020508;1.032227;
43923;-0.002930;0.024414;1.023438;
44069;0.000000;0.020508;1.028320;
44229;0.001953;0.019531;1.024414;
44390;0.000000;0.019531;1.020508;
44529;-0.002930;0.021484;1.024414;
44678;0.000000;0.023438;1.027344;
44829;-0.001953;0.024414;1.031250;
44973;0.000000;0.025391;1.038086;
45113;0.003906;0.021484;1.031250;
45249;0.003906;0.018555;1.025391;
45403;0.001953;0.019531;1.027344;
45543;0.008789;0.023438;1.038086;
45683;0.006836;0.020508;1.034180;
45820;0.010742;0.020508;1.046875;
45973;0.016602;0.020508;1.031250;
46113;0.018555;0.016602;1.035156;
46253;0.022461;0.018555;1.041016;
46390;0.030273;0.018555;1.049805;
46553;0.036133;0.016602;1.048828;
46693;0.039062;0.013672;1.049805;
46833;0.041992;0.019531;1.073242;
46999;0.047852;0.013672;1.069336;
47149;0.052734;0.019531;1.077148;
47309;0.052734;0.015625;1.059570;
47469;0.051758;0.019531;1.036133;
47613;0.055664;0.019531;1.018555;
47753;0.055664;0.019531;0.985352;
47893;0.061523;0.021484;0.954102;
48029;0.058594;0.018555;0.939453;
48183;0.068359;0.020508;0.930664;
48323;0.074219;0.012695;0.937500;
48463;0.083984;0.024414;0.958008;
48600;0.088867;0.019531;0.976562;
48743;0.093750;0.022461;0.993164;
48883;0.093750;0.022461;1.015625;
49023;0.096680;0.022461;1.024414;
49163;0.103516;0.022461;1.043945;
49303;0.098633;0.016602;1.056641;
49443;0.103516;0.020508;1.063477;
49599;0.105469;0.030273;1.073242;
49749;0.102539;0.022461;1.071289;
49900;0.105469;0.030273;1.078125;
50039;0.102539;0.023438;1.052734;
50193;0.101562;0.026367;1.042969;
50333;0.103516;0.019531;1.033203;
50473;0.097656;0.029297;1.025391;
50613;0.095703;0.026367;1.014648;
50753;0.095703;0.017578;0.999023;
50893;0.098633;0.023438;1.008789;
51033;0.097656;0.020508;1.009766;
51173;0.097656;0.016602;1.002930;
51313;0.095703;0.016602;1.011719;
51453;0.094727;0.016602;1.012695;
51593;0.098633;0.019531;1.034180;
51734;0.097656;0.019531;1.027344;
51873;0.096680;0.015625;1.033203;
52023;0.100586;0.019531;1.038086;
52159;0.096680;0.020508;1.048828;
52309;0.101562;0.018555;1.039062;
52459;0.098633;0.019531;1.038086;
52609;0.096680;0.023438;1.024414;
52753;0.097656;0.021484;1.040039;
52893;0.097656;0.022461;1.013672;
53033;0.093750;0.023438;1.020508;
53173;0.093750;0.021484;0.993164;
53313;0.094727;0.021484;0.998047;
53453;0.092773;0.028320;0.996094;
53593;0.094727;0.019531;1.004883;
53733;0.092773;0.018555;0.991211;
53873;0.093750;0.022461;0.990234;
54023;0.094727;0.022461;0.985352;
54163;0.091797;0.015625;0.984375;
54303;0.090820;0.022461;0.997070;
54453;0.093750;0.020508;1.008789;
54593;0.092773;0.016602;0.991211;
54729;0.090820;0.014648;1.003906;
54880;0.087891;0.016602;1.000977;
55019;0.091797;0.014648;0.989258;
55163;0.090820;0.017578;1.000977;
55299;0.090820;0.016602;0.996094;
55449;0.090820;0.016602;1.008789;
55603;0.091797;0.016602;1.020508;
55743;0.089844;0.014648;1.045898;
55883;0.091797;0.020508;1.074219;
56033;0.091797;0.025391;1.086914;
56173;0.096680;0.024414;1.088867;
56313;0.094727;0.019531;1.102539;
56453;0.094727;0.017578;1.089844;
56593;0.090820;0.017578;1.072266;
56733;0.093750;0.020508;1.070312;
56873;0.088867;0.014648;1.070312;
57013;0.088867;0.019531;1.049805;
57153;0.087891;0.007812;1.040039;
57293;0.090820;0.017578;1.046875;
57443;0.087891;0.019531;1.038086;
57579;0.087891;0.025391;1.037109;
57709;0.093750;0.021484;1.033203;
57850;0.088867;0.022461;1.028320;
58000;0.092773;0.022461;1.048828;
58153;0.090820;0.019531;1.044922;
58293;0.090820;0.018555;1.039062;
58433;0.089844;0.022461;1.058594;
58583;0.089844;0.016602;1.059570;
58723;0.090820;0.016602;1.076172;
58863;0.088867;0.015625;1.080078;
59003;0.087891;0.016602;1.080078;
59143;0.087891;0.014648;1.087891;
59283;0.090820;0.023438;1.093750;
59423;0.085938;0.022461;1.088867;
59563;0.089844;0.026367;1.083008;
59703;0.087891;0.029297;1.071289;
59843;0.088867;0.015625;1.068359;
59983;0.087891;0.016602;1.046875;
60129;0.083984;0.014648;1.060547;
60279;0.083008;0.020508;1.060547;
60433;0.085938;0.014648;1.047852;
60569;0.087891;0.021484;1.050781;
60719;0.086914;0.020508;1.044922;
60873;0.085938;0.020508;1.051758;
61023;0.084961;0.020508;1.042969;
61164;0.084961;0.022461;1.042969;
61303;0.085938;0.018555;1.033203;
61443;0.083008;0.018555;1.026367;
61583;0.083984;0.019531;1.025391;
61733;0.082031;0.020508;1.016602;
61873;0.083008;0.017578;1.033203;
62013;0.086914;0.020508;1.034180;
62163;0.086914;0.016602;1.024414;
62304;0.083008;0.020508;1.026367;
62443;0.084961;0.017578;1.039062;
62593;0.083984;0.021484;1.037109;
62734;0.083008;0.026367;1.033203;
62869;0.080078;0.015625;1.029297;
63019;0.083984;0.016602;1.027344;
63169;0.083008;0.022461;1.002930;
63323;0.080078;0.017578;0.981445;
63473;0.079102;0.022461;0.964844;
63613;0.077148;0.023438;0.947266;
63753;0.078125;0.023438;0.933594;
63893;0.083008;0.022461;0.913086;
64033;0.079102;0.023438;0.910156;
64183;0.077148;0.020508;0.897461;
64323;0.078125;0.019531;0.900391;
64463;0.073242;0.016602;0.909180;
64603;0.076172;0.022461;0.930664;
64743;0.078125;0.020508;0.939453;
64883;0.081055;0.018555;0.961914;
65023;0.077148;0.019531;0.977539;
65163;0.077148;0.020508;0.988281;
65308;0.082031;0.021484;1.016602;
65459;0.081055;0.018555;1.017578;
65603;0.080078;0.021484;1.032227;
65739;0.083008;0.012695;1.035156;
65870;0.082031;0.021484;1.055664;
66028;0.081055;0.017578;1.066406;
66183;0.083984;0.019531;1.101562;
66323;0.079102;0.024414;1.134766;
66463;0.083984;0.018555;1.190430;
66603;0.084961;0.016602;1.236328;
66743;0.086914;0.015625;1.297852;
66883;0.093750;0.022461;1.339844;
67023;0.100586;0.020508;1.416992;
67173;0.102539;0.021484;1.473633;
67313;0.103516;0.018555;1.541992;
67453;0.106445;0.017578;1.608398;
67603;0.110352;0.009766;1.641602;
67743;0.115234;0.013672;1.703125;
67893;0.116211;0.019531;1.738281;
68033;0.120117;0.018555;1.760742;
68159;0.118164;0.017578;1.790039;
68290;0.125000;0.022461;1.808594;
68439;0.122070;0.010742;1.826172;
68589;0.124023;0.014648;1.855469;
68743;0.125977;0.014648;1.863281;
68893;0.127930;0.011719;1.877930;
69033;0.127930;0.014648;1.868164;
69173;0.129883;0.013672;1.891602;
69323;0.126953;0.008789;1.890625;
69463;0.125000;0.005859;1.887695;
69603;0.129883;0.006836;1.904297;
69743;0.131836;0.006836;1.898438;
69883;0.130859;0.013672;1.901367;
70033;0.132812;0.007812;1.902344;
70173;0.132812;0.009766;1.916992;
70313;0.133789;0.005859;1.907227;
70453;0.130859;0.008789;1.903320;
70593;0.130859;0.005859;1.900391;
70729;0.129883;0.003906;1.879883;
70869;0.128906;0.007812;1.886719;
71009;0.130859;0.013672;1.888672;
71150;0.126953;0.011719;1.877930;
71309;0.131836;0.017578;1.883789;
71458;0.131836;0.015625;1.880859;
71603;0.131836;0.017578;1.852539;
71743;0.129883;0.017578;1.874023;
71883;0.130859;0.020508;1.870117;
72023;0.132812;0.028320;1.862305;
72163;0.133789;0.016602;1.851562;
72303;0.130859;0.022461;1.854492;
72453;0.127930;0.035156;1.847656;
72593;0.131836;0.024414;1.843750;
72733;0.128906;0.001953;1.828125;
72873;0.130859;0.015625;1.836914;
73013;0.132812;0.016602;1.839844;
73153;0.127930;0.014648;1.837891;
73303;0.131836;0.005859;1.828125;
73443;0.133789;0.001953;1.843750;
73579;0.134766;0.008789;1.845703;
73739;0.132812;0.013672;1.830078;
73889;0.131836;0.000977;1.843750;
74043;0.135742;0.007812;1.852539;
74183;0.133789;0.010742;1.837891;
74323;0.135742;0.026367;1.843750;
74463;0.133789;0.010742;1.837891;
74603;0.136719;0.017578;1.836914;
74743;0.142578;0.014648;1.853516;
74883;0.133789;0.020508;1.835938;
75023;0.139648;0.014648;1.835938;
75163;0.136719;0.022461;1.831055;
75303;0.138672;0.016602;1.849609;
75453;0.142578;0.015625;1.855469;
75593;0.139648;0.013672;1.833984;
75733;0.141602;0.015625;1.848633;
75873;0.143555;0.011719;1.852539;
76013;0.144531;0.013672;1.860352;
76149;0.146484;0.013672;1.869141;
76299;0.145508;0.012695;1.874023;
76449;0.148438;0.013672;1.870117;
76609;0.147461;0.022461;1.871094;
76753;0.147461;0.018555;1.873047;
76893;0.146484;0.009766;1.857422;
77033;0.153320;0.003906;1.858398;
77183;0.151367;-0.001953;1.865234;
77323;0.152344;-0.005859;1.860352;
77463;0.152344;-0.010742;1.853516;
77603;0.152344;-0.017578;1.851562;
77753;0.153320;-0.015625;1.848633;
77893;0.149414;-0.005859;1.830078;
78033;0.153320;0.006836;1.835938;
78173;0.151367;0.008789;1.805664;
78313;0.151367;0.014648;1.805664;
78453;0.152344;0.016602;1.795898;
78593;0.153320;0.025391;1.796875;
78739;0.151367;0.019531;1.791992;
78889;0.155273;0.021484;1.804688;
79040;0.155273;0.022461;1.800781;
79189;0.161133;0.020508;1.809570;
79333;0.158203;0.013672;1.810547;
79473;0.162109;0.013672;1.820312;
79613;0.168945;0.014648;1.835938;
79753;0.166992;0.011719;1.846680;
79893;0.170898;0.012695;1.852539;
80033;0.175781;0.006836;1.865234;
80173;0.172852;0.002930;1.854492;
80313;0.179688;0.000977;1.873047;
80453;0.179688;0.005859;1.897461;
80603;0.182617;0.004883;1.888672;
80743;0.182617;0.011719;1.873047;
80883;0.181641;0.015625;1.868164;
81023;0.183594;0.016602;1.872070;
81163;0.183594;0.022461;1.869141;
81299;0.185547;0.026367;1.877930;
81449;0.184570;0.022461;1.878906;
81599;0.186523;0.020508;1.885742;
81749;0.189453;0.014648;1.875977;
81883;0.190430;0.013672;1.890625;
82023;0.187500;0.007812;1.875000;
82163;0.193359;0.005859;1.894531;
82303;0.193359;0.000977;1.894531;
82443;0.200195;0.000977;1.917969;
82583;0.198242;0.004883;1.913086;
82723;0.202148;0.004883;1.923828;
82863;0.202148;0.002930;1.920898;
83003;0.199219;0.001953;1.914062;
83143;0.208008;0.000977;1.926758;
83283;0.204102;0.004883;1.906250;
83433;0.204102;0.009766;1.925781;
83573;0.205078;0.010742;1.911133;
83713;0.205078;0.005859;1.875977;
83859;0.204102;0.007812;1.850586;
84009;0.207031;0.011719;1.843750;
84159;0.200195;0.014648;1.851562;
84319;0.203125;0.013672;1.843750;
84463;0.203125;0.014648;1.816406;
84599;0.201172;0.018555;1.789062;
84739;0.201172;0.018555;1.785156;
84883;0.198242;0.021484;1.759766;
85023;0.193359;0.016602;1.735352;
85163;0.187500;0.026367;1.701172;
85303;0.179688;0.016602;1.667969;
85453;0.171875;0.021484;1.625000;
85593;0.161133;0.024414;1.590820;
85734;0.152344;0.022461;1.563477;
85873;0.140625;0.022461;1.530273;
86013;0.134766;0.030273;1.507812;
86153;0.129883;0.024414;1.480469;
86293;0.121094;0.023438;1.470703;
86433;0.111328;0.025391;1.439453;
86573;0.106445;0.023438;1.425781;
86713;0.103516;0.019531;1.395508;
86849;0.102539;0.024414;1.395508;
86989;0.096680;0.019531;1.361328;
87129;0.092773;0.016602;1.364258;
87273;0.095703;0.018555;1.361328;
87410;0.092773;0.007812;1.333984;
87559;0.085938;0.008789;1.296875;
87709;0.077148;0.011719;1.236328;
87863;0.063477;0.011719;1.151367;
88003;0.058594;0.010742;1.076172;
88143;0.041992;0.012695;0.958984;
88283;0.032227;0.011719;0.867188;
88423;0.018555;0.010742;0.748047;
88563;0.016602;0.013672;0.613281;
88713;0.011719;0.017578;0.527344;
88853;-0.001953;0.015625;0.432617;
88993;-0.002930;0.020508;0.367188;
89133;-0.004883;0.022461;0.265625;
89273;-0.007812;0.024414;0.211914;
89413;-0.002930;0.026367;0.170898;
89553;-0.005859;0.027344;0.125000;
89693;-0.002930;0.026367;0.098633;
89829;-0.009766;0.033203;0.058594;
89979;-0.006836;0.031250;0.055664;
90119;-0.006836;0.031250;0.057617;
90269;-0.005859;0.031250;0.037109;
90423;-0.005859;0.036133;0.037109;
90573;-0.009766;0.035156;0.015625;
90713;-0.007812;0.031250;0.017578;
90893;-0.006836;0.035156;0.013672;
91093;-0.007812;0.034180;0.041016;
91243;-0.008789;0.034180;0.050781;
91393;-0.012695;0.036133;0.049805;
91533;-0.011719;0.033203;0.069336;
91673;-0.011719;0.036133;0.073242;
91823;-0.011719;0.038086;0.081055;
91963;-0.014648;0.040039;0.076172;
92093;-0.013672;0.041992;0.085938;
92233;-0.014648;0.041016;0.068359;
92373;-0.009766;0.041992;0.076172;
92515;-0.018555;0.042969;0.068359;
92850;-0.013672;0.041016;0.073242;
93029;-0.014648;0.039062;0.054688;
93190;-0.013672;0.039062;0.051758;
93343;-0.012695;0.040039;0.051758;
93483;-0.011719;0.037109;0.043945;
93623;-0.015625;0.036133;0.030273;
93763;-0.013672;0.035156;0.020508;
93903;-0.010742;0.033203;0.017578;
94043;-0.010742;0.040039;0.019531;
94183;-0.013672;0.040039;0.006836;
94323;-0.015625;0.038086;0.002930;
94463;-0.015625;0.034180;0.003906;
94603;-0.011719;0.036133;0.000977;
94743;-0.010742;0.031250;0.010742;
94883;-0.012695;0.033203;0.015625;
95023;-0.012695;0.032227;0.013672;
95163;-0.015625;0.032227;0.018555;
95300;-0.015625;0.029297;0.021484;
95449;-0.016602;0.031250;0.016602;
95599;-0.014648;0.030273;0.030273;
95749;-0.015625;0.027344;0.026367;
95889;-0.015625;0.028320;0.034180;
96033;-0.014648;0.027344;0.042969;
96173;-0.016602;0.027344;0.033203;
96323;-0.014648;0.029297;0.038086;
96463;-0.014648;0.022461;0.046875;
96603;-0.014648;0.023438;0.040039;
96743;-0.014648;0.027344;0.038086;
96883;-0.016602;0.030273;0.034180;
97023;-0.018555;0.028320;0.032227;
97163;-0.018555;0.027344;0.038086;
97303;-0.014648;0.028320;0.037109;
97443;-0.016602;0.024414;0.033203;
97583;-0.017578;0.025391;0.040039;
97723;-0.017578;0.023438;0.025391;
97873;-0.014648;0.024414;0.028320;
98009;-0.016602;0.025391;0.025391;
98159;-0.015625;0.025391;0.032227;
98309;-0.016602;0.026367;0.024414;
98440;-0.015625;0.019531;0.024414;
98589;-0.016602;0.022461;0.021484;
98743;-0.017578;0.025391;0.011719;
98883;-0.014648;0.023438;0.015625;
99023;-0.016602;0.020508;0.007812;
99163;-0.016602;0.024414;0.012695;
99303;-0.014648;0.021484;0.003906;
99443;-0.017578;0.018555;0.011719;
99583;-0.015625;0.020508;0.007812;
99733;-0.017578;0.017578;0.001953;
99873;-0.015625;0.017578;0.000000;
100013;-0.015625;0.018555;0.003906;
100163;-0.015625;0.017578;0.002930;
100303;-0.016602;0.019531;0.011719;
100443;-0.016602;0.022461;0.004883;
100583;-0.018555;0.022461;0.002930;
100723;-0.017578;0.019531;0.007812;
100859;-0.016602;0.017578;0.003906;
101010;-0.014648;0.018555;0.006836;
101159;-0.018555;0.015625;-0.005859;
101309;-0.018555;0.019531;-0.002930;
101459;-0.017578;0.019531;0.003906;
101613;-0.017578;0.020508;0.000000;
101763;-0.016602;0.021484;0.001953;
101903;-0.019531;0.015625;-0.001953;
102044;-0.018555;0.021484;0.005859;
102193;-0.020508;0.018555;0.007812;
102333;-0.020508;0.013672;-0.008789;
102484;-0.020508;0.017578;0.010742;
102623;-0.020508;0.015625;0.011719;
102764;-0.017578;0.016602;0.007812;
102903;-0.019531;0.017578;0.006836;
103043;-0.011719;0.019531;0.035156;
103183;-0.024414;0.018555;0.004883;
103323;-0.026367;0.020508;0.002930;
103463;-0.022461;0.017578;0.011719;
103610;-0.022461;0.020508;0.008789;
103769;-0.023438;0.018555;0.002930;
103919;-0.023438;0.018555;0.002930;
104073;-0.022461;0.019531;0.000000;
104213;-0.022461;0.020508;-0.001953;
104353;-0.023438;0.017578;0.003906;
104493;-0.022461;0.019531;0.008789;
104633;-0.020508;0.020508;0.003906;
104773;-0.021484;0.018555;0.001953;
104913;-0.022461;0.016602;0.002930;
105049;-0.021484;0.021484;0.009766;
105203;-0.023438;0.020508;0.005859;
105343;-0.023438;0.020508;0.003906;
105483;-0.022461;0.020508;0.004883;
105625;-0.023438;0.021484;0.007812;
105763;-0.023438;0.021484;0.014648;
105903;-0.021484;0.023438;0.010742;
106043;-0.025391;0.021484;0.021484;
106179;-0.024414;0.022461;0.019531;
106399;-0.024414;0.022461;0.015625;
106633;-0.027344;0.022461;0.013672;
106853;-0.023438;0.018555;0.017578;
107073;-0.028320;0.021484;0.022461;
107293;-0.035156;0.017578;0.000977;
107513;-0.027344;0.020508;0.025391;
107723;-0.025391;0.021484;0.021484;
107933;-0.026367;0.020508;0.028320;
108153;-0.028320;0.021484;0.015625;
108373;-0.029297;0.020508;0.008789;
108593;-0.028320;0.019531;0.024414;
108803;-0.029297;0.019531;0.007812;
109013;-0.033203;0.018555;-0.001953;
109223;-0.030273;0.022461;-0.002930;
109443;-0.033203;0.012695;0.001953;
109659;-0.033203;0.014648;0.003906;
109889;-0.030273;0.014648;-0.003906;
110129;-0.031250;0.015625;0.004883;
110363;-0.033203;0.012695;-0.000977;
110573;-0.034180;0.009766;0.005859;
110779;-0.034180;0.010742;0.000977;
111003;-0.037109;0.006836;-0.013672;
111223;-0.035156;0.008789;0.002930;
111443;-0.034180;0.004883;0.002930;
111653;-0.037109;0.003906;-0.007812;
111869;-0.035156;0.005859;-0.000977;
112093;-0.038086;0.009766;0.010742;
112313;-0.040039;0.006836;-0.008789;
112533;-0.040039;0.008789;0.004883;
112753;-0.044922;0.008789;-0.001953;
112963;-0.046875;0.011719;0.006836;
113183;-0.052734;0.014648;0.066406;
113389;-0.049805;0.010742;0.149414;
113619;-0.044922;0.015625;0.300781;
113853;-0.038086;0.016602;0.493164;
114059;-0.028320;0.017578;0.634766;
114283;-0.017578;0.014648;0.810547;
114503;-0.009766;0.021484;0.924805;
114723;-0.003906;0.024414;1.061523;
114933;0.007812;0.030273;1.153320;
115153;0.013672;0.025391;1.242188;
115363;0.025391;0.032227;1.338867;
115584;0.033203;0.036133;1.416992;
115793;0.042969;0.037109;1.465820;
116003;0.050781;0.035156;1.551758;
116223;0.048828;0.030273;1.590820;
116443;0.050781;0.027344;1.628906;
116653;0.044922;0.024414;1.638672;
116868;0.045898;0.010742;1.675781;
117080;0.049805;0.023438;1.698242;
117311;0.046875;0.022461;1.694336;
117553;0.041016;0.007812;1.661133;
117773;0.045898;0.023438;1.674805;
117983;0.033203;0.016602;1.661133;
118193;0.037109;0.018555;1.650391;
118413;0.035156;0.027344;1.654297;
118623;0.030273;0.022461;1.666016;
118843;0.037109;0.019531;1.686523;
119053;0.033203;0.028320;1.703125;
119263;0.036133;0.029297;1.753906;
119483;0.035156;0.024414;1.784180;
119693;0.035156;0.025391;1.824219;
119913;0.038086;0.027344;1.834961;
120133;0.037109;0.018555;1.859375;
120343;0.039062;0.023438;1.861328;
120559;0.040039;0.023438;1.871094;
120789;0.036133;0.018555;1.858398;
121018;0.032227;0.020508;1.861328;
121243;0.030273;0.020508;1.855469;
121453;0.028320;0.020508;1.838867;
121663;0.023438;0.015625;1.842773;
121883;0.024414;0.019531;1.853516;
122103;0.025391;0.023438;1.875000;
122313;0.027344;0.020508;1.896484;
122523;0.025391;0.019531;1.916992;
122733;0.030273;0.022461;1.951172;
122953;0.028320;0.010742;1.943359;
123173;0.026367;0.010742;1.958984;
123393;0.027344;0.000977;1.969727;
123613;0.022461;0.011719;1.955078;
123823;0.018555;0.007812;1.945312;
124033;0.016602;0.018555;1.943359;
124249;0.013672;0.019531;1.934570;
124470;0.008789;0.030273;1.920898;
124713;0.003906;0.029297;1.902344;
124933;0.003906;0.026367;1.896484;
125143;-0.000977;0.023438;1.886719;
125363;0.001953;0.018555;1.893555;
125583;-0.001953;0.014648;1.887695;
125803;-0.000977;0.012695;1.896484;
126023;-0.001953;0.014648;1.911133;
126243;-0.005859;0.008789;1.919922;
126463;-0.006836;0.009766;1.911133;
126683;-0.005859;0.010742;1.921875;
126893;-0.005859;0.012695;1.929688;
127113;-0.007812;0.014648;1.929688;
127323;-0.008789;0.025391;1.928711;
127533;-0.011719;0.032227;1.928711;
127749;-0.011719;0.035156;1.929688;
127979;-0.012695;0.035156;1.926758;
128209;-0.014648;0.035156;1.920898;
128414;-0.014648;0.032227;1.916016;
128633;-0.016602;0.031250;1.906250;
128843;-0.015625;0.017578;1.907227;
129063;-0.016602;0.013672;1.903320;
129273;-0.015625;0.005859;1.898438;
129493;-0.012695;0.003906;1.896484;
129703;-0.013672;0.004883;1.886719;
129913;-0.019531;0.008789;1.846680;
130133;-0.024414;0.014648;1.805664;
130343;-0.030273;0.018555;1.749023;
130563;-0.033203;0.017578;1.705078;
130773;-0.039062;0.021484;1.660156;
130993;-0.042969;0.019531;1.604492;
131214;-0.045898;0.019531;1.579102;
131429;-0.048828;0.018555;1.559570;
131671;-0.050781;0.017578;1.535156;
131913;-0.051758;0.013672;1.499023;
132123;-0.054688;0.016602;1.484375;
132343;-0.056641;0.021484;1.461914;
132563;-0.057617;0.019531;1.436523;
132783;-0.061523;0.026367;1.402344;
132993;-0.063477;0.016602;1.389648;
133203;-0.062500;0.022461;1.370117;
133423;-0.066406;0.017578;1.323242;
133633;-0.069336;0.015625;1.286133;
133853;-0.074219;0.018555;1.220703;
134073;-0.077148;0.024414;1.166992;
134283;-0.083008;0.021484;1.106445;
134503;-0.083984;0.016602;1.072266;
134713;-0.085938;0.021484;1.069336;
134929;-0.081055;0.022461;1.083008;
135139;-0.078125;0.025391;1.106445;
135369;-0.079102;0.023438;1.134766;
135613;-0.081055;0.021484;1.166016;
135823;-0.075195;0.030273;1.176758;
136033;-0.076172;0.021484;1.203125;
136253;-0.076172;0.024414;1.193359;
136463;-0.078125;0.026367;1.174805;
136683;-0.076172;0.030273;1.139648;
136893;-0.083008;0.028320;1.103516;
137113;-0.084961;0.024414;1.022461;
137333;-0.085938;0.023438;0.997070;
137553;-0.085938;0.011719;0.993164;
137763;-0.086914;0.014648;0.998047;
137983;-0.083984;0.019531;1.045898;
138203;-0.083008;0.022461;1.077148;
138423;-0.077148;0.014648;1.164062;
138639;-0.073242;0.017578;1.220703;
138869;-0.067383;0.022461;1.294922;
139113;-0.063477;0.018555;1.359375;
139323;-0.061523;0.014648;1.402344;
139543;-0.058594;0.020508;1.434570;
139753;-0.057617;0.020508;1.452148;
139973;-0.055664;0.018555;1.453125;
140193;-0.052734;0.019531;1.471680;
140413;-0.053711;0.023438;1.487305;
140623;-0.053711;0.016602;1.485352;
140833;-0.051758;0.024414;1.500977;
141043;-0.048828;0.021484;1.501953;
141263;-0.049805;0.015625;1.487305;
141473;-0.053711;0.022461;1.462891;
141693;-0.058594;0.019531;1.393555;
141899;-0.063477;0.024414;1.346680;
142129;-0.067383;0.021484;1.282227;
142349;-0.070312;0.019531;1.211914;
142593;-0.075195;0.021484;1.149414;
142803;-0.072266;0.024414;1.116211;
143023;-0.077148;0.026367;1.080078;
143243;-0.080078;0.022461;1.058594;
143463;-0.080078;0.023438;1.043945;
143683;-0.081055;0.022461;1.032227;
143893;-0.081055;0.023438;1.032227;
144113;-0.079102;0.023438;1.046875;
144323;-0.080078;0.017578;1.064453;
144533;-0.078125;0.022461;1.071289;
144743;-0.078125;0.023438;1.061523;
144963;-0.080078;0.016602;1.024414;
145183;-0.082031;0.024414;1.008789;
145393;-0.078125;0.024414;1.007812;
145609;-0.077148;0.017578;1.032227;
145839;-0.077148;0.022461;1.024414;
146063;-0.077148;0.025391;1.028320;
146279;-0.073242;0.023438;1.034180;
146513;-0.070312;0.022461;1.049805;
146733;-0.070312;0.021484;1.044922;
146953;-0.067383;0.021484;1.043945;
147164;-0.067383;0.022461;1.045898;
147380;-0.063477;0.022461;1.033203;
147613;-0.058594;0.018555;1.040039;
147823;-0.055664;0.015625;1.037109;
148039;-0.049805;0.021484;1.041992;
148273;-0.044922;0.017578;1.040039;
148493;-0.033203;0.020508;1.053711;
148699;-0.029297;0.014648;1.051758;
148933;-0.021484;0.019531;1.055664;
149153;-0.019531;0.020508;1.052734;
149369;-0.015625;0.023438;1.063477;
149599;-0.015625;0.023438;1.060547;
149839;-0.014648;0.026367;1.075195;
150063;-0.014648;0.028320;1.077148;
150305;-0.011719;0.027344;1.087891;
150543;-0.009766;0.027344;1.080078;
150763;-0.003906;0.028320;1.084961;
150975;-0.002930;0.029297;1.099609;
151203;0.000977;0.022461;1.090820;
151423;0.001953;0.021484;1.096680;
151643;0.006836;0.016602;1.107422;
151863;0.005859;0.018555;1.096680;
152073;0.008789;0.017578;1.106445;
152279;0.013672;0.020508;1.113281;
152513;0.013672;0.016602;1.106445;
152733;0.011719;0.022461;1.101562;
152949;0.012695;0.021484;1.086914;
153163;0.007812;0.023438;1.075195;
153379;0.007812;0.026367;1.054688;
153609;0.001953;0.023438;1.000977;
153839;-0.000977;0.024414;0.960938;
154069;0.001953;0.022461;0.946289;
154293;0.000977;0.025391;0.923828;
154513;-0.001953;0.021484;0.920898;
154733;0.000000;0.021484;0.931641;
154943;0.000000;0.021484;0.947266;
155163;-0.000977;0.021484;0.957031;
155369;-0.002930;0.022461;0.974609;
155583;0.002930;0.022461;0.979492;
155793;0.001953;0.024414;0.981445;
155999;0.000000;0.026367;0.992188;
156233;0.001953;0.023438;0.992188;
156443;0.000977;0.021484;0.980469;
156659;0.000977;0.017578;0.980469;
156899;0.001953;0.029297;0.970703;
157139;-0.000977;0.022461;0.959961;
157379;0.000000;0.023438;0.964844;
157613;0.000977;0.021484;0.981445;
157833;0.001953;0.019531;1.012695;
158053;0.004883;0.019531;1.055664;
158273;0.005859;0.024414;1.104492;
158493;0.008789;0.019531;1.113281;
158713;0.006836;0.015625;1.116211;
158933;0.007812;0.017578;1.116211;
159149;0.007812;0.017578;1.107422;
159383;0.007812;0.021484;1.109375;
159593;0.005859;0.023438;1.079102;
159799;0.003906;0.024414;1.073242;
160033;0.002930;0.022461;1.073242;
160253;0.005859;0.021484;1.070312;
160469;0.002930;0.023438;1.062500;
160699;0.003906;0.018555;1.053711;
160929;0.004883;0.024414;1.046875;
161173;0.000977;0.025391;1.046875;
161393;0.000977;0.020508;1.037109;
161609;0.000000;0.022461;1.023438;
161843;0.003906;0.023438;1.029297;
162053;0.000000;0.023438;1.012695;
162259;0.000977;0.022461;1.014648;
162493;0.003906;0.021484;1.023438;
162713;0.002930;0.025391;1.037109;
162929;0.002930;0.021484;1.030273;
163163;0.001953;0.026367;1.028320;
163373;0.002930;0.023438;1.040039;
163589;0.002930;0.016602;1.041016;
163813;0.003906;0.020508;1.045898;
164023;0.001953;0.021484;1.048828;
164239;0.001953;0.016602;1.051758;
164469;0.003906;0.025391;1.046875;
164699;0.006836;0.023438;1.047852;
164913;0.003906;0.021484;1.043945;
165131;0.000000;0.018555;1.041992;
165373;0.000000;0.015625;1.039062;
165583;0.000977;0.025391;1.034180;
165789;0.000000;0.027344;1.024414;
166023;0.000000;0.022461;1.030273;
166243;0.000977;0.013672;1.029297;
166459;0.000000;0.016602;1.020508;
166673;0.001953;0.020508;1.009766;
166883;-0.000977;0.023438;1.004883;
167089;-0.000977;0.021484;1.000000;
167323;0.003906;0.018555;1.008789;
167533;0.004883;0.019531;1.002930;
167739;0.000977;0.021484;1.003906;
167969;0.002930;0.022461;1.000977;
168199;0.002930;0.014648;1.025391;
168410;0.003906;0.019531;1.024414;
168640;0.001953;0.025391;1.019531;
168883;0.002930;0.014648;1.020508;
169103;0.000000;0.013672;1.032227;
169309;0.000977;0.020508;1.026367;
169543;0.004883;0.017578;1.033203;
169753;0.001953;0.026367;1.014648;
169959;0.000000;0.021484;1.007812;
170193;0.001953;0.023438;1.009766;
170413;0.002930;0.023438;1.003906;
170620;0.000000;0.022461;1.002930;
170853;0.001953;0.025391;1.024414;
171073;0.000000;0.018555;1.019531;
171289;0.001953;0.012695;1.024414;
171523;0.000000;0.023438;1.015625;
171741;0.000000;0.019531;1.014648;
171959;0.000000;0.018555;1.015625;
172190;0.001953;0.024414;1.021484;
172429;0.003906;0.022461;1.036133;
172673;0.002930;0.025391;1.047852;
172883;0.001953;0.020508;1.047852;
173099;0.003906;0.018555;1.056641;
173333;0.002930;0.031250;1.052734;
173543;0.000977;0.025391;1.051758;
173760;0.000000;0.022461;1.036133;
174003;0.000977;0.022461;1.036133;
174223;0.001953;0.021484;1.033203;
174430;0.001953;0.016602;1.039062;
174663;0.003906;0.017578;1.043945;
174873;0.002930;0.018555;1.035156;
175089;0.002930;0.021484;1.038086;
175323;0.002930;0.026367;1.041992;
175540;-0.002930;0.028320;1.038086;
175769;0.001953;0.026367;1.041016;
176000;0.001953;0.027344;1.034180;
176230;0.003906;0.017578;1.025391;
176473;0.005859;0.019531;1.029297;
176693;0.003906;0.013672;1.026367;
176909;0.002930;0.021484;1.024414;
177143;0.004883;0.021484;1.035156;
177353;0.000977;0.024414;1.029297;
177569;0.000977;0.023438;1.015625;
177783;-0.000977;0.024414;1.014648;
177993;0.000000;0.025391;1.010742;
178203;0.000000;0.026367;1.007812;
178419;-0.001953;0.018555;1.002930;
178643;0.000000;0.025391;1.000977;
178863;0.000000;0.024414;1.001953;
179069;0.000000;0.019531;1.000000;
179303;0.000000;0.019531;1.018555;
179519;0.000000;0.023438;1.043945;
179749;0.003906;0.021484;1.079102;
179980;0.004883;0.027344;1.097656;
180219;0.003906;0.018555;1.094727;
180443;0.005859;0.024414;1.085938;
180655;0.003906;0.017578;1.076172;
180883;0.003906;0.017578;1.062500;
181093;0.000000;0.018555;1.050781;
181303;0.002930;0.015625;1.044922;
181513;0.002930;0.014648;1.040039;
181733;0.004883;0.023438;1.034180;
181955;0.000977;0.020508;1.035156;
182193;0.003906;0.021484;1.034180;
182403;0.003906;0.018555;1.047852;
182619;0.001953;0.022461;1.044922;
182853;0.003906;0.020508;1.046875;
183063;0.001953;0.017578;1.050781;
183280;0.001953;0.021484;1.046875;
183511;0.001953;0.021484;1.047852;
183749;0.000977;0.019531;1.045898;
183989;0.003906;0.024414;1.054688;
184213;0.005859;0.020508;1.048828;
184429;0.002930;0.022461;1.042969;
184663;0.003906;0.022461;1.038086;
184883;0.001953;0.021484;1.033203;
185099;0.000977;0.023438;1.014648;
185323;-0.000977;0.024414;1.012695;
185533;0.000000;0.019531;1.000000;
185753;-0.000977;0.021484;1.002930;
185973;-0.000977;0.022461;1.008789;
186183;0.001953;0.021484;1.010742;
186393;0.001953;0.016602;1.000977;
186603;0.003906;0.025391;1.006836;
186823;0.003906;0.027344;0.996094;
187043;0.000000;0.023438;0.974609;
187259;0.001953;0.022461;0.958984;
187489;-0.005859;0.020508;0.937500;
187724;-0.001953;0.023438;0.938477;
187933;-0.003906;0.020508;0.941406;
188153;0.000977;0.022461;0.963867;
188373;-0.002930;0.018555;0.967773;
188593;0.000977;0.020508;0.984375;
188803;-0.002930;0.019531;0.988281;
189023;0.001953;0.023438;1.002930;
189244;0.001953;0.017578;0.996094;
189453;0.003906;0.021484;1.005859;
189663;0.003906;0.018555;1.011719;
189873;0.002930;0.020508;1.018555;
190083;0.003906;0.020508;1.022461;
190303;0.002930;0.020508;1.017578;
190523;0.001953;0.021484;1.039062;
190739;0.001953;0.019531;1.029297;
190970;-0.000977;0.023438;1.029297;
191213;-0.000977;0.016602;1.018555;
191433;0.001953;0.017578;1.037109;
191653;0.002930;0.024414;1.030273;
191863;0.001953;0.020508;1.038086;
192073;0.002930;0.016602;1.042969;
192293;0.000977;0.022461;1.050781;
192513;0.003906;0.020508;1.072266;
192733;0.004883;0.025391;1.083008;
192953;0.003906;0.022461;1.068359;
193173;0.000977;0.024414;1.060547;
193383;0.002930;0.024414;1.038086;
193603;0.003906;0.020508;1.025391;
193813;-0.000977;0.023438;1.020508;
194033;0.000000;0.019531;1.000977;
194249;0.000000;0.020508;0.986328;
194499;0.001953;0.019531;1.013672;
194743;0.002930;0.020508;1.037109;
194963;0.001953;0.017578;1.049805;
195183;0.000000;0.023438;1.055664;
195393;0.004883;0.021484;1.050781;
195613;0.001953;0.018555;1.044922;
195833;0.000977;0.024414;1.041992;
196053;-0.000977;0.019531;1.033203;
196274;-0.000977;0.020508;1.015625;
196483;0.001953;0.019531;1.001953;
196703;0.000977;0.024414;1.018555;
196923;0.003906;0.020508;1.015625;
197133;0.000977;0.021484;1.021484;
197353;0.002930;0.018555;1.016602;
197563;0.000000;0.021484;1.015625;
197769;-0.000977;0.017578;1.004883;
197999;-0.000977;0.018555;0.998047;
198229;-0.001953;0.021484;0.977539;
198453;0.000977;0.022461;0.987305;
198663;0.000000;0.021484;1.006836;
198883;-0.000977;0.020508;1.025391;
199093;0.000000;0.019531;1.026367;
199313;0.003906;0.023438;1.015625;
199533;0.002930;0.019531;1.021484;
199753;0.000977;0.020508;1.011719;
199973;0.000000;0.019531;1.018555;
200193;0.000977;0.021484;1.034180;
200403;0.000000;0.016602;1.034180;
200614;0.004883;0.021484;1.044922;
200833;0.000000;0.023438;1.041016;
201043;-0.000977;0.025391;1.034180;
201249;0.002930;0.022461;1.033203;
201479;-0.000977;0.021484;1.010742;
201709;0.001953;0.021484;1.022461;
201923;0.000977;0.022461;1.021484;
202139;0.000977;0.020508;1.006836;
202363;0.000000;0.015625;1.008789;
202573;0.001953;0.019531;1.018555;
202789;0.000977;0.021484;1.032227;
203023;0.001953;0.022461;1.044922;
203233;0.002930;0.019531;1.060547;
203453;0.003906;0.019531;1.082031;
203663;0.002930;0.018555;1.082031;
203873;0.002930;0.022461;1.091797;
204089;0.002930;0.020508;1.065430;
204313;0.001953;0.022461;1.067383;
204533;0.003906;0.020508;1.041016;
204743;0.000000;0.027344;1.032227;
204959;0.000000;0.021484;1.022461;
205191;0.003906;0.019531;1.005859;
205430;0.000977;0.023438;0.979492;
205673;0.000977;0.021484;0.987305;
205893;-0.001953;0.020508;1.010742;
206103;0.000000;0.019531;1.026367;
206323;0.001953;0.017578;1.046875;
206543;0.002930;0.017578;1.071289;
206753;0.005859;0.017578;1.086914;
206969;0.003906;0.018555;1.082031;
207193;0.003906;0.020508;1.070312;
207403;0.000977;0.023438;1.045898;
207609;0.000000;0.020508;1.014648;
207843;-0.001953;0.022461;1.009766;
208053;0.002930;0.021484;1.021484;
208269;-0.003906;0.022461;1.027344;
208513;-0.001953;0.019531;1.037109;
208739;0.000977;0.013672;1.058594;
208969;0.001953;0.025391;1.050781;
209209;0.001953;0.020508;1.037109;
209433;0.001953;0.017578;1.031250;
209639;0.000000;0.021484;1.034180;
209873;0.000000;0.020508;1.018555;
210093;0.000977;0.020508;1.020508;
210315;0.000000;0.021484;1.009766;
210533;0.000000;0.016602;1.018555;
210753;0.002930;0.021484;1.016602;
210970;0.000977;0.025391;1.027344;
211213;-0.000977;0.021484;1.035156;
211433;0.000977;0.022461;1.053711;
211639;0.004883;0.017578;1.060547;
211863;0.001953;0.021484;1.053711;
212083;0.001953;0.018555;1.034180;
212305;-0.001953;0.023438;1.019531;
212519;-0.001953;0.014648;1.011719;
212749;-0.000977;0.020508;1.000000;
212969;0.000977;0.026367;0.997070;
213193;-0.003906;0.021484;0.980469;
213413;-0.002930;0.021484;0.957031;
213633;-0.003906;0.024414;0.964844;
213843;-0.004883;0.017578;0.954102;
214053;-0.003906;0.021484;0.943359;
214263;-0.004883;0.020508;0.945312;
214483;-0.002930;0.021484;0.936523;
214703;0.000000;0.023438;0.967773;
214913;-0.001953;0.021484;1.004883;
215123;0.000000;0.028320;1.041992;
215343;0.003906;0.012695;1.066406;
215563;0.002930;0.014648;1.069336;
215773;0.000977;0.014648;1.061523;
215993;0.002930;0.017578;1.072266;
216209;0.001953;0.022461;1.060547;
216439;0.000000;0.020508;1.049805;
216673;0.000000;0.025391;1.063477;
216893;0.001953;0.024414;1.080078;
217113;0.001953;0.027344;1.071289;
217333;0.004883;0.021484;1.080078;
217543;0.003906;0.018555;1.074219;
217753;0.001953;0.016602;1.068359;
217973;0.001953;0.018555;1.070312;
218193;0.002930;0.024414;1.066406;
218413;0.004883;0.020508;1.085938;
218633;0.007812;0.022461;1.085938;
218843;0.004883;0.018555;1.099609;
219053;0.006836;0.019531;1.098633;
219273;0.006836;0.019531;1.094727;
219493;0.003906;0.018555;1.091797;
219709;0.002930;0.021484;1.096680;
219939;0.001953;0.022461;1.093750;
220173;0.001953;0.017578;1.088867;
220393;0.001953;0.019531;1.098633;
220613;0.002930;0.015625;1.096680;
220823;0.003906;0.018555;1.090820;
221043;0.005859;0.021484;1.104492;
221253;0.004883;0.018555;1.077148;
221463;0.003906;0.017578;1.047852;
221683;0.001953;0.023438;1.031250;
221903;0.000000;0.020508;1.003906;
222113;-0.000977;0.022461;0.983398;
222323;-0.001953;0.023438;0.964844;
222543;-0.003906;0.023438;0.939453;
222753;-0.006836;0.020508;0.929688;
222973;-0.007812;0.021484;0.920898;
223189;-0.003906;0.025391;0.929688;
223420;-0.002930;0.019531;0.937500;
223653;-0.003906;0.021484;0.961914;
223863;-0.001953;0.019531;0.958008;
224073;-0.001953;0.023438;0.967773;
224293;-0.001953;0.020508;0.975586;
224513;-0.004883;0.019531;0.968750;
224733;-0.003906;0.017578;0.972656;
224953;-0.000977;0.021484;0.985352;
225173;-0.001953;0.021484;0.997070;
225393;-0.001953;0.018555;1.006836;
225603;0.002930;0.023438;1.034180;
225823;0.006836;0.022461;1.039062;
226043;0.006836;0.020508;1.054688;
226253;0.012695;0.021484;1.075195;
226463;0.020508;0.020508;1.092773;
226679;0.030273;0.019531;1.094727;
226909;0.033203;0.017578;1.081055;
227149;0.039062;0.017578;1.068359;
227363;0.042969;0.019531;1.079102;
227583;0.051758;0.022461;1.083008;
227803;0.053711;0.016602;1.083008;
228013;0.056641;0.008789;1.080078;
228233;0.065430;0.022461;1.089844;
228443;0.074219;0.021484;1.077148;
228663;0.082031;0.020508;1.083008;
228873;0.091797;0.021484;1.086914;
229083;0.100586;0.026367;1.082031;
229303;0.100586;0.015625;1.033203;
229523;0.096680;0.019531;0.997070;
229743;0.100586;0.028320;0.978516;
229963;0.097656;0.013672;0.946289;
230180;0.095703;0.020508;0.943359;
230409;0.094727;0.029297;0.940430;
230639;0.095703;0.017578;0.916992;
230873;0.097656;0.022461;0.948242;
231093;0.095703;0.020508;0.952148;
231313;0.096680;0.031250;0.983398;
231533;0.093750;0.018555;1.005859;
231753;0.095703;0.018555;1.030273;
231973;0.101562;0.021484;1.054688;
232193;0.096680;0.027344;1.071289;
232403;0.100586;0.021484;1.071289;
232623;0.096680;0.019531;1.060547;
232843;0.096680;0.023438;1.062500;
233063;0.094727;0.019531;1.064453;
233273;0.097656;0.015625;1.067383;
233493;0.092773;0.013672;1.050781;
233712;0.093750;0.016602;1.043945;
233949;0.093750;0.022461;1.040039;
234189;0.089844;0.017578;1.037109;
234423;0.096680;0.019531;1.033203;
234643;0.093750;0.019531;1.033203;
234854;0.087891;0.020508;1.011719;
235073;0.090820;0.015625;1.013672;
235293;0.088867;0.016602;1.022461;
235513;0.089844;0.019531;1.021484;
235723;0.092773;0.025391;1.022461;
235943;0.092773;0.018555;1.021484;
236163;0.092773;0.014648;1.042969;
236383;0.089844;0.022461;1.021484;
236603;0.090820;0.023438;1.029297;
236813;0.089844;0.018555;1.029297;
237023;0.088867;0.024414;1.020508;
237233;0.085938;0.022461;1.016602;
237449;0.086914;0.018555;1.024414;
237679;0.090820;0.015625;1.027344;
237893;0.085938;0.016602;1.032227;
238103;0.086914;0.031250;1.018555;
238313;0.083984;0.020508;1.022461;
238533;0.080078;0.019531;1.027344;
238743;0.087891;0.012695;1.002930;
238953;0.087891;0.020508;1.004883;
239173;0.082031;0.028320;0.981445;
239393;0.083984;0.025391;0.998047;
239603;0.083008;0.022461;0.977539;
239823;0.081055;0.030273;0.976562;
240043;0.083008;0.024414;1.001953;
240263;0.083008;0.021484;1.010742;
240483;0.080078;0.015625;0.999023;
240703;0.079102;0.015625;1.010742;
240919;0.083008;0.026367;1.008789;
241149;0.081055;0.018555;0.990234;
241371;0.078125;0.011719;0.992188;
241603;0.075195;0.024414;0.969727;
241813;0.079102;0.020508;0.974609;
242033;0.081055;0.021484;0.964844;
242243;0.080078;0.022461;0.969727;
242453;0.080078;0.028320;0.971680;
242673;0.079102;0.028320;0.979492;
242893;0.075195;0.012695;0.978516;
243103;0.081055;0.018555;0.984375;
243323;0.081055;0.015625;1.001953;
243543;0.077148;0.020508;0.999023;
243763;0.082031;0.021484;1.021484;
243983;0.083008;0.018555;1.054688;
244194;0.080078;0.015625;1.039062;
244410;0.080078;0.020508;1.025391;
244649;0.078125;0.019531;1.066406;
244890;0.081055;0.021484;1.149414;
245123;0.086914;0.011719;1.259766;
245343;0.092773;0.022461;1.352539;
245563;0.099609;0.019531;1.468750;
245773;0.103516;0.015625;1.542969;
245993;0.107422;0.010742;1.632812;
246213;0.116211;0.018555;1.695312;
246433;0.120117;0.010742;1.766602;
246653;0.125000;0.021484;1.800781;
246873;0.123047;0.007812;1.799805;
247083;0.123047;0.011719;1.835938;
247303;0.125977;0.011719;1.844727;
247523;0.123047;0.011719;1.837891;
247743;0.125977;0.010742;1.815430;
247963;0.123047;0.006836;1.811523;
248169;0.120117;0.018555;1.793945;
248399;0.125000;0.013672;1.796875;
248629;0.122070;0.011719;1.808594;
248843;0.122070;0.016602;1.816406;
249053;0.125977;0.016602;1.832031;
249263;0.125000;0.025391;1.838867;
249483;0.126953;0.024414;1.846680;
249693;0.127930;0.021484;1.848633;
249913;0.129883;0.017578;1.854492;
250133;0.126953;0.014648;1.858398;
250353;0.130859;0.006836;1.842773;
250573;0.129883;0.008789;1.833008;
250793;0.127930;0.007812;1.836914;
251014;0.129883;0.004883;1.843750;
251233;0.128906;0.012695;1.838867;
251453;0.129883;0.012695;1.844727;
251673;0.129883;0.015625;1.839844;
251879;0.128906;0.018555;1.848633;
252119;0.130859;0.011719;1.830078;
252363;0.132812;0.006836;1.830078;
252583;0.133789;0.006836;1.827148;
252803;0.133789;-0.006836;1.827148;
253023;0.131836;-0.008789;1.829102;
253243;0.135742;-0.004883;1.816406;
253453;0.133789;0.008789;1.833008;
253663;0.131836;0.003906;1.833984;
253884;0.134766;0.014648;1.837891;
254103;0.134766;0.013672;1.836914;
254323;0.134766;0.024414;1.842773;
254533;0.139648;0.013672;1.844727;
254743;0.139648;0.007812;1.841797;
254963;0.138672;0.006836;1.837891;
255183;0.144531;0.003906;1.830078;
255389;0.146484;0.000977;1.838867;
255619;0.147461;0.006836;1.827148;
255863;0.146484;0.008789;1.834961;
256083;0.149414;0.004883;1.841797;
256303;0.150391;0.017578;1.843750;
256523;0.151367;0.013672;1.827148;
256733;0.155273;0.023438;1.833008;
256953;0.156250;0.018555;1.843750;
257163;0.160156;0.013672;1.844727;
257383;0.159180;0.013672;1.855469;
257603;0.164062;0.022461;1.856445;
257823;0.165039;0.018555;1.869141;
258043;0.173828;0.022461;1.886719;
258263;0.178711;0.005859;1.901367;
258473;0.173828;0.015625;1.883789;
258683;0.174805;0.018555;1.871094;
258901;0.175781;0.007812;1.883789;
259129;0.179688;0.001953;1.851562;
259363;0.179688;0.008789;1.857422;
259573;0.180664;0.021484;1.853516;
259793;0.182617;0.008789;1.847656;
260013;0.188477;0.013672;1.893555;
260223;0.191406;0.012695;1.888672;
260443;0.188477;0.008789;1.896484;
260663;0.194336;0.004883;1.923828;
260883;0.197266;0.004883;1.909180;
261093;0.195312;0.011719;1.916016;
261303;0.198242;0.009766;1.918945;
261523;0.201172;0.014648;1.915039;
261743;0.198242;0.008789;1.923828;
261963;0.201172;0.014648;1.898438;
262183;0.205078;0.021484;1.890625;
262399;0.198242;0.017578;1.893555;
262630;0.203125;0.021484;1.877930;
262873;0.201172;0.026367;1.845703;
263093;0.203125;0.029297;1.819336;
263303;0.204102;0.018555;1.828125;
263513;0.203125;0.029297;1.815430;
263723;0.191406;0.023438;1.765625;
263933;0.192383;0.012695;1.750977;
264153;0.177734;-0.000977;1.716797;
264373;0.166016;0.000977;1.678711;
264583;0.155273;-0.009766;1.664062;
264803;0.143555;-0.006836;1.603516;
265013;0.134766;-0.006836;1.576172;
265223;0.120117;-0.004883;1.509766;
265433;0.107422;0.014648;1.446289;
265653;0.095703;0.030273;1.405273;
265859;0.085938;0.029297;1.304688;
266090;0.063477;0.036133;1.155273;
266329;0.039062;0.034180;0.951172;
266574;0.023438;0.032227;0.784180;
266793;0.014648;0.024414;0.601562;
267013;-0.000977;0.028320;0.435547;
267233;-0.002930;0.029297;0.312500;
267453;-0.001953;0.032227;0.228516;
267663;-0.007812;0.042969;0.146484;
267883;-0.009766;0.051758;0.100586;
268093;-0.007812;0.043945;0.079102;
268303;-0.005859;0.050781;0.049805;
268513;-0.012695;0.041016;0.043945;
268733;-0.003906;0.025391;0.025391;
268953;-0.006836;0.030273;-0.011719;
269173;-0.006836;0.042969;0.002930;
269380;-0.008789;0.050781;0.030273;
269609;-0.010742;0.047852;-0.005859;
269849;-0.012695;0.043945;0.035156;
270073;-0.005859;0.028320;0.050781;
270293;-0.009766;0.024414;0.065430;
270503;-0.008789;0.031250;0.045898;
270723;-0.009766;0.032227;0.033203;
270943;-0.011719;0.029297;0.028320;
271163;-0.012695;0.033203;0.039062;
271383;-0.014648;0.039062;0.038086;
271593;-0.012695;0.037109;0.021484;
271803;-0.015625;0.042969;0.012695;
272023;-0.013672;0.032227;0.003906;
272243;-0.013672;0.030273;-0.007812;
272463;-0.014648;0.028320;-0.007812;
272673;-0.014648;0.027344;-0.010742;
272883;-0.012695;0.028320;-0.006836;
273088;-0.012695;0.025391;-0.012695;
273319;-0.014648;0.025391;-0.008789;
273563;-0.014648;0.025391;0.005859;
273783;-0.013672;0.025391;0.006836;
274003;-0.016602;0.020508;0.014648;
274213;-0.015625;0.025391;0.023438;
274423;-0.018555;0.021484;0.026367;
274643;-0.016602;0.019531;0.015625;
274863;-0.019531;0.024414;0.027344;
275083;-0.014648;0.023438;0.030273;
275303;-0.019531;0.012695;0.036133;
275513;-0.018555;0.022461;0.034180;
275723;-0.016602;0.022461;0.038086;
275943;-0.015625;0.014648;0.042969;
276153;-0.016602;0.021484;0.041016;
276373;-0.016602;0.023438;0.035156;
276588;-0.016602;0.020508;0.023438;
276820;-0.017578;0.012695;0.008789;
277059;-0.016602;0.017578;0.019531;
277293;-0.018555;0.020508;0.006836;
277513;-0.016602;0.019531;0.011719;
277723;-0.017578;0.016602;0.000000;
277933;-0.015625;0.018555;0.010742;
278153;-0.018555;0.019531;0.018555;
278373;-0.016602;0.021484;0.005859;
278593;-0.018555;0.018555;0.001953;
278803;-0.018555;0.018555;0.002930;
279013;-0.021484;0.019531;0.011719;
279233;-0.020508;0.023438;0.018555;
279443;-0.018555;0.021484;0.018555;
279663;-0.018555;0.020508;0.025391;
279883;-0.021484;0.020508;0.032227;
280103;-0.016602;0.015625;0.018555;
280331;-0.018555;0.017578;0.022461;
280559;-0.020508;0.018555;0.016602;
280783;-0.020508;0.020508;0.015625;
281003;-0.022461;0.017578;0.017578;
281213;-0.019531;0.019531;0.017578;
281433;-0.021484;0.020508;0.020508;
281653;-0.021484;0.019531;0.010742;
281873;-0.020508;0.017578;0.007812;
282093;-0.022461;0.021484;0.012695;
282313;-0.021484;0.022461;0.003906;
282523;-0.023438;0.021484;0.005859;
282733;-0.025391;0.020508;0.002930;
282943;-0.022461;0.019531;0.000977;
283163;-0.026367;0.019531;-0.006836;
283383;-0.021484;0.021484;0.000000;
283603;-0.022461;0.018555;-0.004883;
283819;-0.022461;0.022461;0.017578;
284039;-0.031250;0.030273;-0.044922;
284269;-0.022461;0.021484;-0.004883;
284493;-0.027344;0.020508;0.007812;
284713;-0.025391;0.024414;0.007812;
284923;-0.026367;0.027344;0.009766;
285143;-0.027344;0.024414;0.019531;
285353;-0.028320;0.024414;0.030273;
285573;-0.028320;0.023438;0.010742;
285793;-0.025391;0.024414;0.023438;
286013;-0.028320;0.022461;0.025391;
286233;-0.026367;0.020508;0.014648;
286443;-0.029297;0.020508;0.016602;
286663;-0.026367;0.016602;0.015625;
286883;-0.028320;0.014648;0.020508;
287093;-0.031250;0.013672;0.002930;
287313;-0.028320;0.020508;0.010742;
287541;-0.034180;0.010742;0.006836;
287769;-0.035156;0.014648;-0.005859;
288000;-0.035156;0.022461;0.007812;
288233;-0.034180;0.018555;-0.002930;
288453;-0.035156;0.021484;0.015625;
288673;-0.035156;0.008789;0.007812;
288883;-0.034180;0.015625;0.036133;
289093;-0.036133;0.016602;0.005859;
289303;-0.038086;0.014648;0.017578;
289524;-0.037109;0.012695;0.003906;
289743;-0.037109;0.018555;0.015625;
289963;-0.043945;0.011719;0.001953;
290173;-0.040039;0.013672;0.002930;
290383;-0.042969;0.019531;0.000977;
290603;-0.046875;0.022461;0.027344;
290823;-0.047852;-0.001953;0.049805;
291040;-0.050781;-0.003906;0.141602;
291278;-0.045898;0.003906;0.314453;
291521;-0.039062;0.019531;0.480469;
291763;-0.027344;0.019531;0.666992;
291983;-0.011719;0.008789;0.857422;
292203;0.013672;0.001953;1.033203;
292423;0.019531;-0.001953;1.183594;
292643;0.026367;0.010742;1.286133;
292863;0.034180;0.020508;1.374023;
293083;0.041016;0.020508;1.450195;
293303;0.053711;0.024414;1.512695;
293523;0.054688;0.023438;1.562500;
293743;0.057617;0.026367;1.601562;
293963;0.058594;0.020508;1.669922;
294183;0.052734;0.027344;1.683594;
294403;0.057617;0.021484;1.682617;
294613;0.056641;0.026367;1.703125;
294819;0.049805;0.040039;1.702148;
295049;0.041016;0.058594;1.692383;
295289;0.045898;0.044922;1.716797;
295513;0.045898;0.047852;1.678711;
295733;0.046875;0.055664;1.704102;
295943;0.041992;0.049805;1.687500;
296163;0.042969;0.027344;1.694336;
296373;0.047852;0.033203;1.729492;
296593;0.042969;0.015625;1.743164;
296813;0.047852;0.011719;1.781250;
297033;0.044922;0.004883;1.786133;
297243;0.041016;0.000000;1.786133;
297463;0.041992;-0.008789;1.776367;
297673;0.039062;-0.001953;1.799805;
297893;0.039062;0.000977;1.801758;
298104;0.040039;0.012695;1.796875;
298320;0.036133;0.012695;1.784180;
298560;0.036133;0.020508;1.785156;
298800;0.030273;0.016602;1.754883;
299023;0.024414;0.022461;1.738281;
299233;0.024414;0.023438;1.723633;
299453;0.022461;0.024414;1.704102;
299663;0.017578;0.025391;1.685547;
299873;0.013672;0.024414;1.673828;
300093;0.011719;0.026367;1.676758;
300313;0.012695;0.027344;1.674805;
300523;0.009766;0.023438;1.686523;
300743;0.010742;0.027344;1.700195;
300953;0.008789;0.020508;1.711914;
301163;0.010742;0.027344;1.723633;
301383;0.012695;0.021484;1.754883;
301603;0.011719;0.010742;1.776367;
301813;0.012695;0.013672;1.805664;
302039;0.011719;0.013672;1.817383;
302269;0.010742;0.012695;1.816406;
302503;0.006836;0.008789;1.813477;
302713;0.007812;0.017578;1.815430;
302933;0.005859;0.018555;1.806641;
303143;0.002930;0.009766;1.802734;
303353;0.001953;0.021484;1.805664;
303574;-0.000977;0.022461;1.806641;
303793;0.000000;0.021484;1.820312;
304003;-0.003906;0.016602;1.803711;
304223;-0.004883;0.023438;1.788086;
304433;-0.007812;0.020508;1.751953;
304653;-0.012695;0.027344;1.739258;
304873;-0.013672;0.023438;1.719727;
305093;-0.018555;0.027344;1.705078;
305313;-0.021484;0.028320;1.702148;
305519;-0.022461;0.025391;1.679688;
305749;-0.024414;0.020508;1.671875;
305979;-0.024414;0.021484;1.649414;
306203;-0.028320;0.025391;1.646484;
306413;-0.030273;0.024414;1.647461;
306623;-0.030273;0.026367;1.666016;
306843;-0.027344;0.028320;1.675781;
307053;-0.028320;0.030273;1.690430;
307273;-0.028320;0.028320;1.693359;
307483;-0.028320;0.021484;1.676758;
307693;-0.032227;0.017578;1.675781;
307913;-0.030273;0.016602;1.670898;
308123;-0.029297;0.015625;1.664062;
308343;-0.031250;0.013672;1.658203;
308563;-0.034180;0.014648;1.648438;
308783;-0.036133;0.017578;1.623047;
308993;-0.036133;0.016602;1.595703;
309209;-0.043945;0.016602;1.549805;
309439;-0.050781;0.021484;1.516602;
309673;-0.053711;0.027344;1.471680;
309893;-0.055664;0.026367;1.425781;
310103;-0.059570;0.032227;1.400391;
310313;-0.059570;0.029297;1.387695;
310533;-0.059570;0.025391;1.366211;
310753;-0.060547;0.026367;1.365234;
310963;-0.058594;0.024414;1.365234;
311173;-0.059570;0.021484;1.368164;
311393;-0.062500;0.023438;1.363281;
311614;-0.058594;0.024414;1.376953;
311823;-0.059570;0.016602;1.375000;
312043;-0.060547;0.021484;1.361328;
312253;-0.061523;0.023438;1.332031;
312463;-0.067383;0.020508;1.282227;
312669;-0.069336;0.022461;1.235352;
312889;-0.075195;0.027344;1.176758;
313119;-0.079102;0.023438;1.117188;
313353;-0.080078;0.029297;1.070312;
313573;-0.083008;0.028320;1.041992;
313783;-0.083984;0.026367;1.020508;
314004;-0.081055;0.027344;1.017578;
314223;-0.082031;0.023438;1.010742;
314433;-0.080078;0.015625;1.009766;
314653;-0.083984;0.012695;1.013672;
314873;-0.082031;0.016602;1.035156;
315083;-0.078125;0.012695;1.078125;
315303;-0.075195;0.016602;1.153320;
315523;-0.070312;0.017578;1.207031;
315743;-0.072266;0.017578;1.224609;
315963;-0.071289;0.022461;1.225586;
316183;-0.070312;0.018555;1.217773;
316391;-0.075195;0.021484;1.175781;
316619;-0.076172;0.024414;1.133789;
316843;-0.082031;0.022461;1.081055;
317053;-0.081055;0.022461;1.063477;
317263;-0.082031;0.023438;1.069336;
317483;-0.078125;0.018555;1.086914;
317703;-0.076172;0.018555;1.123047;
317913;-0.075195;0.015625;1.157227;
318133;-0.073242;0.017578;1.172852;
318343;-0.072266;0.022461;1.197266;
318563;-0.070312;0.019531;1.244141;
318773;-0.065430;0.028320;1.292969;
318983;-0.064453;0.019531;1.327148;
319193;-0.062500;0.017578;1.354492;
319413;-0.060547;0.016602;1.377930;
319623;-0.055664;0.019531;1.403320;
319839;-0.056641;0.017578;1.407227;
320069;-0.060547;0.014648;1.381836;
320299;-0.058594;0.018555;1.365234;
320523;-0.059570;0.018555;1.337891;
320733;-0.062500;0.018555;1.301758;
320953;-0.066406;0.015625;1.285156;
321173;-0.066406;0.015625;1.262695;
321393;-0.066406;0.017578;1.260742;
321603;-0.066406;0.018555;1.245117;
321813;-0.068359;0.017578;1.225586;
322033;-0.073242;0.017578;1.209961;
322253;-0.070312;0.022461;1.184570;
322463;-0.077148;0.022461;1.133789;
322683;-0.077148;0.020508;1.109375;
322893;-0.074219;0.021484;1.117188;
323113;-0.071289;0.016602;1.129883;
323330;-0.072266;0.018555;1.134766;
323559;-0.073242;0.018555;1.143555;
323799;-0.069336;0.023438;1.151367;
324043;-0.066406;0.024414;1.167969;
324253;-0.067383;0.018555;1.171875;
324473;-0.064453;0.023438;1.170898;
324693;-0.066406;0.023438;1.172852;
324903;-0.063477;0.021484;1.155273;
325123;-0.061523;0.020508;1.153320;
325343;-0.060547;0.019531;1.143555;
325563;-0.056641;0.020508;1.137695;
325783;-0.055664;0.020508;1.139648;
326003;-0.051758;0.017578;1.138672;
326223;-0.046875;0.019531;1.146484;
326433;-0.046875;0.022461;1.118164;
326653;-0.041992;0.013672;1.085938;
326869;-0.034180;0.018555;1.071289;
327099;-0.025391;0.020508;1.046875;
327329;-0.018555;0.023438;1.027344;
327553;-0.006836;0.014648;1.028320;
327774;0.001953;0.018555;1.018555;
327993;0.001953;0.021484;0.953125;
328203;-0.006836;0.021484;0.847656;
328423;-0.007812;0.021484;0.776367;
328633;-0.006836;0.024414;0.806641;
328843;-0.008789;0.023438;0.868164;
329053;-0.003906;0.021484;0.952148;
329273;0.000977;0.019531;1.033203;
329483;0.005859;0.019531;1.129883;
329703;0.010742;0.020508;1.191406;
329913;0.014648;0.019531;1.226562;
330133;0.016602;0.015625;1.223633;
330353;0.017578;0.017578;1.174805;
330570;0.013672;0.019531;1.133789;
330799;0.011719;0.019531;1.068359;
331033;0.005859;0.020508;1.030273;
331243;0.005859;0.024414;1.007812;
331463;0.004883;0.026367;0.989258;
331684;0.001953;0.022461;1.000000;
331893;0.001953;0.026367;0.998047;
332103;-0.000977;0.025391;0.989258;
332313;0.003906;0.022461;0.992188;
332523;0.000977;0.021484;0.981445;
332743;0.002930;0.019531;0.988281;
332953;0.001953;0.022461;0.958008;
333163;0.001953;0.021484;0.953125;
333373;0.001953;0.020508;0.944336;
333593;0.000977;0.017578;0.939453;
333813;0.002930;0.019531;0.943359;
334029;-0.000977;0.021484;0.944336;
334259;-0.000977;0.020508;0.943359;
334503;0.002930;0.021484;0.942383;
334723;-0.001953;0.022461;0.947266;
334943;-0.003906;0.028320;0.949219;
335153;-0.003906;0.025391;0.941406;
335363;-0.005859;0.018555;0.946289;
335573;-0.007812;0.026367;0.956055;
335793;-0.004883;0.021484;0.965820;
336013;-0.004883;0.025391;1.000977;
336233;0.000977;0.025391;1.031250;
336443;-0.001953;0.024414;1.050781;
336653;0.000977;0.023438;1.089844;
336873;0.002930;0.018555;1.131836;
337083;0.009766;0.019531;1.187500;
337303;0.011719;0.017578;1.238281;
337519;0.018555;0.017578;1.295898;
337759;0.021484;0.016602;1.361328;
338003;0.025391;0.017578;1.369141;
338213;0.018555;0.013672;1.355469;
338433;0.021484;0.013672;1.319336;
338643;0.018555;0.019531;1.301758;
338863;0.016602;0.014648;1.245117;
339083;0.009766;0.012695;1.198242;
339293;0.006836;0.014648;1.154297;
339513;0.005859;0.011719;1.109375;
339733;0.003906;0.011719;1.083984;
339943;0.004883;0.011719;1.069336;
340153;0.002930;0.008789;1.054688;
340363;0.000977;0.012695;1.042969;
340574;0.001953;0.015625;1.043945;
340793;0.003906;0.016602;1.051758;
341010;0.003906;0.021484;1.074219;
341249;0.006836;0.021484;1.097656;
341493;0.007812;0.022461;1.120117;
341713;0.007812;0.031250;1.149414;
341933;0.005859;0.029297;1.144531;
342153;0.008789;0.035156;1.161133;
342373;0.006836;0.038086;1.145508;
342583;0.007812;0.030273;1.136719;
342803;0.010742;0.038086;1.149414;
343013;0.008789;0.034180;1.156250;
343233;0.009766;0.032227;1.166016;
343443;0.007812;0.025391;1.165039;
343663;0.009766;0.026367;1.171875;
343873;0.011719;0.021484;1.164062;
344093;0.011719;0.026367;1.140625;
344303;0.008789;0.022461;1.111328;
344521;0.004883;0.020508;1.058594;
344739;0.005859;0.023438;1.038086;
344969;0.001953;0.025391;1.008789;
345213;0.001953;0.023438;0.995117;
345433;0.002930;0.026367;1.005859;
345643;0.004883;0.022461;1.017578;
345863;0.006836;0.028320;1.054688;
346083;0.004883;0.026367;1.068359;
346293;0.008789;0.029297;1.072266;
346503;0.005859;0.025391;1.062500;
346713;0.005859;0.025391;1.045898;
346933;0.001953;0.024414;1.019531;
347153;0.001953;0.022461;1.000977;
347363;0.000000;0.022461;0.981445;
347583;0.001953;0.027344;0.990234;
347803;0.000977;0.022461;1.009766;
348023;0.002930;0.020508;1.032227;
348239;0.002930;0.023438;1.042969;
348469;0.005859;0.028320;1.045898;
348699;0.001953;0.028320;1.019531;
348923;0.003906;0.027344;0.987305;
349133;0.002930;0.023438;0.970703;
349353;0.002930;0.023438;0.967773;
349573;0.000000;0.025391;0.952148;
349793;-0.000977;0.027344;0.966797;
350003;-0.001953;0.021484;0.973633;
350213;0.000000;0.030273;0.981445;
350433;0.000000;0.024414;0.997070;
350643;0.001953;0.027344;1.002930;
350863;0.000977;0.024414;1.011719;
351083;0.000977;0.025391;1.009766;
351303;0.002930;0.025391;1.017578;
351523;0.003906;0.025391;1.031250;
351729;0.004883;0.028320;1.021484;
351959;0.005859;0.026367;1.058594;
352199;0.003906;0.025391;1.065430;
352433;0.003906;0.027344;1.076172;
352644;0.004883;0.023438;1.080078;
352863;0.008789;0.027344;1.100586;
353073;0.006836;0.026367;1.106445;
353293;0.006836;0.026367;1.106445;
353513;0.008789;0.018555;1.107422;
353733;0.006836;0.029297;1.108398;
353953;0.007812;0.027344;1.098633;
354173;0.008789;0.026367;1.110352;
354383;0.011719;0.022461;1.115234;
354603;0.010742;0.027344;1.131836;
354813;0.010742;0.026367;1.147461;
355033;0.009766;0.021484;1.133789;
355244;0.010742;0.024414;1.137695;
355469;0.005859;0.026367;1.120117;
355690;0.007812;0.022461;1.118164;
355923;0.004883;0.026367;1.098633;
356143;0.004883;0.029297;1.092773;
356363;0.004883;0.023438;1.073242;
356574;0.006836;0.024414;1.079102;
356793;0.005859;0.027344;1.085938;
357003;0.004883;0.025391;1.086914;
357213;0.003906;0.028320;1.071289;
357433;0.005859;0.026367;1.083984;
357653;0.007812;0.027344;1.107422;
357873;0.008789;0.027344;1.153320;
358083;0.012695;0.026367;1.166016;
358293;0.015625;0.028320;1.177734;
358513;0.010742;0.029297;1.180664;
