datetime;time;load_cell;board_temperature;pressure_macki;pressure_tank;distance;acc_x;acc_y;acc_z;motor1_speed;motor2_speed;procedure_time;mechanical_state;motor1_temperature;motor2_temperature
2024-11-06_13-44-51.117440;970626;137.333252;23.1875;0.0225;3.95375;65535.0;0.017578;0.021484;0.463867;-60000;-60000;156491;0;2;0
2024-11-06_13-44-51.209105;970843;148.0;23.1875;0.021667;3.95375;65535.0;0.001953;0.022461;0.34668;-60000;-60000;156580;0;0;0
2024-11-06_13-44-51.371115;970843;148.0;23.1875;0.021667;3.95375;65535.0;0.001953;0.022461;0.34668;-60000;-60000;156739;0;0;0
2024-11-06_13-44-51.507023;971067;166.666748;23.1875;0.029167;3.954167;65535.0;0.007812;0.020508;0.283203;-60000;-60000;156881;0;0;0
2024-11-06_13-44-51.663682;971283;173.333252;23.1875;0.054583;3.96;65535.0;0.004883;0.020508;0.210938;-60000;-60000;157041;0;0;0
2024-11-06_13-44-51.819972;971283;173.333252;23.1875;0.054583;3.96;65535.0;0.004883;0.020508;0.210938;-60000;-60000;157191;0;0;0
2024-11-06_13-44-51.992106;971516;189.333252;23.25;0.05;3.95375;65535.0;0.001953;0.017578;0.173828;-60000;-60000;157356;0;0;0
2024-11-06_13-44-52.149463;971738;198.666748;23.1875;3.954583;3.954167;65535.0;0.00293;0.016602;0.129883;-60000;-60000;157530;0;0;0
2024-11-06_13-44-52.290379;971947;196.0;23.1875;0.130417;3.967084;65535.0;0.000977;0.027344;0.112305;-60000;-60000;157671;0;0;0
2024-11-06_13-44-52.448696;971947;196.0;23.1875;0.130417;3.967084;65535.0;0.000977;0.027344;0.112305;-60000;-60000;157813;0;0;0
2024-11-06_13-44-52.621379;972172;202.666748;23.25;0.09875;3.954167;65535.0;0.000977;0.026367;0.114258;-60000;-60000;157969;0;0;0
2024-11-06_13-44-52.747776;972387;190.666748;23.1875;0.098333;3.952917;65535.0;-0.005859;0.025391;0.09668;-60000;-60000;158121;0;0;0
2024-11-06_13-44-52.920496;972387;190.666748;23.1875;0.098333;3.952917;65535.0;-0.005859;0.025391;0.09668;20000;20000;158281;1;0;0
2024-11-06_13-44-53.093031;972606;192.0;23.25;0.111667;3.950417;65535.0;-0.003906;0.027344;0.102539;20000;20000;1;1;0;0
2024-11-06_13-44-53.234530;972813;202.666748;23.25;0.321667;4.204167;65535.0;-0.003906;0.025391;0.098633;20000;20000;161;0;0;0
2024-11-06_13-44-53.392478;973026;190.666748;23.1875;0.4675;4.1825;65535.0;-0.003906;0.026367;0.085938;20000;20000;301;0;0;0
2024-11-06_13-44-53.548624;973026;190.666748;23.1875;0.4675;4.1825;65535.0;-0.003906;0.026367;0.085938;80000;80000;464;0;0;0
2024-11-06_13-44-53.705747;973246;190.666748;23.25;0.1075;3.956667;65535.0;-0.007812;0.024414;0.083984;80000;80000;619;0;0;0
2024-11-06_13-44-53.877974;973465;192.0;23.1875;0.037917;3.94875;65535.0;-0.005859;0.024414;0.073242;80000;80000;792;0;0;0
2024-11-06_13-44-54.004924;973465;192.0;23.1875;0.037917;3.94875;65535.0;-0.005859;0.024414;0.073242;80000;80000;931;0;0;0
2024-11-06_13-44-54.160783;973688;198.666748;23.25;0.080833;3.94875;65535.0;0.000977;0.026367;0.083984;80000;80000;1091;0;0;0
2024-11-06_13-44-54.334610;973903;200.0;23.1875;0.07625;3.94875;65535.0;-0.009766;0.023438;0.051758;80000;80000;1248;0;0;0
2024-11-06_13-44-54.491197;974127;197.333252;23.25;0.08;3.94875;65535.0;-0.004883;0.022461;0.051758;80000;80000;1408;0;0;0
2024-11-06_13-44-54.681330;974127;197.333252;23.25;0.08;3.94875;65535.0;-0.004883;0.022461;0.051758;0;0;1591;0;0;0
2024-11-06_13-44-54.820386;974343;198.666748;23.1875;0.62625;4.002501;65535.0;-0.005859;0.016602;0.041016;0;0;1729;0;0;0
2024-11-06_13-44-54.945533;974564;201.333252;23.1875;0.042917;3.959167;65535.0;-0.010742;0.021484;0.032227;23333;23333;1871;0;0;0
2024-11-06_13-44-55.196618;974773;201.333252;23.1875;0.037917;3.94875;65535.0;-0.006836;0.03125;0.014648;70000;70000;2121;0;0;0
2024-11-06_13-44-55.322132;974773;201.333252;23.1875;0.037917;3.94875;65535.0;-0.006836;0.03125;0.014648;70000;70000;2221;0;0;0
2024-11-06_13-44-55.447340;974986;201.333252;23.1875;0.021667;3.94875;65535.0;-0.010742;0.03418;0.007812;70000;70000;2341;0;0;0
2024-11-06_13-44-55.588210;975193;194.666748;23.1875;0.02625;3.94875;65535.0;-0.007812;0.042969;-0.004883;70000;70000;2511;0;0;0
2024-11-06_13-44-55.760256;975420;186.666748;23.25;3.949583;3.959167;65535.0;-0.009766;0.042969;-0.015625;11666;11666;2681;0;0;0
2024-11-06_13-44-56.012076;975637;169.333252;23.1875;0.5925;4.157917;65535.0;-0.008789;0.043945;-0.020508;-46666;-46666;2921;0;0;0
2024-11-06_13-44-56.207193;975859;204.0;23.1875;0.0225;3.94875;65535.0;-0.010742;0.037109;-0.02832;-70000;-70000;3131;0;0;0
2024-11-06_13-44-56.377803;975859;204.0;23.1875;0.0225;3.94875;65535.0;-0.010742;0.037109;-0.02832;-70000;-70000;3291;0;0;0
2024-11-06_13-44-56.529788;976097;212.0;23.1875;0.1075;3.94875;65535.0;-0.010742;0.036133;-0.02832;-46666;-46666;3441;0;0;0
2024-11-06_13-44-56.701697;976323;208.0;23.1875;0.27125;4.057917;65535.0;-0.013672;0.041016;-0.033203;10000;10000;3602;0;0;0
2024-11-06_13-44-56.826696;976323;208.0;23.1875;0.27125;4.057917;65535.0;-0.013672;0.041016;-0.033203;60000;60000;3744;0;0;0
2024-11-06_13-44-56.998537;976550;216.0;23.1875;0.170417;3.95125;65535.0;-0.012695;0.041016;-0.039062;60000;60000;3911;0;0;0
2024-11-06_13-44-57.125023;976753;204.0;23.25;0.027917;3.943334;65535.0;-0.013672;0.039062;-0.026367;60000;60000;4060;0;0;0
2024-11-06_13-44-57.313281;976976;190.666748;23.1875;0.109583;3.782917;65535.0;-0.012695;0.037109;-0.021484;40000;40000;4230;0;0;0
2024-11-06_13-44-57.478087;976976;190.666748;23.1875;0.109583;3.782917;65535.0;-0.012695;0.037109;-0.021484;10000;10000;4392;0;0;0
2024-11-06_13-44-57.642788;977193;181.333252;23.25;0.190417;0.535;65535.0;-0.012695;0.03418;-0.008789;0;0;4561;0;0;0
2024-11-06_13-44-57.831704;977403;186.666748;23.1875;0.13;3.768333;65535.0;-0.011719;0.033203;-0.016602;0;0;4738;0;0;0
2024-11-06_13-44-58.004959;977628;176.0;23.25;0.169583;3.753751;65535.0;-0.013672;0.038086;-0.001953;0;0;4907;0;0;0
2024-11-06_13-44-58.541537;978066;201.333252;23.1875;0.07875;3.7225;65535.0;-0.013672;0.033203;0.007812;-80000;-80000;5410;0;0;0
2024-11-06_13-44-58.714493;978286;204.0;23.1875;0.07875;3.70625;65535.0;-0.015625;0.037109;0.019531;-80000;-80000;5641;0;0;0
2024-11-06_13-44-58.870054;978503;204.0;23.1875;0.104167;3.692917;65535.0;-0.010742;0.029297;0.03418;-80000;-80000;5790;0;0;0
2024-11-06_13-44-59.104904;978727;210.666748;23.1875;0.167083;3.680834;65535.0;-0.014648;0.038086;0.033203;-60000;-60000;6012;0;0;0
2024-11-06_13-44-59.199037;978727;210.666748;23.1875;0.167083;3.680834;65535.0;-0.014648;0.038086;0.033203;-60000;-60000;6120;0;0;0
2024-11-06_13-44-59.340743;978954;204.0;23.1875;0.270833;3.709584;65535.0;-0.015625;0.03125;0.03125;-60000;-60000;6252;0;0;0
2024-11-06_13-44-59.607911;979177;210.666748;23.1875;0.055833;3.669167;65535.0;-0.011719;0.03418;0.048828;-60000;-60000;6521;0;0;0
2024-11-06_13-44-59.812006;979393;208.0;23.1875;0.097083;3.675417;65535.0;-0.020508;0.03418;0.027344;-60000;-60000;6741;0;0;0
2024-11-06_13-44-59.952933;979618;210.666748;23.1875;3.674583;3.678333;65535.0;-0.014648;0.033203;0.041016;20000;20000;6881;1;0;0
2024-11-06_13-45-00.126265;979618;210.666748;23.1875;3.674583;3.678333;65535.0;-0.014648;0.033203;0.041016;20000;20000;7041;1;0;0
2024-11-06_13-45-00.267327;979827;208.0;23.25;0.615;3.907084;65535.0;-0.013672;0.030273;0.033203;20000;20000;7191;0;0;0
2024-11-06_13-45-00.581844;980057;204.0;23.1875;0.558333;3.846251;65535.0;-0.015625;0.03125;0.026367;20000;20000;7504;0;0;0
2024-11-06_13-45-00.834123;980283;204.0;23.1875;0.09125;3.689167;65535.0;-0.017578;0.03418;0.03418;20000;20000;7743;0;0;0
2024-11-06_13-45-01.037067;980493;208.0;23.25;0.0975;3.689584;65535.0;-0.016602;0.032227;0.03125;20000;20000;7958;0;0;0
2024-11-06_13-45-01.209698;980717;204.0;23.1875;0.050833;3.679167;65535.0;-0.014648;0.02832;0.026367;80000;80000;131;0;0;0
2024-11-06_13-45-01.382458;980933;208.0;23.1875;0.088333;3.68;65535.0;-0.016602;0.032227;0.032227;80000;80000;291;0;0;0
2024-11-06_13-45-01.539749;981156;208.0;23.25;0.07625;3.680834;65535.0;-0.015625;0.033203;0.017578;80000;80000;440;0;0;0
2024-11-06_13-45-01.696357;981156;208.0;23.25;0.07625;3.680834;65535.0;-0.015625;0.033203;0.017578;80000;80000;599;0;0;0
2024-11-06_13-45-01.947062;981596;204.0;23.1875;0.055833;3.685;65535.0;-0.013672;0.03125;0.022461;80000;80000;844;0;0;0
2024-11-06_13-45-02.119750;981596;204.0;23.1875;0.055833;3.685;65535.0;-0.013672;0.03125;0.022461;0;0;1008;0;0;0
2024-11-06_13-45-02.312011;981813;201.333252;23.1875;0.097083;3.684584;65535.0;-0.015625;0.032227;0.023438;0;0;1220;0;0;0
2024-11-06_13-45-02.464155;982036;200.0;23.1875;0.074167;3.7;65535.0;-0.016602;0.032227;0.022461;11666;11666;1380;0;0;0
2024-11-06_13-45-02.749813;982253;201.333252;23.1875;0.10875;3.689167;65535.0;-0.012695;0.03125;0.022461;70000;70000;1670;0;0;0
2024-11-06_13-45-02.920059;982477;201.333252;23.25;0.02125;3.685;65535.0;-0.014648;0.03125;0.013672;70000;70000;1839;0;0;0
2024-11-06_13-45-03.076704;982695;192.0;23.1875;0.026667;3.685;65535.0;-0.016602;0.02832;0.011719;70000;70000;1991;0;0;0
2024-11-06_13-45-03.312122;982919;184.0;23.25;0.06875;3.685417;65535.0;-0.017578;0.033203;0.019531;58333;58333;2201;0;2;0
2024-11-06_13-45-03.422291;982919;184.0;23.25;0.06875;3.685417;65535.0;-0.017578;0.033203;0.019531;-20000;-20000;2323;1;0;0
2024-11-06_13-45-03.563633;983137;142.666748;23.1875;0.338333;3.795417;65535.0;-0.015625;0.030273;0.012695;-11666;-11666;2471;0;0;0
2024-11-06_13-45-03.720151;983359;225.333252;23.1875;0.644583;3.798333;65535.0;-0.014648;0.024414;0.011719;-70000;-70000;2621;0;0;0
2024-11-06_13-45-03.892118;983359;225.333252;23.1875;0.644583;3.798333;65535.0;-0.014648;0.024414;0.011719;-70000;-70000;2801;0;0;0
2024-11-06_13-45-04.048533;983582;206.666748;23.25;0.07125;3.69;65535.0;-0.016602;0.02832;0.013672;-70000;-70000;2960;0;0;0
2024-11-06_13-45-04.173915;983809;204.0;23.1875;3.69;3.690417;65535.0;-0.017578;0.027344;0.016602;-46666;-46666;3081;0;0;0
2024-11-06_13-45-04.346634;983809;204.0;23.1875;3.69;3.690417;65535.0;-0.017578;0.027344;0.016602;19999;19999;3262;0;0;0
2024-11-06_13-45-04.536017;984024;210.666748;23.25;0.48875;3.700417;65535.0;-0.017578;0.024414;0.011719;49999;49999;3451;0;0;0
2024-11-06_13-45-04.645391;984248;204.0;23.25;0.062917;3.708334;65535.0;-0.019531;0.02832;0.009766;60000;60000;3561;0;0;0
2024-11-06_13-45-04.802597;984248;204.0;23.25;0.062917;3.708334;65535.0;-0.019531;0.02832;0.009766;60000;60000;3717;0;0;0
2024-11-06_13-45-05.054888;984696;181.333252;23.25;0.098333;3.499583;65535.0;-0.019531;0.023438;0.001953;-20000;-20000;3953;1;0;0
2024-11-06_13-45-05.133636;984696;181.333252;23.25;0.098333;3.499583;65535.0;-0.019531;0.023438;0.001953;50000;50000;4052;0;0;0
2024-11-06_13-45-05.290003;984913;140.0;23.1875;0.526667;3.80125;65535.0;-0.019531;0.024414;0.00293;-20000;-20000;4191;1;0;0
2024-11-06_13-45-05.461431;984913;140.0;23.1875;0.526667;3.80125;65535.0;-0.019531;0.024414;0.00293;30000;30000;4363;0;1;0
2024-11-06_13-45-05.682472;985140;186.666748;23.25;0.440417;3.62375;65535.0;-0.018555;0.027344;0.016602;-20000;-20000;4588;1;0;0
2024-11-06_13-45-05.776828;985367;150.666748;23.1875;0.279167;3.659583;65535.0;-0.017578;0.02832;0.011719;-20000;-20000;4692;1;0;0
2024-11-06_13-45-05.933126;985583;182.666748;23.1875;0.23125;3.557917;65535.0;-0.019531;0.027344;0.005859;-20000;-20000;4850;0;1;0
2024-11-06_13-45-06.074345;985583;182.666748;23.1875;0.23125;3.557917;65535.0;-0.019531;0.027344;0.005859;-20000;-20000;4981;0;1;0
2024-11-06_13-45-06.237142;985809;173.333252;23.25;0.117083;3.477917;65535.0;-0.018555;0.027344;0.00293;0;0;5140;0;0;0
2024-11-06_13-45-06.387796;986023;169.333252;23.25;0.09;3.464167;65535.0;-0.021484;0.02832;0.00293;-53333;-53333;5277;0;0;0
2024-11-06_13-45-06.606497;986247;181.333252;23.25;0.07875;3.448334;65535.0;-0.018555;0.026367;0.005859;-80000;-80000;5503;0;0;0
2024-11-06_13-45-06.684671;986247;181.333252;23.25;0.07875;3.448334;65535.0;-0.018555;0.026367;0.005859;-80000;-80000;5591;0;0;0
2024-11-06_13-45-06.841695;986456;206.666748;23.25;0.07875;3.4375;65535.0;-0.021484;0.024414;-0.022461;-80000;-80000;5740;0;0;0
2024-11-06_13-45-06.982549;986456;206.666748;23.25;0.07875;3.4375;65535.0;-0.021484;0.024414;-0.022461;-80000;-80000;5891;0;0;0
2024-11-06_13-45-07.263796;986893;216.0;23.25;0.085833;3.414167;65535.0;-0.019531;0.025391;0.006836;-60000;-60000;6170;0;0;0
2024-11-06_13-45-07.488078;987117;210.666748;23.25;0.19875;3.41;65535.0;-0.021484;0.025391;0.012695;-60000;-60000;6400;0;0;0
2024-11-06_13-45-07.641463;987117;210.666748;23.25;0.19875;3.41;65535.0;-0.021484;0.025391;0.012695;-60000;-60000;6531;0;0;0
2024-11-06_13-45-07.908556;987556;216.0;23.25;0.1125;3.405833;65535.0;-0.019531;0.025391;0.015625;-60000;-60000;6805;0;0;0
2024-11-06_13-45-08.097307;987556;216.0;23.25;0.1125;3.405833;65535.0;-0.019531;0.025391;0.015625;-60000;-60000;7001;0;0;0
2024-11-06_13-45-08.379822;988000;212.0;23.25;3.4075;3.4075;65535.0;-0.020508;0.025391;0.014648;20000;20000;7301;1;0;0
2024-11-06_13-45-08.568333;988212;212.0;23.25;0.334167;3.463333;65535.0;-0.025391;0.021484;0.015625;20000;20000;7471;1;0;0
2024-11-06_13-45-08.710394;988212;212.0;23.25;0.334167;3.463333;65535.0;-0.025391;0.021484;0.015625;20000;20000;7631;0;0;0
2024-11-06_13-45-08.928710;988442;210.666748;23.25;0.191667;3.47;65535.0;-0.001953;0.017578;0.051758;20000;20000;7839;0;0;0
2024-11-06_13-45-09.022820;988658;206.666748;23.25;0.10875;3.419167;65535.0;-0.021484;0.021484;0.023438;20000;20000;7940;0;0;0
2024-11-06_13-45-09.210994;988658;206.666748;23.25;0.10875;3.419167;65535.0;-0.021484;0.021484;0.023438;20000;20000;8115;0;0;0
2024-11-06_13-45-09.336402;988876;208.0;23.25;0.059583;3.410834;65535.0;-0.025391;0.025391;0.024414;80000;80000;99;0;0;0
2024-11-06_13-45-09.508574;989093;212.0;23.25;0.02625;3.410417;65535.0;-0.022461;0.026367;0.016602;80000;80000;270;0;0;0
2024-11-06_13-45-09.744441;989316;206.666748;23.25;0.049583;3.41125;65535.0;-0.020508;0.027344;0.026367;80000;80000;490;0;0;0
2024-11-06_13-45-09.854987;989316;206.666748;23.25;0.049583;3.41125;65535.0;-0.020508;0.027344;0.026367;80000;80000;602;0;0;0
2024-11-06_13-45-10.042389;989536;201.333252;23.25;0.083333;3.41625;65535.0;-0.022461;0.023438;0.046875;80000;80000;785;0;0;0
2024-11-06_13-45-10.120577;989753;204.0;23.25;0.069583;3.415833;65535.0;-0.029297;0.029297;0.020508;80000;80000;871;0;0;0
2024-11-06_13-45-10.308133;989753;204.0;23.25;0.069583;3.415833;65535.0;-0.029297;0.029297;0.020508;0;0;1037;0;0;0
2024-11-06_13-45-10.433187;989976;208.0;23.25;0.13125;3.415833;65535.0;-0.026367;0.027344;0.022461;0;0;1191;0;0;0
2024-11-06_13-45-10.574812;990193;208.0;23.25;0.109583;3.427917;65535.0;-0.025391;0.030273;0.014648;0;0;1331;0;0;0
2024-11-06_13-45-10.733364;990193;208.0;23.25;0.109583;3.427917;65535.0;-0.025391;0.030273;0.014648;35000;35000;1489;0;0;0
2024-11-06_13-45-10.910995;990421;208.0;23.25;0.083333;3.41625;65535.0;-0.029297;0.02832;0.011719;70000;70000;1659;0;0;0
2024-11-06_13-45-11.093839;990633;204.0;23.25;0.022083;3.415833;65535.0;-0.02832;0.027344;0.008789;70000;70000;1838;0;0;0
2024-11-06_13-45-11.218647;990856;206.666748;23.25;0.021667;3.415833;65535.0;-0.027344;0.022461;0.012695;70000;70000;1961;0;0;0
2024-11-06_13-45-11.359376;990856;206.666748;23.25;0.021667;3.415833;65535.0;-0.027344;0.022461;0.012695;58333;58333;2120;0;0;0
2024-11-06_13-45-11.552213;991073;198.666748;23.3125;0.035;3.42125;65535.0;-0.027344;0.029297;-0.000977;0;0;2281;0;0;0
2024-11-06_13-45-11.692469;991299;200.0;23.25;0.369583;3.649167;65535.0;-0.026367;0.022461;-0.003906;-58333;-58333;2431;0;0;0
2024-11-06_13-45-11.845156;991299;200.0;23.25;0.369583;3.649167;65535.0;-0.026367;0.022461;-0.003906;-70000;-70000;2591;0;0;0
2024-11-06_13-45-12.112619;991742;212.0;23.3125;0.0525;3.42125;65535.0;-0.027344;0.025391;-0.015625;-70000;-70000;2864;0;0;0
2024-11-06_13-45-12.317361;991952;218.666748;23.3125;0.116667;3.421667;65535.0;-0.029297;0.023438;-0.006836;-35000;-35000;3061;0;0;0
2024-11-06_13-45-12.458876;991952;218.666748;23.3125;0.116667;3.421667;65535.0;-0.029297;0.023438;-0.006836;19999;19999;3204;0;0;0
2024-11-06_13-45-12.614756;992171;216.0;23.3125;3.450834;3.617084;65535.0;-0.033203;0.020508;-0.011719;60000;60000;3363;0;0;0
2024-11-06_13-45-12.865819;992383;208.0;23.3125;0.0525;3.421667;65535.0;-0.03125;0.017578;0.0;60000;60000;3611;0;0;0
2024-11-06_13-45-12.959448;992597;204.0;23.3125;0.099167;3.42125;65535.0;-0.032227;0.015625;0.010742;60000;60000;3722;0;0;0
2024-11-06_13-45-13.119890;992597;204.0;23.3125;0.099167;3.42125;65535.0;-0.032227;0.015625;0.010742;40000;40000;3850;0;0;0
2024-11-06_13-45-13.258874;992814;190.666748;23.3125;0.101667;3.309167;65535.0;-0.033203;0.019531;0.020508;0;0;4013;0;0;0
2024-11-06_13-45-13.432173;993030;198.666748;23.3125;0.368333;3.464584;65535.0;-0.03418;0.023438;0.029297;0;0;4182;0;0;0
2024-11-06_13-45-13.557741;993030;198.666748;23.3125;0.368333;3.464584;65535.0;-0.03418;0.023438;0.029297;0;0;4321;0;0;0
2024-11-06_13-45-13.716413;993258;201.333252;23.3125;0.152083;3.257917;65535.0;-0.037109;0.030273;0.035156;0;0;4469;0;0;0
2024-11-06_13-45-13.872033;993479;202.666748;23.3125;0.142917;3.247083;65535.0;-0.03418;0.036133;0.045898;-53333;-53333;4622;0;0;0
2024-11-06_13-45-14.013288;993479;202.666748;23.3125;0.142917;3.247083;65535.0;-0.03418;0.036133;0.045898;-66666;-66666;4760;0;0;0
2024-11-06_13-45-14.186682;993683;200.0;23.3125;0.0825;3.225834;65535.0;-0.037109;0.038086;0.048828;-80000;-80000;4926;0;0;0
2024-11-06_13-45-14.483269;994126;208.0;23.3125;0.07875;3.199167;65535.0;-0.037109;0.035156;0.049805;-80000;-80000;5214;0;0;0
2024-11-06_13-45-14.639971;994126;208.0;23.3125;0.07875;3.199167;65535.0;-0.037109;0.035156;0.049805;-80000;-80000;5401;0;0;0
2024-11-06_13-45-14.812997;994346;208.0;23.375;0.12875;3.188334;65535.0;-0.042969;0.032227;0.03125;-80000;-80000;5551;0;0;0
2024-11-06_13-45-14.954508;994563;204.0;23.3125;0.162083;3.1775;65535.0;-0.045898;0.033203;0.053711;-60000;-60000;5711;0;0;0
2024-11-06_13-45-15.111717;994773;192.0;23.375;0.162083;3.213333;65535.0;-0.048828;0.03418;0.101562;-60000;-60000;5870;0;0;0
2024-11-06_13-45-15.345999;994997;181.333252;23.3125;0.116667;3.161667;65535.0;-0.045898;0.032227;0.166016;-60000;-60000;6100;0;0;0
2024-11-06_13-45-15.440073;994997;181.333252;23.3125;0.116667;3.161667;65535.0;-0.045898;0.032227;0.166016;-60000;-60000;6191;0;0;0
2024-11-06_13-45-15.596686;995216;154.666748;23.3125;0.133333;3.1675;65535.0;-0.043945;0.02832;0.300781;20000;20000;6335;1;0;0
2024-11-06_13-45-15.753211;995216;154.666748;23.3125;0.133333;3.1675;65535.0;-0.043945;0.02832;0.300781;20000;20000;6501;0;0;0
2024-11-06_13-45-15.893989;995436;128.0;23.375;0.44625;3.376667;65535.0;-0.037109;0.035156;0.449219;20000;20000;6651;0;0;0
2024-11-06_13-45-16.050249;995656;100.0;23.375;0.0625;3.18;65535.0;-0.026367;0.036133;0.648438;20000;20000;6799;0;0;0
2024-11-06_13-45-16.207143;995875;69.333252;23.375;0.065417;3.182917;65535.0;-0.013672;0.035156;0.833984;20000;20000;6961;0;0;0
2024-11-06_13-45-16.363641;995875;69.333252;23.375;0.065417;3.182917;65535.0;-0.013672;0.035156;0.833984;20000;20000;7121;0;0;0
2024-11-06_13-45-16.630337;996099;50.666748;23.375;0.029167;3.171667;65535.0;-0.007812;0.038086;0.933594;20000;20000;7384;0;0;0
2024-11-06_13-45-16.958966;996553;18.666626;23.375;0.02125;3.1775;65535.0;0.005859;0.033203;1.147461;80000;80000;3;0;0;0
2024-11-06_13-45-17.131173;996767;8.0;23.375;0.07375;3.177917;65535.0;0.022461;0.03125;1.243164;80000;80000;182;0;0;0
2024-11-06_13-45-17.491655;996979;-5.333374;23.375;0.036667;3.182917;65535.0;0.026367;0.027344;1.298828;80000;80000;528;0;0;0
2024-11-06_13-45-17.784750;997418;-29.333374;23.375;0.085417;3.1875;65535.0;0.040039;0.03418;1.436523;80000;80000;817;0;0;0
2024-11-06_13-45-17.930340;997418;-29.333374;23.375;0.085417;3.1875;65535.0;0.040039;0.03418;1.436523;80000;80000;973;0;0;0
2024-11-06_13-45-18.102817;997634;-48.0;23.375;0.029583;3.18875;65535.0;0.047852;0.032227;1.506836;0;0;1135;0;0;0
2024-11-06_13-45-18.259806;997856;-64.0;23.4375;0.12875;3.19375;65535.0;0.049805;0.02832;1.55957;0;0;1302;0;0;0
2024-11-06_13-45-18.401387;997856;-64.0;23.4375;0.12875;3.19375;65535.0;0.049805;0.02832;1.55957;35000;35000;1440;0;0;0
2024-11-06_13-45-18.605384;998073;-70.666626;23.375;0.103333;3.1975;65535.0;0.051758;0.02832;1.616211;70000;70000;1607;0;0;0
