datetime;time;load_cell;board_temperature;pressure_macki;pressure_tank;distance;acc_x;acc_y;acc_z;motor1_speed;motor2_speed;procedure_time;mechanical_state;motor1_temperature;motor2_temperature
2024-11-05_09-47-51.715723;1105952;146.666748;21.5;0.021667;3.647083;200.0;-0.000977;0.03125;0.049805;-60000;-60000;1106155;0;0;0
2024-11-05_09-47-51.919110;1106238;150.666748;21.5;0.075;3.6475;181.0;-0.003906;0.038086;0.046875;-60000;-60000;1106345;0;0;0
2024-11-05_09-47-52.029138;1106238;150.666748;21.5;0.075;3.6475;181.0;-0.003906;0.038086;0.046875;-60000;-60000;1106455;0;0;0
2024-11-05_09-47-52.190461;1106392;150.666748;21.5;0.13875;3.6475;173.0;-0.00293;0.041992;0.048828;-60000;-60000;1106615;0;0;0
2024-11-05_09-47-52.358043;1106687;153.333252;21.5;0.08125;3.6475;149.0;-0.005859;0.03418;0.047852;-60000;-60000;1106784;0;0;0
2024-11-05_09-47-52.498674;1106831;154.666748;21.5;0.180417;3.657084;141.0;-0.004883;0.032227;0.045898;-60000;-60000;1106925;0;0;0
2024-11-05_09-47-52.639327;1106971;150.666748;21.5;0.06625;3.653334;126.0;-0.004883;0.035156;0.042969;-60000;-60000;1107075;0;0;0
2024-11-05_09-47-52.811949;1107110;150.666748;21.5;0.190833;3.672917;122.0;-0.006836;0.036133;0.035156;-60000;-60000;1107235;0;0;0
2024-11-05_09-47-52.952623;1107251;150.666748;21.5;0.087083;3.65375;114.0;-0.004883;0.035156;0.057617;-60000;-60000;1107384;0;0;0
2024-11-05_09-47-53.141101;1107390;150.666748;21.5;0.075;3.65125;102.0;-0.006836;0.035156;0.053711;-60000;-60000;1107553;0;0;0
2024-11-05_09-47-53.266243;1107531;154.666748;21.5;0.19;3.645417;94.0;-0.007812;0.037109;0.042969;20000;20000;1107695;1;0;0
2024-11-05_09-47-53.423004;1107670;148.0;21.5;0.53375;3.885417;90.0;-0.009766;0.03418;0.041016;20000;20000;1107866;0;0;0
2024-11-05_09-47-53.594879;1107811;156.0;21.5;0.4175;3.88625;93.0;-0.009766;0.033203;0.044922;20000;20000;1108015;0;0;0
2024-11-05_09-47-53.845496;1108093;146.666748;21.5;0.086667;3.644584;91.0;-0.009766;0.03418;0.050781;60000;60000;168;0;0;0
2024-11-05_09-47-53.955172;1108241;-18.666626;21.5;0.115417;3.642083;96.0;-0.009766;0.03418;0.049805;60000;60000;279;0;0;0
2024-11-05_09-47-54.065096;1108378;-18.666626;21.5;0.035;3.642083;105.0;-0.011719;0.032227;0.046875;60000;60000;389;0;0;0
2024-11-05_09-47-54.221311;1108521;-16.0;21.5;0.059167;3.646667;114.0;-0.014648;0.033203;0.035156;60000;60000;539;0;0;0
2024-11-05_09-47-54.393403;1108658;-20.0;21.5;0.12125;3.645417;125.0;-0.009766;0.029297;0.032227;60000;60000;699;0;0;0
2024-11-05_09-47-54.519323;1108800;-18.666626;21.5;0.080833;3.642083;133.0;-0.010742;0.027344;0.030273;60000;60000;849;0;0;0
2024-11-05_09-47-54.659986;1108946;-18.666626;21.5;0.179167;3.654167;145.0;-0.007812;0.026367;0.027344;60000;60000;990;0;0;0
2024-11-05_09-47-54.832301;1109100;-21.333374;21.5;0.092083;3.66125;156.0;-0.008789;0.025391;0.027344;60000;60000;1159;0;0;0
2024-11-05_09-47-54.972960;1109258;-17.333374;21.4375;0.162917;3.642083;168.0;-0.010742;0.024414;0.016602;60000;60000;1293;0;0;0
2024-11-05_09-47-55.129973;1109385;-25.333374;21.5;0.087083;3.645833;176.0;-0.008789;0.019531;0.015625;60000;60000;1459;0;0;0
2024-11-05_09-47-55.302906;1109531;-20.0;21.5;0.138333;3.6425;186.0;-0.006836;0.021484;0.016602;60000;60000;1617;0;0;0
2024-11-05_09-47-55.506333;1109818;-25.333374;21.5;0.137917;3.643333;205.0;-0.010742;0.020508;0.009766;39999;39999;1839;0;2;0
2024-11-05_09-47-55.694417;1109961;-26.666626;21.5;0.285;3.64875;215.0;-0.009766;0.023438;0.005859;30000;30000;2010;0;0;0
2024-11-05_09-47-55.804179;1110110;-22.666626;21.5;0.145833;3.715;219.0;-0.014648;0.025391;-0.005859;20000;20000;2119;0;0;0
2024-11-05_09-47-55.929248;1110251;-18.666626;21.5;0.41125;3.67375;222.0;-0.014648;0.025391;-0.007812;0;0;2249;0;0;0
2024-11-05_09-47-56.101458;1110392;-25.333374;21.5;0.99125;3.481667;221.0;-0.011719;0.021484;0.0;-19999;-19999;2413;0;2;2
2024-11-05_09-47-56.242076;1110538;-16.0;21.5;0.770833;3.59;219.0;-0.011719;0.023438;0.010742;-30000;-30000;2563;0;0;0
2024-11-05_09-47-56.414217;1110680;-10.666626;21.5;0.866667;3.469584;212.0;-0.011719;0.019531;0.008789;-49999;-49999;2728;0;0;0
2024-11-05_09-47-56.589728;1110832;10.666626;21.5;0.855833;3.459167;205.0;-0.012695;0.018555;0.013672;-60000;-60000;2898;0;0;0
2024-11-05_09-47-56.696026;1110981;58.666748;21.5;0.912083;3.45375;199.0;-0.013672;0.016602;0.021484;-60000;-60000;3029;0;0;0
2024-11-05_09-47-56.852490;1111120;105.333252;21.5;0.943333;3.449167;189.0;-0.014648;0.020508;0.012695;-60000;-60000;3179;0;0;0
2024-11-05_09-47-57.024720;1111268;169.333252;21.5;0.999583;3.448334;177.0;-0.014648;0.022461;0.018555;-60000;-60000;3349;0;0;0
2024-11-05_09-47-57.192929;1111413;234.666748;21.5;1.048333;3.45375;165.0;-0.013672;0.023438;0.023438;-60000;-60000;3500;0;0;0
2024-11-05_09-47-57.361314;1111701;365.333252;21.5;1.062083;3.446667;144.0;-0.011719;0.017578;0.029297;-60000;-60000;3678;0;0;0
2024-11-05_09-47-57.494902;1111701;365.333252;21.5;1.062083;3.446667;144.0;-0.011719;0.017578;0.029297;-60000;-60000;3809;0;0;0
2024-11-05_09-47-57.651588;1111844;190.666748;21.5;1.021667;3.447084;137.0;-0.013672;0.018555;0.033203;-60000;-60000;3978;0;0;0
2024-11-05_09-47-57.808282;1112150;14.666626;21.5;1.004583;3.44375;115.0;-0.012695;0.021484;0.036133;-60000;-60000;4128;0;0;0
2024-11-05_09-47-57.949109;1112292;12.0;21.5;0.845833;3.448334;103.0;-0.014648;0.019531;0.035156;-60000;-60000;4279;0;0;0
2024-11-05_09-47-58.105856;1112438;-16.0;21.5;0.71375;3.448334;96.0;-0.014648;0.021484;0.026367;-60000;-60000;4439;0;0;0
2024-11-05_09-47-58.282999;1112581;-13.333374;21.5;0.666667;3.44875;90.0;-0.014648;0.021484;0.026367;20000;20000;4599;1;0;0
2024-11-05_09-47-58.482321;1112718;-16.0;21.5;0.8075;3.629583;88.0;-0.014648;0.022461;0.027344;20000;20000;4766;1;0;0
2024-11-05_09-47-58.591643;1112861;-16.0;21.5;0.535;3.57375;92.0;-0.009766;0.016602;0.063477;20000;20000;4919;1;0;0
2024-11-05_09-47-58.764699;1112998;-17.333374;21.5;0.553333;3.64;96.0;-0.014648;0.025391;0.027344;20000;20000;5078;0;0;0
2024-11-05_09-47-58.897621;1113141;-17.333374;21.5;0.570417;3.455417;97.0;-0.013672;0.021484;0.029297;20000;20000;5219;0;0;0
2024-11-05_09-47-59.046865;1113278;-16.0;21.5;0.065417;3.45125;95.0;-0.013672;0.019531;0.025391;20000;20000;5369;0;0;0
2024-11-05_09-47-59.296953;1113560;-16.0;21.5;0.075417;3.45375;97.0;-0.014648;0.022461;0.025391;20000;20000;5618;0;0;0
2024-11-05_09-47-59.375315;1113701;-13.333374;21.5;0.020417;3.45375;98.0;-0.014648;0.020508;0.021484;20000;20000;5699;0;0;0
2024-11-05_09-47-59.625564;1113840;-17.333374;21.5;0.023333;3.45375;97.0;-0.014648;0.016602;0.020508;20000;20000;5913;0;0;0
2024-11-05_09-47-59.719380;1113981;-17.333374;21.5;0.021667;3.453334;96.0;-0.012695;0.018555;0.023438;60000;60000;50;0;0;0
2024-11-05_09-47-59.969872;1114272;-10.666626;21.5;0.065417;3.45375;113.0;-0.014648;0.017578;0.029297;60000;60000;303;0;0;0
2024-11-05_09-48-00.142026;1114431;-18.666626;21.5;0.100417;3.463333;120.0;-0.012695;0.018555;0.019531;60000;60000;491;0;0;0
2024-11-05_09-48-00.315159;1114579;-16.0;21.5;0.046667;3.454583;132.0;-0.013672;0.021484;0.021484;60000;60000;650;0;0;0
2024-11-05_09-48-00.487648;1114722;-16.0;21.5;0.1275;3.461667;142.0;-0.014648;0.016602;0.013672;60000;60000;824;0;0;0
2024-11-05_09-48-00.597646;1114868;-16.0;21.5;0.1075;3.4725;150.0;-0.014648;0.017578;0.018555;60000;60000;939;0;0;0
2024-11-05_09-48-00.801069;1115011;-17.333374;21.5;0.119583;3.472083;159.0;-0.014648;0.020508;0.005859;60000;60000;1111;0;0;0
2024-11-05_09-48-00.957283;1115292;-17.333374;21.5625;0.063333;3.460834;183.0;-0.016602;0.018555;0.009766;60000;60000;1300;0;0;0
2024-11-05_09-48-01.144815;1115441;-21.333374;21.5;0.049167;3.464584;194.0;-0.016602;0.023438;0.004883;60000;60000;1479;0;0;0
2024-11-05_09-48-01.369035;1115579;-25.333374;21.5;0.057083;3.462917;202.0;-0.011719;0.019531;0.009766;39999;39999;1699;0;2;0
2024-11-05_09-48-01.552081;1115858;-53.333374;21.5;0.2325;3.464167;218.0;-0.015625;0.015625;0.012695;30000;30000;1890;0;0;0
2024-11-05_09-48-01.771320;1116001;-57.333374;21.5;0.192083;3.294584;224.0;-0.014648;0.018555;0.011719;10000;10000;2088;0;0;0
2024-11-05_09-48-01.963048;1116281;-58.666626;21.5625;0.744583;3.32875;230.0;-0.015625;0.019531;0.012695;0;0;2270;0;0;0
2024-11-05_09-48-02.194901;1116419;-64.0;21.5;0.952917;3.357917;229.0;-0.015625;0.016602;0.007812;-30000;-30000;2519;0;0;0
2024-11-05_09-48-02.414702;1116718;-36.0;21.5625;3.28;3.279167;218.0;-0.014648;0.018555;0.004883;-49999;-49999;2750;0;0;0
2024-11-05_09-48-02.571054;1116865;-22.666626;21.5625;0.90875;3.274167;207.0;-0.014648;0.017578;0.004883;-60000;-60000;2914;0;0;0
2024-11-05_09-48-02.712310;1117020;-8.0;21.5;0.9525;3.274167;201.0;-0.014648;0.016602;0.007812;-60000;-60000;3051;0;0;0
2024-11-05_09-48-02.916083;1117174;8.0;21.5;1.005;3.26875;184.0;-0.017578;0.018555;0.004883;-60000;-60000;3240;0;0;0
2024-11-05_09-48-03.120101;1117461;41.333374;21.5625;1.037917;3.269167;164.0;-0.014648;0.016602;0.008789;-60000;-60000;3462;0;0;0
2024-11-05_09-48-03.276314;1117598;44.0;21.5625;1.0475;3.272083;154.0;-0.014648;0.020508;0.009766;-60000;-60000;3610;0;0;0
2024-11-05_09-48-03.542403;1117878;18.666626;21.5625;1.052083;3.27125;136.0;-0.013672;0.017578;0.008789;-60000;-60000;3877;0;0;0
2024-11-05_09-48-03.824557;1118168;-1.333374;21.5;0.987917;3.28125;117.0;-0.015625;0.019531;0.000977;-60000;-60000;4160;0;0;0
2024-11-05_09-48-03.902675;1118168;-1.333374;21.5;0.987917;3.28125;117.0;-0.015625;0.019531;0.000977;-60000;-60000;4240;0;0;0
2024-11-05_09-48-04.043395;1118312;0.0;21.5625;0.850833;3.283334;105.0;-0.017578;0.019531;0.00293;-60000;-60000;4380;0;0;0
2024-11-05_09-48-04.232362;1118461;-8.0;21.5625;0.729167;3.277083;97.0;-0.018555;0.019531;0.007812;-60000;-60000;4559;0;0;0
2024-11-05_09-48-04.389060;1118598;-16.0;21.5625;0.584167;3.274167;88.0;-0.016602;0.015625;0.006836;20000;20000;4710;1;0;0
2024-11-05_09-48-04.530095;1118878;-16.0;21.5625;0.6875;3.441667;94.0;-0.016602;0.018555;0.001953;20000;20000;4860;1;0;0
2024-11-05_09-48-04.780098;1119021;-13.333374;21.5625;0.39625;3.3075;94.0;-0.016602;0.022461;0.008789;20000;20000;5126;0;0;0
2024-11-05_09-48-04.858315;1119158;-16.0;21.5625;0.132917;3.280417;95.0;-0.016602;0.016602;0.005859;20000;20000;5201;0;0;0
2024-11-05_09-48-04.999563;1119312;-13.333374;21.5625;0.130833;3.276667;95.0;-0.018555;0.017578;0.007812;20000;20000;5332;0;0;0
2024-11-05_09-48-05.280921;1119619;-13.333374;21.5625;0.025;3.274584;93.0;-0.018555;0.019531;0.003906;20000;20000;5607;0;0;0
2024-11-05_09-48-05.499990;1119765;-13.333374;21.5625;0.025417;3.277083;94.0;-0.018555;0.019531;0.008789;20000;20000;5805;0;0;0
2024-11-05_09-48-05.640622;1119911;-13.333374;21.5625;0.02125;3.279167;94.0;-0.017578;0.021484;0.001953;20000;20000;5990;0;0;0
2024-11-05_09-48-05.891084;1120193;-13.333374;21.5625;0.054583;3.279584;100.0;-0.018555;0.020508;0.007812;60000;60000;132;0;2;0
2024-11-05_09-48-06.094769;1120341;-13.333374;21.5625;0.08375;3.279584;111.0;-0.018555;0.018555;0.00293;60000;60000;339;0;0;0
2024-11-05_09-48-06.235427;1120480;-16.0;21.5625;0.100833;3.279584;117.0;-0.019531;0.023438;0.007812;60000;60000;498;0;0;0
2024-11-05_09-48-06.478976;1120761;-16.0;21.5625;0.082917;3.279167;137.0;-0.020508;0.022461;0.010742;60000;60000;719;0;0;0
2024-11-05_09-48-06.674171;1120899;-16.0;21.5625;0.046667;3.279584;145.0;-0.022461;0.020508;0.007812;60000;60000;897;0;0;0
2024-11-05_09-48-06.894771;1121178;-18.666626;21.625;0.064583;3.28375;166.0;-0.022461;0.019531;0.015625;60000;60000;1152;0;0;0
2024-11-05_09-48-07.113367;1121323;-20.0;21.5625;0.11125;3.284583;178.0;-0.018555;0.020508;0.018555;60000;60000;1367;0;0;0
2024-11-05_09-48-07.207115;1121468;-18.666626;21.5625;0.07;3.284583;188.0;-0.020508;0.017578;0.011719;60000;60000;1470;0;0;0
2024-11-05_09-48-07.426324;1121749;-22.666626;21.625;0.0825;3.284583;208.0;-0.022461;0.018555;0.017578;50000;50000;1691;0;0;0
2024-11-05_09-48-07.661126;1121898;-36.0;21.625;0.169583;3.291667;218.0;-0.019531;0.016602;0.020508;30000;30000;1914;0;0;0
2024-11-05_09-48-07.786072;1122048;-38.666626;21.625;3.29125;3.325834;224.0;-0.022461;0.017578;0.008789;20000;20000;2041;0;0;0
2024-11-05_09-48-07.957952;1122187;-38.666626;21.5625;0.413333;3.132917;227.0;-0.020508;0.015625;0.016602;0;0;2201;0;0;0
2024-11-05_09-48-08.114444;1122338;-48.0;21.5625;0.609583;3.14375;232.0;-0.020508;0.018555;0.010742;-19999;-19999;2372;0;0;0
2024-11-05_09-48-08.286655;1122494;-36.0;21.5625;0.664167;3.129583;225.0;-0.023438;0.020508;0.005859;-40000;-40000;2530;0;0;0
2024-11-05_09-48-08.536923;1122778;1.333374;21.625;0.81125;3.11875;212.0;-0.022461;0.021484;0.001953;-60000;-60000;2796;0;0;0
2024-11-05_09-48-08.724429;1123072;50.666748;21.5625;0.93375;3.108334;193.0;-0.025391;0.020508;-0.000977;-60000;-60000;2990;0;0;0
2024-11-05_09-48-08.990466;1123218;106.666748;21.625;0.977917;3.118334;183.0;-0.023438;0.022461;0.000977;-60000;-60000;3250;0;0;0
2024-11-05_09-48-09.146708;1123361;154.666748;21.625;1.025417;3.103333;172.0;-0.024414;0.020508;-0.001953;-60000;-60000;3364;0;0;0
2024-11-05_09-48-09.302957;1123638;140.0;21.625;1.04875;3.102917;149.0;-0.022461;0.018555;-0.00293;-60000;-60000;3560;0;0;0
2024-11-05_09-48-09.397216;1123638;140.0;21.625;1.04875;3.102917;149.0;-0.022461;0.018555;-0.00293;-60000;-60000;3650;0;0;0
2024-11-05_09-48-09.523052;1123782;57.333252;21.625;1.028333;3.11625;141.0;-0.026367;0.021484;-0.010742;-60000;-60000;3780;0;0;0
2024-11-05_09-48-09.679936;1123936;58.666748;21.625;0.9875;3.102917;131.0;-0.026367;0.018555;-0.007812;-60000;-60000;3939;0;0;0
2024-11-05_09-48-09.883587;1124221;0.0;21.625;0.767917;3.108334;112.0;-0.026367;0.020508;-0.009766;-60000;-60000;4150;0;0;0
2024-11-05_09-48-10.024152;1124358;-8.0;21.625;0.649167;3.110417;103.0;-0.023438;0.023438;-0.005859;-60000;-60000;4270;0;0;0
2024-11-05_09-48-10.227947;1124501;-5.333374;21.625;0.535417;3.1125;93.0;-0.024414;0.022461;-0.005859;20000;20000;4479;1;0;0
2024-11-05_09-48-10.322171;1124642;-10.666626;21.625;1.057917;3.452917;89.0;-0.025391;0.022461;-0.000977;20000;20000;4559;1;0;0
2024-11-05_09-48-10.463123;1124780;-13.333374;21.625;0.469167;3.120833;91.0;-0.029297;0.027344;-0.00293;20000;20000;4731;1;0;0
2024-11-05_09-48-10.697971;1124925;-8.0;21.625;0.608333;3.468333;92.0;-0.02832;0.025391;0.012695;20000;20000;4944;0;0;0
2024-11-05_09-48-10.854184;1125078;-13.333374;21.625;0.11625;0.085417;95.0;-0.03125;0.025391;0.007812;20000;20000;5110;0;0;0
2024-11-05_09-48-10.947781;1125221;-17.333374;21.625;0.115;3.11875;95.0;-0.029297;0.023438;0.013672;20000;20000;5200;0;0;0
2024-11-05_09-48-11.073271;1125358;-17.333374;21.625;0.117917;3.11875;94.0;-0.029297;0.021484;0.025391;20000;20000;5340;0;0;0
2024-11-05_09-48-11.229421;1125502;-16.0;21.625;0.043333;3.115417;94.0;-0.03125;0.022461;0.026367;20000;20000;5489;0;0;0
2024-11-05_09-48-11.715150;1125931;-21.333374;21.625;0.021667;3.113333;94.0;-0.03418;0.023438;0.040039;60000;60000;164;0;0;0
2024-11-05_09-48-11.918273;1126211;-22.666626;21.6875;0.027917;3.113333;114.0;-0.039062;0.018555;0.008789;60000;60000;373;0;0;0
2024-11-05_09-48-12.043310;1126348;-20.0;21.625;0.090833;3.11375;124.0;-0.02832;0.015625;0.051758;60000;60000;496;0;0;0
2024-11-05_09-48-12.169066;1126491;-22.666626;21.625;0.139583;3.117084;133.0;-0.03125;0.016602;0.043945;60000;60000;626;0;0;0
2024-11-05_09-48-12.325776;1126628;-22.666626;21.6875;0.074167;3.115833;143.0;-0.03125;0.015625;0.044922;60000;60000;786;0;0;0
