datetime;time;load_cell;board_temperature;pressure_macki;pressure_tank;distance;acc_x;acc_y;acc_z;motor1_speed;motor2_speed;procedure_time;mechanical_state;motor1_temperature;motor2_temperature
2024-11-05_09-30-26.838411;62665;-2000.0;19.25;0.02125;3.9525;203.0;0.027344;0.038086;1.007812;0;0;62795;0;0;0
2024-11-05_09-30-27.010728;62803;-2000.0;19.25;0.02125;3.952917;206.0;0.030273;0.030273;0.988281;0;0;62927;0;0;0
2024-11-05_09-30-27.120609;62946;-2000.0;19.1875;0.02125;3.952917;206.0;0.02832;0.035156;1.007812;0;0;63069;0;0;0
2024-11-05_09-30-27.261766;63082;-2000.0;19.25;0.021667;3.952917;205.0;0.02832;0.032227;0.998047;0;0;63218;0;0;0
2024-11-05_09-30-27.438970;63227;-2000.0;19.25;0.02125;3.952917;203.0;0.029297;0.03418;0.998047;0;0;63387;0;0;0
2024-11-05_09-30-27.654965;63512;-2000.0;19.25;0.02125;3.952917;206.0;0.027344;0.03125;0.989258;0;0;63609;0;0;0
2024-11-05_09-30-27.749077;63512;-2000.0;19.25;0.02125;3.952917;206.0;0.027344;0.03125;0.989258;0;0;63700;0;0;0
2024-11-05_09-30-27.953888;63805;-2000.0;19.25;0.02125;3.9525;206.0;0.027344;0.03125;0.990234;0;0;63909;0;0;0
2024-11-05_09-30-28.330881;64085;-2000.0;19.25;0.02125;3.952084;208.0;0.027344;0.036133;0.988281;0;0;64239;0;0;0
2024-11-05_09-30-28.488722;64224;-2000.0;19.25;0.02125;3.952084;205.0;0.024414;0.035156;0.990234;0;0;64438;0;0;0
2024-11-05_09-30-28.552960;64377;-2000.0;19.25;0.021667;3.947917;200.0;0.025391;0.038086;0.998047;0;0;64500;0;0;0
2024-11-05_09-30-28.661247;64377;-2000.0;19.25;0.021667;3.947917;200.0;0.025391;0.038086;0.998047;0;0;64620;0;0;0
2024-11-05_09-30-33.849931;69391;-2000.0;19.25;0.02125;3.9475;203.0;0.021484;0.03125;0.985352;0;0;69600;0;0;0
2024-11-05_09-30-34.078103;69551;-2000.0;19.25;0.02125;3.9475;204.0;0.021484;0.03418;1.0;0;0;69795;0;0;0
2024-11-05_09-30-34.188211;69721;-2000.0;19.25;0.02125;3.9475;204.0;0.016602;0.03125;0.995117;0;0;69934;0;0;0
2024-11-05_09-30-34.329595;69870;-2000.0;19.25;0.02125;3.9475;203.0;0.018555;0.035156;0.992188;0;0;70084;0;0;0
2024-11-05_09-30-34.486518;70156;-2000.0;19.25;0.02125;3.9475;203.0;0.019531;0.033203;0.999023;0;0;70235;0;0;0
2024-11-05_09-30-34.651153;70299;-2000.0;19.25;0.02125;3.9475;203.0;0.020508;0.033203;0.998047;0;0;70404;0;0;0
2024-11-05_09-30-34.879749;70436;-2000.0;19.25;0.021667;3.9475;205.0;0.019531;0.03418;1.001953;0;0;70639;0;0;0
2024-11-05_09-30-34.950912;70590;-2000.0;19.25;0.02125;3.9475;205.0;0.017578;0.032227;0.991211;0;0;70703;0;0;0
2024-11-05_09-30-35.150796;70752;-2000.0;19.25;0.02125;3.9475;207.0;0.017578;0.035156;1.0;0;0;70880;0;0;0
2024-11-05_09-30-35.256713;70899;-2000.0;19.25;0.021667;3.9475;205.0;0.018555;0.033203;1.007812;0;0;71013;0;0;0
2024-11-05_09-30-35.413366;71036;-2000.0;19.25;0.02125;3.9475;203.0;0.018555;0.030273;0.999023;0;0;71163;0;0;0
2024-11-05_09-30-35.586638;71179;-2000.0;19.25;0.021667;3.9475;204.0;0.019531;0.03418;1.006836;0;0;71336;0;0;0
2024-11-05_09-30-35.821964;71489;-2000.0;19.25;0.02125;3.9475;204.0;0.016602;0.035156;1.008789;0;0;71565;0;0;0
2024-11-05_09-30-35.996109;71626;-2000.0;19.25;0.02125;3.9475;205.0;0.018555;0.037109;1.006836;0;0;71744;0;0;0
2024-11-05_09-30-36.052152;71626;-2000.0;19.25;0.02125;3.9475;205.0;0.018555;0.037109;1.006836;0;0;71804;0;0;0
2024-11-05_09-30-36.200381;71781;-2000.0;19.25;0.02125;3.9475;204.0;0.023438;0.03418;1.005859;0;0;71954;0;0;0
2024-11-05_09-30-36.357882;71929;-2000.0;19.3125;0.02125;3.9475;203.0;0.021484;0.025391;1.008789;0;0;72114;0;0;0
2024-11-05_09-30-36.593843;72238;-2000.0;19.25;0.02125;3.946667;201.0;0.022461;0.041016;1.019531;0;0;72346;0;0;0
2024-11-05_09-30-36.734973;72388;-2000.0;19.25;0.02125;3.945833;204.0;0.020508;0.03418;1.007812;0;0;72498;0;0;0
2024-11-05_09-30-36.829630;72388;-2000.0;19.25;0.02125;3.945833;204.0;0.020508;0.03418;1.007812;0;0;72584;0;0;0
2024-11-05_09-30-36.986911;72529;-2000.0;19.3125;0.02125;3.945;201.0;0.017578;0.036133;1.019531;0;0;72737;0;0;0
2024-11-05_09-30-37.144200;72819;-2000.0;19.3125;0.021667;3.942083;203.0;0.023438;0.03125;1.012695;0;0;72894;0;0;0
2024-11-05_09-30-37.301282;72959;-2000.0;19.3125;0.021667;3.9475;205.0;0.022461;0.03418;1.016602;0;0;73053;0;0;0
2024-11-05_09-30-37.459939;73099;-2000.0;19.3125;0.02125;3.9475;205.0;0.023438;0.037109;1.026367;0;0;73214;0;0;0
2024-11-05_09-30-37.615972;73254;-2000.0;19.3125;0.021667;3.9475;204.0;0.022461;0.039062;1.024414;0;0;73373;0;0;0
2024-11-05_09-30-37.882823;73402;-2000.0;19.3125;0.021667;3.9475;206.0;0.025391;0.03418;1.006836;0;0;73591;0;0;0
2024-11-05_09-30-38.087104;73689;-2000.0;19.3125;0.02125;3.945;203.0;0.020508;0.036133;1.014648;0;0;73843;0;0;0
2024-11-05_09-30-38.244072;73829;-2000.0;19.25;0.02125;3.94375;206.0;0.022461;0.03418;1.016602;0;0;73993;0;0;0
2024-11-05_09-30-38.417367;73972;-2000.0;19.25;0.02125;3.9425;205.0;0.021484;0.03125;1.023438;0;0;74163;0;0;0
2024-11-05_09-30-38.574634;74119;-2000.0;19.25;0.021667;3.942917;205.0;0.021484;0.039062;1.019531;0;0;74333;0;0;0
2024-11-05_09-30-38.716512;74259;-2000.0;19.3125;0.021667;3.9425;201.0;0.020508;0.035156;1.013672;0;0;74464;0;0;0
2024-11-05_09-30-38.873854;74408;-2000.0;19.3125;0.02125;3.942083;199.0;0.020508;0.036133;1.013672;0;0;74627;0;0;0
2024-11-05_09-30-39.058578;74571;-2000.0;19.3125;0.021667;3.942083;204.0;0.021484;0.035156;1.014648;0;0;74792;0;0;0
2024-11-05_09-30-39.362632;74881;-2000.0;19.25;0.02125;3.942083;203.0;0.020508;0.036133;1.012695;0;0;75064;0;0;0
2024-11-05_09-30-39.496771;75028;-2000.0;19.3125;0.02125;3.9425;206.0;0.022461;0.039062;1.022461;0;0;75243;0;0;0
2024-11-05_09-30-39.647520;75309;-2000.0;19.3125;0.02125;3.9425;205.0;0.017578;0.03125;1.013672;0;0;75403;0;0;0
2024-11-05_09-30-39.837217;75447;-2000.0;19.3125;0.021667;3.942083;203.0;0.020508;0.038086;1.010742;0;0;75583;0;0;0
2024-11-05_09-30-40.043854;75601;-2000.0;19.3125;0.021667;3.942083;204.0;0.020508;0.035156;1.010742;0;0;75799;0;0;0
2024-11-05_09-30-40.123662;75749;-2000.0;19.3125;0.02125;3.942083;202.0;0.018555;0.03125;1.012695;0;0;75884;0;0;0
2024-11-05_09-30-40.390615;76026;-2000.0;19.3125;0.02125;3.9425;203.0;0.020508;0.033203;1.021484;0;0;76149;0;0;0
2024-11-05_09-30-40.437626;76026;-2000.0;19.3125;0.02125;3.9425;203.0;0.020508;0.033203;1.021484;0;0;76189;0;0;0
2024-11-05_09-30-40.675891;76299;-2000.0;19.3125;0.02125;3.9425;202.0;0.022461;0.033203;1.022461;0;0;76401;0;0;0
2024-11-05_09-30-40.751941;76299;-2000.0;19.3125;0.02125;3.9425;202.0;0.022461;0.033203;1.022461;0;0;76495;0;0;0
2024-11-05_09-30-40.908992;76579;-2000.0;19.3125;0.02125;3.942083;203.0;0.020508;0.032227;1.019531;0;0;76673;0;0;0
2024-11-05_09-30-41.050964;76717;-2000.0;19.3125;0.02125;3.942083;201.0;0.019531;0.035156;1.024414;0;0;76804;0;0;0
2024-11-05_09-30-41.312960;76859;-2000.0;19.3125;0.02125;3.9425;201.0;0.021484;0.037109;1.020508;0;0;77074;0;0;0
2024-11-05_09-30-41.392373;76996;-2000.0;19.3125;0.02125;3.942083;204.0;0.022461;0.033203;1.018555;0;0;77144;0;0;0
2024-11-05_09-30-41.517962;77162;-2000.0;19.3125;0.02125;3.942083;202.0;0.021484;0.032227;1.017578;0;0;77284;0;0;0
2024-11-05_09-30-41.690743;77322;-2000.0;19.3125;0.02125;3.942083;200.0;0.020508;0.030273;1.021484;0;0;77431;0;0;0
2024-11-05_09-30-41.832121;77480;-2000.0;19.3125;0.02125;3.942083;203.0;0.022461;0.036133;1.015625;0;0;77584;0;0;0
2024-11-05_09-30-41.988866;77619;-2000.0;19.3125;3.942083;3.942083;205.0;0.020508;0.037109;1.026367;0;0;77743;0;0;0
2024-11-05_09-30-42.145883;77759;-2000.0;19.3125;0.021667;3.942083;205.0;0.019531;0.038086;1.017578;0;0;77892;0;0;0
2024-11-05_09-30-42.301704;77899;-2000.0;19.3125;0.02125;3.942083;199.0;0.021484;0.036133;1.016602;0;0;78053;0;0;0
2024-11-05_09-30-42.459224;78039;-2000.0;19.3125;0.021667;3.942083;206.0;0.020508;0.03418;1.018555;0;0;78217;0;0;0
2024-11-05_09-30-42.615600;78176;-2000.0;19.3125;0.021667;3.942083;202.0;0.020508;0.032227;1.025391;0;0;78373;0;0;0
2024-11-05_09-30-42.757096;78330;-2000.0;19.3125;0.021667;3.942083;206.0;0.020508;0.033203;1.014648;0;0;78524;0;0;0
2024-11-05_09-30-42.991803;78609;-2000.0;19.3125;0.02125;3.942083;203.0;0.019531;0.035156;1.018555;0;0;78713;0;0;0
2024-11-05_09-30-43.101387;78759;-2000.0;19.3125;0.02125;3.942083;204.0;0.022461;0.03418;1.013672;0;0;78863;0;0;0
2024-11-05_09-30-43.273593;78900;-2000.0;19.3125;0.02125;3.942083;200.0;0.021484;0.030273;1.017578;0;0;79033;0;0;0
2024-11-05_09-30-43.508350;79189;-2000.0;19.3125;0.02125;3.9425;201.0;0.020508;0.03418;1.016602;0;0;79263;0;0;0
2024-11-05_09-30-43.571371;79189;-2000.0;19.3125;0.02125;3.9425;201.0;0.020508;0.03418;1.016602;0;0;79322;0;0;0
2024-11-05_09-30-43.711965;79326;-2000.0;19.3125;0.02125;3.942083;203.0;0.018555;0.030273;1.013672;0;0;79464;0;0;0
2024-11-05_09-30-43.978243;79483;-2000.0;19.3125;0.02125;3.942083;202.0;0.019531;0.036133;1.006836;0;0;79730;0;0;0
2024-11-05_09-30-44.040744;79642;-2000.0;19.375;0.02125;3.942083;202.0;0.022461;0.033203;1.011719;0;0;79791;0;0;0
2024-11-05_09-30-44.213632;79798;-2000.0;19.3125;3.942083;3.942083;203.0;0.022461;0.033203;1.010742;0;0;79961;0;0;0
2024-11-05_09-30-44.386349;79945;-2000.0;19.3125;0.02125;3.942083;203.0;0.021484;0.03125;1.016602;0;0;80146;0;0;0
2024-11-05_09-30-44.480671;80101;-2000.0;19.3125;0.02125;3.941667;203.0;0.020508;0.033203;1.010742;0;0;80244;0;0;0
2024-11-05_09-30-44.652662;80252;-2000.0;19.3125;0.02125;3.94;206.0;0.021484;0.038086;1.013672;0;0;80403;0;0;0
2024-11-05_09-30-44.840245;80399;-2000.0;19.3125;0.021667;3.94;202.0;0.021484;0.03418;1.022461;0;0;80589;0;0;0
2024-11-05_09-30-45.059870;80681;-2000.0;19.3125;0.02125;3.936667;207.0;0.021484;0.032227;1.013672;0;0;80814;0;0;0
2024-11-05_09-30-45.231859;80829;-2000.0;19.3125;0.02125;3.937083;205.0;0.021484;0.032227;1.021484;0;0;80983;0;0;0
2024-11-05_09-30-45.294257;80829;-2000.0;19.3125;0.02125;3.937083;205.0;0.021484;0.032227;1.021484;0;0;81044;0;0;0
2024-11-05_09-30-45.483650;81112;-2000.0;19.3125;0.02125;3.936667;205.0;0.021484;0.03418;1.023438;0;0;81205;0;0;0
2024-11-05_09-30-45.592460;81259;-2000.0;19.3125;0.021667;0.021667;203.0;0.022461;0.033203;1.017578;0;0;81347;0;0;0
2024-11-05_09-30-45.749040;81401;-2000.0;19.3125;0.021667;3.937083;203.0;0.019531;0.03418;1.015625;0;0;81503;0;0;0
2024-11-05_09-30-45.905290;81549;-2000.0;19.375;0.02125;3.936667;207.0;0.023438;0.037109;1.023438;0;0;81663;0;0;0
2024-11-05_09-30-46.062219;81689;-2000.0;19.3125;0.02125;3.937083;203.0;0.019531;0.033203;1.023438;0;0;81824;0;0;0
2024-11-05_09-30-46.250367;81829;-2000.0;19.3125;0.021667;3.937083;204.0;0.019531;0.036133;1.022461;0;0;82003;0;0;0
2024-11-05_09-30-46.407378;81972;-2000.0;19.3125;0.021667;0.021667;202.0;0.022461;0.035156;1.018555;0;0;82164;0;0;0
2024-11-05_09-30-46.541056;82137;-2000.0;19.3125;0.021667;3.936667;202.0;0.023438;0.039062;1.016602;0;0;82282;0;0;0
2024-11-05_09-30-46.709789;82285;-2000.0;19.3125;0.02125;3.937083;201.0;0.019531;0.036133;1.014648;0;0;82457;0;0;0
2024-11-05_09-30-46.846762;82442;-2000.0;19.3125;0.02125;3.936667;202.0;0.022461;0.037109;1.020508;0;0;82604;0;0;0
2024-11-05_09-30-47.019431;82602;-2000.0;19.375;0.02125;3.936667;203.0;0.023438;0.037109;1.014648;0;0;82783;0;0;0
2024-11-05_09-30-47.151996;82749;-2000.0;19.3125;0.02125;3.937083;204.0;0.019531;0.035156;1.019531;0;0;82903;0;0;0
2024-11-05_09-30-47.301698;82890;-2000.0;19.375;0.02125;3.936667;200.0;0.018555;0.03418;1.018555;0;0;83053;0;0;0
2024-11-05_09-30-47.505742;83179;-2000.0;19.3125;0.02125;3.937083;205.0;0.021484;0.035156;1.012695;0;0;83273;0;0;0
2024-11-05_09-30-47.693684;83320;-2000.0;19.375;0.02125;3.937083;204.0;0.019531;0.037109;1.012695;0;0;83453;0;0;0
2024-11-05_09-30-47.944147;83456;-2000.0;19.3125;0.02125;3.936667;202.0;0.022461;0.030273;1.016602;0;0;83659;0;0;0
2024-11-05_09-30-48.116682;83737;-2000.0;19.375;0.021667;3.937083;202.0;0.021484;0.040039;1.026367;0;0;83873;0;0;0
2024-11-05_09-30-48.305963;83879;-2000.0;19.375;0.02125;3.936667;202.0;0.021484;0.035156;1.018555;0;0;84063;0;0;0
2024-11-05_09-30-48.462732;84016;-2000.0;19.375;0.02125;3.936667;205.0;0.021484;0.035156;1.018555;0;0;84219;0;0;0
2024-11-05_09-30-48.682301;84296;-2000.0;19.3125;0.02125;3.937083;203.0;0.023438;0.035156;1.029297;0;0;84429;0;0;0
2024-11-05_09-30-48.901491;84440;-2000.0;19.375;0.02125;3.936667;207.0;0.020508;0.03418;1.020508;0;0;84664;0;0;0
2024-11-05_09-30-49.183319;84750;-2000.0;19.375;0.360833;3.782084;205.0;0.020508;0.029297;1.014648;0;0;84930;0;0;0
2024-11-05_09-30-49.449477;84912;-2000.0;19.375;0.61125;3.7675;202.0;0.022461;0.033203;1.017578;0;0;85083;0;0;0
2024-11-05_09-30-49.511871;85176;-2000.0;19.375;0.7825;3.75625;205.0;0.020508;0.035156;1.020508;0;0;85273;0;0;0
2024-11-05_09-30-49.747082;85327;-2000.0;19.375;0.842917;3.75125;204.0;0.019531;0.037109;1.016602;0;0;85503;0;0;0
2024-11-05_09-30-49.809510;85469;-2000.0;19.375;0.89375;3.745834;203.0;0.020508;0.038086;1.017578;0;0;85563;0;0;0
2024-11-05_09-30-49.966568;85608;-2000.0;19.375;0.9275;3.7375;203.0;0.020508;0.038086;1.018555;0;0;85723;0;0;0
2024-11-05_09-30-50.124445;85749;-2000.0;19.375;0.951667;3.7375;203.0;0.021484;0.033203;1.017578;0;0;85881;0;0;0
2024-11-05_09-30-50.311129;85888;-2000.0;19.375;0.965;3.7375;203.0;0.022461;0.036133;1.015625;0;0;86051;0;0;0
2024-11-05_09-30-50.436381;86029;-2000.0;19.375;0.970417;3.7375;205.0;0.019531;0.036133;1.018555;0;0;86193;0;0;0
2024-11-05_09-30-50.754204;86309;-2000.0;19.375;0.975833;3.7375;203.0;0.021484;0.035156;1.021484;0;0;86469;0;0;0
2024-11-05_09-30-50.906917;86447;-2000.0;19.375;0.975833;3.7375;202.0;0.020508;0.03125;1.025391;0;0;86664;0;0;0
2024-11-05_09-30-51.174327;86726;-2000.0;19.375;0.975833;3.7375;205.0;0.019531;0.03418;1.018555;0;0;86917;0;0;0
2024-11-05_09-30-51.220710;86869;-2000.0;19.375;0.975833;3.742084;203.0;0.021484;0.036133;1.018555;0;0;86972;0;0;0
2024-11-05_09-30-51.378385;87006;-2000.0;19.375;0.975833;3.745;203.0;0.022461;0.03125;1.023438;0;0;87133;0;0;0
2024-11-05_09-30-51.536964;87149;-2000.0;19.375;0.975417;3.745834;203.0;0.020508;0.035156;1.023438;0;0;87281;0;0;0
2024-11-05_09-30-51.771526;87288;-2000.0;19.375;0.975833;3.745834;201.0;0.022461;0.032227;1.03418;0;0;87523;0;0;0
2024-11-05_09-30-51.835647;87440;-2000.0;19.375;0.975417;3.745834;205.0;0.022461;0.036133;1.026367;0;0;87594;0;0;0
2024-11-05_09-30-52.103373;87602;-2000.0;19.375;0.97;3.745834;201.0;0.022461;0.03125;1.019531;0;0;87810;0;0;0
2024-11-05_09-30-52.149637;87754;-2000.0;19.375;0.970417;3.745834;203.0;0.023438;0.033203;1.02832;0;0;87902;0;0;0
2024-11-05_09-30-52.306767;87900;-2000.0;19.375;0.970417;3.745834;203.0;0.020508;0.03125;1.007812;0;0;88072;0;0;0
2024-11-05_09-30-52.464208;88049;-2000.0;19.375;0.97;3.74625;203.0;0.021484;0.03125;1.019531;0;0;88223;0;0;0
2024-11-05_09-30-52.699438;88329;-2000.0;19.375;0.970417;3.74625;204.0;0.020508;0.038086;1.015625;0;0;88462;0;0;0
2024-11-05_09-30-52.777543;88329;-2000.0;19.375;0.970417;3.74625;204.0;0.020508;0.038086;1.015625;0;0;88533;0;0;0
2024-11-05_09-30-52.918481;88609;-2000.0;19.375;0.97;3.747083;202.0;0.019531;0.030273;1.016602;0;0;88683;0;0;0
2024-11-05_09-30-53.090620;88746;-2000.0;19.375;0.970417;3.750417;207.0;0.020508;0.036133;1.012695;0;0;88853;0;0;0
2024-11-05_09-30-53.294110;88890;-2000.0;19.375;0.970417;3.75125;204.0;0.023438;0.040039;1.026367;0;0;89017;0;0;0
2024-11-05_09-30-53.403487;89027;-2000.0;19.375;0.969167;3.75125;204.0;0.019531;0.041016;1.016602;0;0;89162;0;0;0
2024-11-05_09-30-53.560116;89171;-2000.0;19.375;0.965;3.75125;203.0;0.018555;0.038086;1.019531;0;0;89313;0;0;0
2024-11-05_09-30-53.717177;89319;-2000.0;19.375;0.965;3.75125;205.0;0.021484;0.035156;1.03125;0;0;89473;0;0;0
2024-11-05_09-30-53.874175;89456;-2000.0;19.375;0.965;3.75125;206.0;0.020508;0.03418;1.019531;0;0;89633;0;0;0
2024-11-05_09-30-54.031065;89600;-2000.0;19.375;0.965;3.75125;204.0;0.021484;0.040039;1.013672;0;0;89784;0;0;0
2024-11-05_09-30-54.282661;89910;-2000.0;19.375;0.965;3.75125;207.0;0.021484;0.037109;1.019531;0;0;90034;0;0;0
2024-11-05_09-30-54.518263;90070;-2000.0;19.375;0.965;3.75125;207.0;0.023438;0.038086;1.021484;0;0;90227;0;0;0
2024-11-05_09-30-54.675122;90219;-2000.0;19.375;0.965;3.75125;203.0;0.021484;0.039062;1.025391;0;0;90421;0;0;0
2024-11-05_09-30-54.831659;90366;-2000.0;19.375;0.965;3.751667;203.0;0.019531;0.03418;1.027344;0;0;90582;0;0;0
2024-11-05_09-30-54.956847;90519;-2000.0;19.375;0.930833;3.75125;204.0;0.026367;0.036133;1.02832;0;0;90713;0;0;0
2024-11-05_09-30-55.113478;90656;-2000.0;19.375;0.786667;3.75125;203.0;0.024414;0.037109;1.03125;0;0;90866;0;0;0
2024-11-05_09-30-55.363840;90949;-2000.0;19.375;0.564167;3.75125;204.0;0.022461;0.037109;1.03125;0;0;91123;0;0;0
2024-11-05_09-30-55.410699;91086;-2000.0;19.375;0.46;3.75125;204.0;0.022461;0.038086;1.03418;0;0;91173;0;0;0
2024-11-05_09-30-55.911792;91376;-2000.0;19.375;0.187917;3.75125;202.0;0.025391;0.039062;1.025391;0;0;91525;0;0;0
2024-11-05_09-30-56.247068;91799;-2000.0;19.375;0.021667;3.75125;203.0;0.022461;0.033203;1.025391;0;0;91998;0;0;0
2024-11-05_09-30-56.366135;91936;-2000.0;19.375;0.02125;3.75125;203.0;0.023438;0.040039;1.023438;0;0;92124;0;0;0
2024-11-05_09-30-56.616927;92225;-2000.0;19.375;0.021667;3.75125;203.0;0.022461;0.036133;1.020508;0;0;92373;0;0;0
2024-11-05_09-30-56.774027;92382;-2000.0;19.375;0.02125;3.75125;205.0;0.019531;0.03418;1.020508;0;0;92534;0;0;0
2024-11-05_09-30-56.837583;92382;-2000.0;19.375;0.02125;3.75125;205.0;0.019531;0.03418;1.020508;0;0;92593;0;0;0
2024-11-05_09-30-57.150432;92679;-2000.0;19.375;0.02125;3.7525;203.0;0.021484;0.033203;1.026367;0;0;92762;0;0;0
2024-11-05_09-30-57.313061;92956;-2000.0;19.375;0.02125;3.756667;204.0;0.021484;0.033203;1.027344;0;0;93065;0;0;0
2024-11-05_09-30-57.448192;93106;-2000.0;19.4375;0.021667;3.756667;205.0;0.020508;0.039062;1.03125;0;0;93213;0;0;0
2024-11-05_09-30-57.620183;93246;-2000.0;19.375;0.021667;3.75625;207.0;0.022461;0.037109;1.022461;0;0;93373;0;0;0
2024-11-05_09-30-57.777104;93389;-2000.0;19.4375;0.02125;3.756667;202.0;0.024414;0.037109;1.033203;0;0;93523;0;0;0
2024-11-05_09-30-57.933821;93529;-2000.0;19.375;0.02125;3.75625;200.0;0.021484;0.03125;1.035156;0;0;93684;0;0;0
2024-11-05_09-30-58.090359;93669;-2000.0;19.375;0.02125;3.756667;204.0;0.022461;0.033203;1.03418;0;0;93843;0;0;0
2024-11-05_09-30-58.309392;93809;-2000.0;19.375;0.02125;3.75625;204.0;0.021484;0.03418;1.027344;0;0;94021;0;0;0
2024-11-05_09-30-58.404980;93946;-2000.0;19.4375;0.021667;3.756667;204.0;0.021484;0.036133;1.024414;0;0;94154;0;0;0
2024-11-05_09-30-58.561371;94089;-2000.0;19.375;0.02125;3.756667;202.0;0.022461;0.029297;1.021484;0;0;94314;0;0;0
2024-11-05_09-30-58.718227;94376;-2000.0;19.4375;0.021667;3.75625;203.0;0.021484;0.027344;1.027344;0;0;94473;0;0;0
2024-11-05_09-30-58.875136;94516;-2000.0;19.4375;0.02125;3.756667;204.0;0.024414;0.035156;1.033203;0;0;94626;0;0;0
2024-11-05_09-30-59.032356;94673;-2000.0;19.375;0.021667;3.756667;204.0;0.021484;0.032227;1.029297;0;0;94784;0;0;0
2024-11-05_09-30-59.219871;94831;-2000.0;19.4375;0.021667;3.756667;206.0;0.021484;0.040039;1.03418;0;0;94983;0;0;0
2024-11-05_09-30-59.454574;94995;-2000.0;19.375;0.02125;3.756667;204.0;0.022461;0.033203;1.026367;0;0;95172;0;0;0
2024-11-05_09-30-59.626920;95289;-2000.0;19.4375;0.02125;3.756667;205.0;0.020508;0.032227;1.030273;0;0;95383;0;0;0
2024-11-05_09-30-59.821212;95427;-2000.0;19.375;0.02125;3.756667;204.0;0.021484;0.032227;1.03125;0;0;95573;0;0;0
2024-11-05_09-31-00.019365;95569;-2000.0;19.4375;0.021667;3.756667;200.0;0.025391;0.036133;1.026367;0;0;95764;0;0;0
2024-11-05_09-31-00.128385;95710;-2000.0;19.375;0.021667;3.756667;202.0;0.022461;0.03418;1.03418;0;0;95892;0;0;0
2024-11-05_09-31-00.285199;95849;-2000.0;19.4375;0.021667;3.756667;203.0;0.023438;0.027344;1.033203;0;0;96044;0;0;0
2024-11-05_09-31-00.497809;96129;-2000.0;19.4375;0.02125;3.756667;201.0;0.019531;0.030273;1.03418;0;0;96240;0;0;0
2024-11-05_09-31-00.599765;96265;-2000.0;19.375;0.02125;0.02125;200.0;0.023438;0.026367;1.03418;0;0;96357;0;0;0
2024-11-05_09-31-00.756466;96399;-2000.0;19.375;0.021667;3.756667;203.0;0.024414;0.029297;1.02832;0;0;96513;0;0;0
2024-11-05_09-31-00.897107;96539;-2000.0;19.375;0.021667;3.756667;202.0;0.021484;0.02832;1.032227;0;0;96654;0;0;0
2024-11-05_09-31-01.085006;96679;-2000.0;19.4375;0.02125;3.756667;206.0;0.024414;0.025391;1.03125;0;0;96842;0;0;0
2024-11-05_09-31-01.319536;96972;-2000.0;19.4375;0.021667;3.75625;202.0;0.025391;0.029297;1.049805;0;0;97074;0;0;0
2024-11-05_09-31-01.371282;96972;-2000.0;19.4375;0.021667;3.75625;202.0;0.025391;0.029297;1.049805;0;0;97128;0;0;0
2024-11-05_09-31-01.555013;97135;-2000.0;19.4375;0.02125;3.756667;203.0;0.025391;0.02832;1.042969;0;0;97303;0;0;0
2024-11-05_09-31-01.727182;97293;-2000.0;19.4375;0.02125;3.756667;205.0;0.022461;0.025391;1.030273;0;0;97474;0;0;0
2024-11-05_09-31-01.837020;97451;-2000.0;19.4375;0.021667;3.756667;205.0;0.023438;0.024414;1.038086;0;0;97594;0;0;0
2024-11-05_09-31-02.024994;97606;-2000.0;19.4375;0.02125;3.756667;206.0;0.023438;0.025391;1.046875;0;0;97777;0;0;0
2024-11-05_09-31-02.181351;97749;-2000.0;19.4375;0.02125;3.756667;205.0;0.022461;0.024414;1.029297;0;0;97934;0;0;0
2024-11-05_09-31-02.338376;97886;-2000.0;19.375;0.02125;3.756667;200.0;0.025391;0.023438;1.033203;0;0;98092;0;0;0
2024-11-05_09-31-02.542842;98166;-2000.0;19.4375;0.02125;3.756667;207.0;0.023438;0.025391;1.053711;0;0;98293;0;0;0
2024-11-05_09-31-02.652244;98316;-2000.0;19.4375;0.021667;3.756667;205.0;0.025391;0.024414;1.041992;0;0;98403;0;0;0
2024-11-05_09-31-02.777618;98460;-2000.0;19.4375;0.02125;3.756667;203.0;0.022461;0.024414;1.046875;0;0;98543;0;0;0
2024-11-05_09-31-02.996431;98606;-2000.0;19.4375;0.02125;3.756667;201.0;0.024414;0.023438;1.051758;0;0;98754;0;0;0
2024-11-05_09-31-03.231127;98749;-2000.0;19.4375;0.02125;3.756667;207.0;0.025391;0.020508;1.051758;0;0;98949;0;0;0
2024-11-05_09-31-03.420132;99039;-2000.0;19.4375;0.021667;3.756667;202.0;0.025391;0.023438;1.049805;0;0;99173;0;0;0
2024-11-05_09-31-03.592792;99189;-2000.0;19.4375;0.021667;3.756667;203.0;0.023438;0.022461;1.056641;0;0;99344;0;0;0
2024-11-05_09-31-03.734175;99326;-2000.0;19.4375;0.02125;3.756667;207.0;0.023438;0.02832;1.072266;0;0;99484;0;0;0
2024-11-05_09-31-03.891985;99481;-2000.0;19.4375;0.02125;3.756667;203.0;0.024414;0.023438;1.067383;0;0;99643;0;0;0
2024-11-05_09-31-04.173226;99774;-2000.0;19.4375;0.02125;3.756667;201.0;0.027344;0.022461;1.084961;0;0;99928;0;0;0
2024-11-05_09-31-04.360899;99935;-2000.0;19.4375;3.756667;3.756667;206.0;0.024414;0.02832;1.077148;0;0;100113;0;0;0
2024-11-05_09-31-04.518022;100095;-2000.0;19.4375;0.02125;3.756667;203.0;0.021484;0.02832;1.064453;0;0;100264;0;0;0
2024-11-05_09-31-04.705923;100389;-2000.0;19.4375;0.02125;3.756667;207.0;0.027344;0.024414;1.095703;0;0;100463;0;0;0
2024-11-05_09-31-04.815442;100389;-2000.0;19.4375;0.02125;3.756667;207.0;0.027344;0.024414;1.095703;0;0;100576;0;0;0
2024-11-05_09-31-05.003162;100666;-2000.0;19.4375;0.02125;3.756667;201.0;0.02832;0.023438;1.092773;0;0;100753;0;0;0
2024-11-05_09-31-05.222507;100821;-2000.0;19.4375;0.02125;3.756667;202.0;0.026367;0.024414;1.098633;0;0;100983;0;0;0
2024-11-05_09-31-05.285234;100821;-2000.0;19.4375;0.02125;3.756667;202.0;0.026367;0.024414;1.098633;0;0;101043;0;0;0
2024-11-05_09-31-05.458117;101106;-2000.0;19.4375;0.021667;3.756667;205.0;0.029297;0.021484;1.087891;0;0;101223;0;0;0
2024-11-05_09-31-05.896658;101529;-2000.0;19.4375;0.02125;3.756667;205.0;0.030273;0.019531;1.106445;0;0;101664;0;0;0
2024-11-05_09-31-06.069256;101666;-2000.0;19.4375;0.021667;3.756667;207.0;0.029297;0.020508;1.114258;0;0;101823;0;0;0
2024-11-05_09-31-06.242140;101812;-2000.0;19.4375;0.021667;3.756667;203.0;0.03125;0.017578;1.097656;0;0;101993;0;0;0
2024-11-05_09-31-06.399217;101959;-2000.0;19.4375;0.021667;3.756667;205.0;0.030273;0.017578;1.098633;0;0;102154;0;0;0
2024-11-05_09-31-06.541555;102101;-2000.0;19.4375;0.02125;3.756667;203.0;0.029297;0.014648;1.112305;0;0;102294;0;0;0
2024-11-05_09-31-06.697246;102261;-2000.0;19.4375;0.021667;3.756667;203.0;0.03125;0.019531;1.120117;0;0;102440;0;0;0
2024-11-05_09-31-06.853941;102409;-2000.0;19.4375;0.02125;3.756667;206.0;0.030273;0.019531;1.115234;0;0;102614;0;0;0
2024-11-05_09-31-07.057622;102709;-2000.0;19.4375;0.02125;3.756667;203.0;0.029297;0.016602;1.120117;0;0;102813;0;0;0
2024-11-05_09-31-07.183143;102709;-2000.0;19.4375;0.02125;3.756667;203.0;0.029297;0.016602;1.120117;0;0;102924;0;0;0
2024-11-05_09-31-07.449578;103009;-2000.0;19.4375;0.02125;3.756667;201.0;0.03125;0.012695;1.116211;0;0;103197;0;0;0
2024-11-05_09-31-07.700434;103286;-2000.0;19.4375;0.021667;3.756667;206.0;0.029297;0.022461;1.133789;0;0;103463;0;0;0
2024-11-05_09-31-07.919523;103566;-2000.0;19.4375;0.02125;3.756667;205.0;0.03125;0.022461;1.123047;0;0;103651;0;0;0
2024-11-05_09-31-08.108326;103709;-2000.0;19.4375;0.02125;3.756667;205.0;0.032227;0.027344;1.136719;0;0;103863;0;0;0
2024-11-05_09-31-08.266271;103846;-2000.0;19.4375;0.02125;3.756667;205.0;0.033203;0.024414;1.140625;0;0;104023;0;0;0
2024-11-05_09-31-08.423466;103990;-2000.0;19.4375;0.021667;3.756667;205.0;0.033203;0.018555;1.134766;0;0;104173;0;0;0
2024-11-05_09-31-08.578828;104136;-2000.0;19.4375;0.021667;3.756667;203.0;0.032227;0.021484;1.124023;0;0;104333;0;0;0
2024-11-05_09-31-08.735078;104419;-2000.0;19.4375;0.02125;3.756667;205.0;0.032227;0.024414;1.140625;0;0;104493;0;0;0
2024-11-05_09-31-08.891495;104556;-2000.0;19.4375;0.021667;3.756667;204.0;0.033203;0.024414;1.137695;0;0;104653;0;0;0
2024-11-05_09-31-09.157312;104699;-2000.0;19.4375;3.756667;3.756667;203.0;0.03125;0.026367;1.143555;0;0;104909;0;0;0
2024-11-05_09-31-09.189005;104843;-2000.0;19.4375;0.02125;3.756667;205.0;0.029297;0.029297;1.145508;0;0;104948;0;0;0
2024-11-05_09-31-09.533726;105123;-2000.0;19.5;0.02125;3.756667;209.0;0.03125;0.022461;1.131836;0;0;105296;0;0;0
2024-11-05_09-31-09.674571;105269;-2000.0;19.4375;0.021667;3.756667;202.0;0.030273;0.023438;1.142578;0;0;105433;0;0;0
2024-11-05_09-31-09.941062;105549;-2000.0;19.4375;0.02125;3.756667;204.0;0.033203;0.029297;1.146484;0;0;105693;0;0;0
2024-11-05_09-31-10.144511;105690;-2000.0;19.5;0.021667;3.756667;205.0;0.032227;0.027344;1.150391;0;0;105891;0;0;0
2024-11-05_09-31-10.310858;105969;-2000.0;19.4375;0.02125;3.756667;198.0;0.03418;0.022461;1.144531;0;0;106051;0;0;0
2024-11-05_09-31-10.506058;106108;-2000.0;19.5;0.02125;3.756667;206.0;0.033203;0.03125;1.154297;0;0;106272;0;0;0
2024-11-05_09-31-10.631248;106249;-2000.0;19.4375;0.021667;3.756667;202.0;0.03418;0.022461;1.136719;0;0;106360;0;0;0
2024-11-05_09-31-10.788390;106388;-2000.0;19.4375;0.021667;3.756667;203.0;0.03418;0.023438;1.135742;0;0;106552;0;0;0
2024-11-05_09-31-11.148961;106809;-2000.0;19.5;0.021667;3.756667;202.0;0.03125;0.017578;1.148438;0;0;106891;0;0;0
2024-11-05_09-31-11.227364;106809;-2000.0;19.5;0.021667;3.756667;202.0;0.03125;0.017578;1.148438;0;0;106983;0;0;0
2024-11-05_09-31-11.493639;107090;-2000.0;19.5;0.02125;3.756667;202.0;0.035156;0.022461;1.131836;0;0;107253;0;0;0
2024-11-05_09-31-11.544733;107090;-2000.0;19.5;0.02125;3.756667;202.0;0.035156;0.022461;1.131836;0;0;107304;0;0;0
2024-11-05_09-31-11.728286;107249;-2000.0;19.5;0.021667;3.756667;202.0;0.033203;0.025391;1.150391;0;0;107484;0;0;0
2024-11-05_09-31-11.947935;107570;-2000.0;19.5;0.021667;3.756667;204.0;0.032227;0.020508;1.125977;0;0;107704;0;0;0
2024-11-05_09-31-12.011153;107570;-2000.0;19.5;0.021667;3.756667;204.0;0.032227;0.020508;1.125977;0;0;107760;0;0;0
2024-11-05_09-31-12.262166;107879;-2000.0;19.5;0.021667;3.755417;205.0;0.032227;0.024414;1.133789;0;0;108021;0;0;0
2024-11-05_09-31-12.309176;107879;-2000.0;19.5;0.021667;3.755417;205.0;0.032227;0.024414;1.133789;0;0;108073;0;0;0
2024-11-05_09-31-12.481767;108031;-2000.0;19.5;0.021667;3.75625;206.0;0.033203;0.025391;1.12793;0;0;108231;0;0;0
2024-11-05_09-31-12.748455;108329;-2000.0;19.5;0.021667;3.756667;205.0;0.032227;0.026367;1.128906;0;0;108502;0;0;0
2024-11-05_09-31-12.795724;108466;-2000.0;19.5;0.02125;3.756667;199.0;0.032227;0.022461;1.137695;0;0;108552;0;0;0
2024-11-05_09-31-12.967605;108611;-2000.0;19.5;0.021667;3.756667;204.0;0.033203;0.024414;1.130859;0;0;108721;0;0;0
2024-11-05_09-31-13.108722;108759;-2000.0;19.5;0.021667;3.756667;204.0;0.033203;0.032227;1.136719;0;0;108866;0;0;0
2024-11-05_09-31-13.281235;108896;-2000.0;19.5;0.021667;3.756667;206.0;0.030273;0.022461;1.133789;0;0;109032;0;0;0
2024-11-05_09-31-13.531629;109189;-2000.0;19.5;0.02125;3.756667;207.0;0.032227;0.029297;1.129883;-20000;-20000;109293;0;0;0
2024-11-05_09-31-13.594465;109189;-2000.0;19.5;0.02125;3.756667;207.0;0.032227;0.029297;1.129883;-20000;-20000;109343;0;0;0
2024-11-05_09-31-13.767121;109326;-2000.0;19.5;0.0225;3.756667;203.0;0.032227;0.025391;1.136719;-20000;-20000;109518;0;0;0
2024-11-05_09-31-13.892889;109469;-2000.0;19.5;0.021667;3.756667;202.0;0.03125;0.023438;1.124023;-20000;-20000;109643;0;0;0
2024-11-05_09-31-14.191130;109749;-2000.0;19.5;0.0425;3.75625;194.0;0.03125;0.026367;1.140625;-20000;-20000;109910;0;0;0
2024-11-05_09-31-14.536539;110183;-2000.0;19.5;0.120417;3.759167;181.0;0.030273;0.029297;1.128906;-20000;-20000;110284;0;0;0
2024-11-05_09-31-14.662589;110183;-2000.0;19.5;0.120417;3.759167;181.0;0.030273;0.029297;1.128906;-20000;-20000;110414;0;0;0
2024-11-05_09-31-14.803865;110342;-2000.0;19.5;0.153333;3.770417;176.0;0.030273;0.027344;1.123047;-20000;-20000;110561;0;0;0
2024-11-05_09-31-14.976764;110629;-2000.0;19.5;0.1175;3.756667;170.0;0.03125;0.025391;1.125;-20000;-20000;110733;0;0;0
2024-11-05_09-31-15.133641;110768;-2000.0;19.5;0.165;3.781667;167.0;0.032227;0.025391;1.124023;-20000;-20000;110881;0;0;0
2024-11-05_09-31-15.352529;110909;-2000.0;19.5;0.165417;3.795834;164.0;0.029297;0.030273;1.136719;-20000;-20000;111068;0;0;0
2024-11-05_09-31-15.462470;111048;-2000.0;19.5;0.139583;3.7925;160.0;0.029297;0.02832;1.134766;-20000;-20000;111212;0;0;0
2024-11-05_09-31-15.603888;111189;-2000.0;19.5;0.11375;3.780833;159.0;0.033203;0.029297;1.132812;-20000;-20000;111363;0;0;0
2024-11-05_09-31-15.838976;111469;-2000.0;19.5;0.101667;3.796667;152.0;0.030273;0.023438;1.126953;-20000;-20000;111602;0;0;0
2024-11-05_09-31-15.917569;111469;-2000.0;19.5;0.101667;3.796667;152.0;0.030273;0.023438;1.126953;-20000;-20000;111673;0;0;0
2024-11-05_09-31-16.073892;111749;-2000.0;19.5;0.156667;3.790417;145.0;0.032227;0.024414;1.134766;-20000;-20000;111823;0;0;0
2024-11-05_09-31-16.230657;111889;-2000.0;19.5;0.180833;3.787917;143.0;0.032227;0.027344;1.128906;-20000;-20000;111983;0;0;0
2024-11-05_09-31-16.449509;112028;-2000.0;19.5;0.102083;3.786667;138.0;0.033203;0.023438;1.125;-20000;-20000;112157;0;0;0
2024-11-05_09-31-16.543846;112169;-2000.0;19.5;0.0925;3.784167;134.0;0.032227;0.026367;1.132812;-20000;-20000;112301;0;0;0
2024-11-05_09-31-16.700791;112308;-2000.0;19.5;0.08625;3.782084;133.0;0.03125;0.030273;1.132812;-20000;-20000;112454;0;0;0
2024-11-05_09-31-16.857336;112462;-2000.0;19.5;0.09625;3.756667;125.0;0.033203;0.02832;1.124023;-20000;-20000;112614;0;0;0
2024-11-05_09-31-17.014769;112620;-2000.0;19.5;0.08875;3.775417;124.0;0.030273;0.024414;1.118164;-20000;-20000;112774;0;0;0
2024-11-05_09-31-17.280689;112929;-2000.0;19.5;0.09875;3.764584;117.0;0.033203;0.02832;1.129883;-20000;-20000;113032;0;0;0
2024-11-05_09-31-17.327565;112929;-2000.0;19.5;0.09875;3.764584;117.0;0.033203;0.02832;1.129883;-20000;-20000;113083;0;0;0
2024-11-05_09-31-17.547664;113068;-2000.0;19.5;0.098333;3.77125;116.0;0.032227;0.026367;1.125977;-20000;-20000;113254;0;0;0
2024-11-05_09-31-17.658156;113209;-2000.0;19.5;0.133333;3.76875;111.0;0.030273;0.032227;1.133789;-20000;-20000;113401;0;0;0
2024-11-05_09-31-17.814868;113348;-2000.0;19.5;0.13;3.769167;108.0;0.030273;0.029297;1.120117;-20000;-20000;113562;0;0;0
2024-11-05_09-31-17.956013;113628;-2000.0;19.5;0.109167;3.760834;105.0;0.032227;0.02832;1.125;-20000;-20000;113713;0;0;0
2024-11-05_09-31-18.112588;113769;-2000.0;19.5;0.094167;3.757083;101.0;0.035156;0.02832;1.128906;-20000;-20000;113863;0;0;0
2024-11-05_09-31-18.285033;113908;-2000.0;19.5;0.076667;3.756667;95.0;0.03125;0.029297;1.133789;-20000;-20000;114031;0;0;0
2024-11-05_09-31-18.410892;114049;-2000.0;19.5;0.077917;3.7675;94.0;0.033203;0.033203;1.12793;-20000;-20000;114163;0;0;0
2024-11-05_09-31-18.693101;114329;-2000.0;19.5625;0.08;3.770833;89.0;0.032227;0.025391;1.129883;20000;20000;114443;1;0;0
2024-11-05_09-31-18.896928;114466;-2000.0;19.5;0.084167;3.762083;93.0;0.033203;0.02832;1.136719;20000;20000;114652;0;0;0
2024-11-05_09-31-19.039209;114609;-2000.0;19.5;0.21;3.76;96.0;0.033203;0.025391;1.129883;20000;20000;114793;0;0;0
2024-11-05_09-31-19.308097;114904;-2000.0;19.5;0.09125;3.772917;96.0;0.033203;0.026367;1.130859;20000;20000;115042;0;0;0
2024-11-05_09-31-19.357231;114904;-2000.0;19.5;0.09125;3.772917;96.0;0.033203;0.026367;1.130859;20000;20000;115114;0;0;0
2024-11-05_09-31-19.677454;115212;-2000.0;19.5;0.055417;3.752917;99.0;0.033203;0.026367;1.128906;20000;20000;115389;0;0;0
2024-11-05_09-31-19.817196;115364;-2000.0;19.5625;0.066667;3.751667;100.0;0.03418;0.026367;1.131836;20000;20000;115574;0;0;0
2024-11-05_09-31-19.977355;115509;-2000.0;19.5;0.09375;3.75125;105.0;0.032227;0.029297;1.125977;20000;20000;115733;0;0;0
2024-11-05_09-31-20.127250;115802;-2000.0;19.5625;0.100417;3.760834;112.0;0.03125;0.024414;1.125977;20000;20000;115884;0;0;0
2024-11-05_09-31-20.277244;115949;-2000.0;19.5;0.135417;3.764167;114.0;0.032227;0.030273;1.118164;20000;20000;116034;0;0;0
2024-11-05_09-31-20.467047;116087;-2000.0;19.5625;0.151667;3.76625;117.0;0.03418;0.026367;1.123047;20000;20000;116223;0;0;0
2024-11-05_09-31-20.627075;116236;-2000.0;19.5;0.063333;3.759167;118.0;0.03125;0.029297;1.12793;20000;20000;116372;0;0;0
2024-11-05_09-31-20.867077;116381;-2000.0;19.5625;0.139167;3.76875;124.0;0.032227;0.032227;1.124023;20000;20000;116564;0;0;0
2024-11-05_09-31-20.911119;116526;-2000.0;19.5625;0.076667;3.75125;124.0;0.032227;0.030273;1.114258;20000;20000;116662;0;0;0
2024-11-05_09-31-29.441313;125088;-2000.0;19.625;0.021667;3.74875;154.0;0.03125;0.03125;1.108398;0;0;125176;0;0;0
2024-11-05_09-31-29.567275;125088;-2000.0;19.625;0.021667;3.74875;154.0;0.03125;0.03125;1.108398;0;0;125297;0;0;0
2024-11-05_09-31-29.709040;125232;-2000.0;19.625;0.02125;3.746667;154.0;0.032227;0.029297;1.104492;0;0;125436;0;0;0
2024-11-05_09-31-29.867309;125518;-2000.0;19.625;0.021667;3.745834;154.0;0.033203;0.032227;1.102539;0;0;125605;0;0;0
2024-11-05_09-31-30.023654;125662;-2000.0;19.625;0.02125;3.74625;153.0;0.03125;0.02832;1.106445;0;0;125756;0;0;0
2024-11-05_09-31-30.211935;125798;-2000.0;19.625;0.02125;3.745834;152.0;0.032227;0.024414;1.098633;0;0;125945;0;0;0
2024-11-05_09-31-30.338451;125941;-2000.0;19.625;0.02125;3.74625;152.0;0.032227;0.030273;1.099609;0;0;126075;0;0;0
2024-11-05_09-31-30.496081;126078;-2000.0;19.625;0.021667;3.74625;152.0;0.03125;0.026367;1.107422;0;0;126226;0;0;0
2024-11-05_09-31-30.747814;126366;-2000.0;19.625;0.02125;3.745834;151.0;0.030273;0.030273;1.100586;0;0;126485;0;0;0
2024-11-05_09-31-30.920941;126511;-2000.0;19.625;0.02125;3.74625;152.0;0.032227;0.029297;1.097656;0;0;126655;0;0;0
2024-11-05_09-31-31.109673;126667;-2000.0;19.625;0.021667;3.74625;152.0;0.032227;0.026367;1.092773;0;0;126825;0;0;0
2024-11-05_09-31-31.282678;126824;-2000.0;19.625;0.021667;3.745834;154.0;0.03125;0.032227;1.097656;0;0;127016;0;0;0
2024-11-05_09-31-31.454946;126981;-2000.0;19.625;0.021667;3.74625;150.0;0.030273;0.025391;1.091797;0;0;127186;0;0;0
2024-11-05_09-31-31.675080;127285;-2000.0;19.625;0.021667;3.745834;152.0;0.03125;0.030273;1.085938;0;0;127405;0;0;0
2024-11-05_09-31-31.753210;127285;-2000.0;19.625;0.021667;3.745834;152.0;0.03125;0.030273;1.085938;0;0;127486;0;0;0
2024-11-05_09-31-31.895074;127431;-2000.0;19.625;0.021667;3.74625;152.0;0.03125;0.02832;1.094727;0;0;127636;0;0;0
2024-11-05_09-31-32.145751;127731;-2000.0;19.625;0.02125;3.745834;151.0;0.03125;0.02832;1.082031;0;0;127874;0;0;0
2024-11-05_09-31-32.192640;127731;-2000.0;19.625;0.02125;3.745834;151.0;0.03125;0.02832;1.082031;0;0;127928;0;0;0
2024-11-05_09-31-32.443090;128011;-2000.0;19.6875;0.02125;3.74625;153.0;0.03125;0.03125;1.071289;0;0;128167;0;0;0
2024-11-05_09-31-32.600007;128155;-2000.0;19.625;0.021667;3.74625;153.0;0.032227;0.029297;1.075195;0;0;128327;0;0;0
2024-11-05_09-31-32.823272;128291;-2000.0;19.625;0.02125;3.745834;152.0;0.03125;0.02832;1.086914;0;0;128399;0;0;0
2024-11-05_09-31-33.038250;128561;-2000.0;19.6875;0.02125;3.745834;152.0;0.03125;0.026367;1.074219;0;0;128762;0;0;0
2024-11-05_09-31-33.147890;128698;-2000.0;19.625;0.021667;3.745834;155.0;0.030273;0.022461;1.073242;0;0;128876;0;0;0
2024-11-05_09-31-33.304243;128841;-2000.0;19.625;0.02125;3.745834;151.0;0.030273;0.027344;1.075195;0;0;129036;0;0;0
2024-11-05_09-31-33.508665;129121;-2000.0;19.625;0.02125;3.74625;152.0;0.029297;0.025391;1.071289;0;0;129237;0;0;0
2024-11-05_09-31-33.618325;129258;-2000.0;19.6875;0.02125;3.74625;153.0;0.02832;0.029297;1.0625;0;0;129349;0;0;0
2024-11-05_09-31-33.853280;129425;-2000.0;19.6875;0.02125;3.74625;154.0;0.030273;0.030273;1.063477;0;0;129585;0;0;0
2024-11-05_09-31-33.932058;129425;-2000.0;19.6875;0.02125;3.74625;154.0;0.030273;0.030273;1.063477;0;0;129666;0;0;0
2024-11-05_09-31-34.261122;129741;-2000.0;19.6875;0.02125;3.74625;152.0;0.02832;0.030273;1.060547;0;0;129951;0;0;0
2024-11-05_09-31-34.401747;130051;-2000.0;19.6875;0.021667;3.74625;150.0;0.030273;0.03418;1.068359;-20000;-20000;130136;1;0;0
2024-11-05_09-31-34.558259;130192;-2000.0;19.6875;0.0225;3.74625;153.0;0.030273;0.033203;1.06543;-20000;-20000;130286;1;0;0
2024-11-05_09-31-34.715321;130328;-2000.0;19.6875;0.026667;3.74625;151.0;0.027344;0.039062;1.069336;-20000;-20000;130446;1;0;0
2024-11-05_09-31-34.872889;130471;-2000.0;19.6875;0.03625;3.747083;146.0;0.02832;0.033203;1.047852;-20000;-20000;130606;1;0;0
2024-11-05_09-31-35.029633;130608;-2000.0;19.6875;0.034583;3.74625;143.0;0.02832;0.037109;1.052734;-20000;-20000;130766;1;0;0
2024-11-05_09-31-35.185948;130751;-2000.0;19.6875;0.024583;3.74625;141.0;0.026367;0.038086;1.039062;-20000;-20000;130916;1;0;0
2024-11-05_09-31-35.389212;130893;-2000.0;19.6875;0.046667;3.75;136.0;0.029297;0.040039;1.041992;-20000;-20000;131084;0;0;0
2024-11-05_09-31-35.499391;131042;-2000.0;19.6875;0.148333;3.781667;136.0;0.024414;0.042969;1.038086;-20000;-20000;131236;1;0;0
2024-11-05_09-31-35.656581;131181;-2000.0;19.6875;0.1075;3.75125;132.0;0.027344;0.038086;1.03418;-20000;-20000;131386;1;0;0
2024-11-05_09-31-35.812915;131461;-2000.0;19.6875;0.091667;3.753333;127.0;0.026367;0.040039;1.037109;-20000;-20000;131546;1;0;0
2024-11-05_09-31-35.970056;131598;-2000.0;19.6875;0.162917;3.8075;125.0;0.026367;0.037109;1.03125;-20000;-20000;131706;1;0;0
2024-11-05_09-31-36.126663;131741;-2000.0;19.6875;0.089583;3.75875;121.0;0.026367;0.038086;1.030273;-20000;-20000;131856;1;0;0
2024-11-05_09-31-36.283857;131878;-2000.0;19.6875;0.09625;3.772084;118.0;0.026367;0.041016;1.02832;-20000;-20000;132016;1;0;0
2024-11-05_09-31-36.440106;132032;-2000.0;19.75;0.160833;3.770833;116.0;0.025391;0.039062;1.025391;-20000;-20000;132169;0;0;0
2024-11-05_09-31-36.597607;132182;-2000.0;19.75;0.245;3.807083;114.0;0.026367;0.040039;1.023438;-20000;-20000;132336;1;0;0
2024-11-05_09-31-36.754522;132336;-2000.0;19.6875;0.110417;3.7675;112.0;0.027344;0.041992;1.022461;-20000;-20000;132486;1;0;0
2024-11-05_09-31-36.910929;132495;-2000.0;19.75;0.156667;3.769167;106.0;0.024414;0.036133;1.020508;-20000;-20000;132646;1;0;0
2024-11-05_09-31-37.051925;132641;-2000.0;19.75;0.12625;3.743334;104.0;0.027344;0.044922;1.021484;-20000;-20000;132789;1;0;0
2024-11-05_09-31-37.224142;132782;-2000.0;19.75;0.144583;3.739583;100.0;0.026367;0.041992;1.023438;-20000;-20000;132956;1;0;0
2024-11-05_09-31-37.380754;132918;-2000.0;19.75;0.079583;3.756667;98.0;0.026367;0.039062;1.024414;-20000;-20000;133106;0;0;0
2024-11-05_09-31-37.537571;133061;-2000.0;19.75;0.125417;3.737917;96.0;0.026367;0.041016;1.017578;-20000;-20000;133266;0;0;0
2024-11-05_09-31-37.693822;133342;-2000.0;19.75;0.097917;3.737917;92.0;0.02832;0.040039;1.020508;20000;20000;133426;0;0;0
2024-11-05_09-31-37.834447;133481;-2000.0;19.75;0.151667;3.757917;96.0;0.024414;0.042969;1.010742;20000;20000;133576;0;0;0
2024-11-05_09-31-38.132293;133771;-2000.0;19.75;0.120833;3.7475;102.0;0.024414;0.040039;1.007812;20000;20000;133865;0;0;0
2024-11-05_09-31-38.414637;134051;-2000.0;19.75;0.101667;3.73875;111.0;0.026367;0.043945;1.016602;20000;20000;134146;0;0;0
2024-11-05_09-31-38.477143;134051;-2000.0;19.75;0.101667;3.73875;111.0;0.026367;0.043945;1.016602;20000;20000;134216;0;0;0
2024-11-05_09-31-38.634859;134193;-2000.0;19.75;0.163333;3.73875;113.0;0.02832;0.038086;1.005859;20000;20000;134366;0;0;0
2024-11-05_09-31-38.791642;134341;-2000.0;19.75;0.12;3.744167;117.0;0.026367;0.037109;1.013672;20000;20000;134516;0;0;0
2024-11-05_09-31-38.964180;134490;-2000.0;19.75;0.157917;3.747917;118.0;0.025391;0.042969;1.018555;20000;20000;134696;0;0;0
2024-11-05_09-31-39.105062;134655;-2000.0;19.75;0.094167;3.737917;123.0;0.025391;0.041016;1.011719;20000;20000;134836;0;0;0
2024-11-05_09-31-39.262047;134814;-2000.0;19.75;0.1175;3.74375;128.0;0.024414;0.041016;1.013672;20000;20000;134987;0;0;0
2024-11-05_09-31-39.498318;135125;-2000.0;19.75;0.11;3.753751;133.0;0.024414;0.040039;1.005859;20000;20000;135225;0;0;0
2024-11-05_09-31-39.670207;135272;-2000.0;19.75;0.10375;3.7375;135.0;0.023438;0.036133;1.0;20000;20000;135405;0;0;0
2024-11-05_09-31-39.748350;135272;-2000.0;19.75;0.10375;3.7375;135.0;0.023438;0.036133;1.0;20000;20000;135477;0;0;0
2024-11-05_09-31-39.936392;135559;-2000.0;19.75;0.141667;3.74625;140.0;0.029297;0.046875;1.012695;20000;20000;135644;0;0;0
2024-11-05_09-31-40.046327;135698;-2000.0;19.75;0.083333;3.752084;146.0;0.022461;0.035156;1.009766;20000;20000;135776;0;0;0
2024-11-05_09-31-40.202751;135841;-2000.0;19.75;0.124583;3.737917;148.0;0.027344;0.038086;1.012695;20000;20000;135936;0;0;0
2024-11-05_09-31-40.376058;135981;-2000.0;19.75;0.111667;3.752917;154.0;0.025391;0.037109;1.006836;20000;20000;136106;0;0;0
2024-11-05_09-31-40.548461;136130;-2000.0;19.75;3.740834;3.755834;155.0;0.025391;0.036133;1.009766;20000;20000;136266;0;0;0
2024-11-05_09-31-40.689297;136274;-2000.0;19.75;0.139583;3.74625;159.0;0.023438;0.03418;1.009766;20000;20000;136415;0;0;0
2024-11-05_09-31-40.845552;136421;-2000.0;19.75;0.069583;3.754167;161.0;0.026367;0.038086;1.016602;20000;20000;136575;0;0;0
2024-11-05_09-31-41.065964;136714;-2000.0;19.75;0.130417;3.7525;169.0;0.02832;0.041992;1.015625;20000;20000;136804;0;0;0
2024-11-05_09-31-41.191792;136714;-2000.0;19.75;0.130417;3.7525;169.0;0.02832;0.041992;1.015625;20000;20000;136878;0;0;0
2024-11-05_09-31-41.285544;136864;-2000.0;19.75;0.1375;3.742084;171.0;0.027344;0.038086;1.013672;20000;20000;137016;0;0;0
2024-11-05_09-31-41.426694;137008;-2000.0;19.75;0.065833;3.752917;177.0;0.025391;0.037109;1.009766;20000;20000;137161;0;0;0
2024-11-05_09-31-41.601145;137173;-2000.0;19.8125;0.069167;3.7375;180.0;0.025391;0.040039;1.020508;20000;20000;137332;0;0;0
2024-11-05_09-31-41.758036;137336;-2000.0;19.8125;0.13625;3.7525;183.0;0.027344;0.041016;1.021484;20000;20000;137486;0;0;0
2024-11-05_09-31-41.914750;137490;-2000.0;19.8125;3.749583;3.753333;190.0;0.025391;0.038086;1.017578;20000;20000;137646;0;0;0
2024-11-05_09-31-42.055744;137642;-2000.0;19.8125;0.079583;3.737917;190.0;0.025391;0.036133;1.017578;20000;20000;137800;0;0;0
2024-11-05_09-31-42.275425;137807;-2000.0;19.8125;0.075833;3.7475;194.0;0.024414;0.040039;1.013672;20000;20000;137977;0;0;0
2024-11-05_09-31-42.416210;137952;-2000.0;19.8125;0.068333;3.745;195.0;0.026367;0.037109;1.018555;20000;20000;138156;0;0;0
2024-11-05_09-31-42.541865;138091;-2000.0;19.8125;0.12875;3.745;204.0;0.027344;0.038086;1.015625;20000;20000;138276;0;0;0
2024-11-05_09-31-42.698683;138228;-2000.0;19.8125;0.065;3.749583;208.0;0.027344;0.035156;1.012695;20000;20000;138436;0;0;0
2024-11-05_09-31-42.855847;138373;-2000.0;19.8125;0.075833;3.739166;208.0;0.02832;0.038086;1.021484;20000;20000;138586;0;0;0
2024-11-05_09-31-43.013089;138661;-2000.0;19.8125;0.054583;3.74;213.0;0.023438;0.040039;1.007812;20000;20000;138737;0;0;0
2024-11-05_09-31-43.185031;138801;-2000.0;19.8125;0.1475;3.74875;219.0;0.026367;0.039062;1.018555;20000;20000;138918;0;0;0
2024-11-05_09-31-43.795412;139375;-2000.0;19.8125;0.135;3.74625;230.0;0.025391;0.032227;1.011719;20000;20000;139536;0;0;0
2024-11-05_09-31-43.952306;139521;-2000.0;19.8125;0.139167;3.74375;233.0;0.026367;0.039062;1.013672;20000;20000;139686;0;0;0
2024-11-05_09-31-44.109051;139661;-2000.0;19.875;0.127083;3.73875;238.0;0.024414;0.035156;1.018555;20000;20000;139846;0;0;0
2024-11-05_09-31-44.343820;139957;-2000.0;19.8125;0.09;3.73625;249.0;0.02832;0.039062;1.019531;20000;20000;140076;0;0;0
2024-11-05_09-31-44.517468;140113;-2000.0;19.875;0.1325;3.7425;249.0;0.024414;0.035156;1.021484;-20000;-20000;140246;1;0;0
2024-11-05_09-31-44.579007;140113;-2000.0;19.875;0.1325;3.7425;249.0;0.024414;0.035156;1.021484;-20000;-20000;140306;1;0;0
2024-11-05_09-31-44.782913;140269;-2000.0;19.8125;0.07375;3.747083;250.0;0.025391;0.033203;1.014648;-20000;-20000;140485;0;0;0
2024-11-05_09-31-44.955263;140561;-2000.0;19.875;0.143333;3.7375;241.0;0.027344;0.036133;1.021484;-20000;-20000;140685;0;0;0
2024-11-05_09-31-45.174437;140698;-2000.0;19.875;0.06125;3.74875;244.0;0.027344;0.037109;1.024414;-20000;-20000;140912;0;0;0
2024-11-05_09-31-45.471327;140978;-2000.0;19.875;0.094167;3.744583;234.0;0.026367;0.038086;1.020508;-20000;-20000;141195;0;0;0
2024-11-05_09-31-45.535120;141121;-2000.0;19.875;0.074583;3.734584;232.0;0.024414;0.033203;1.007812;-20000;-20000;141256;0;0;0
2024-11-05_09-31-45.659695;141261;-2000.0;19.875;0.135833;3.74;225.0;0.027344;0.036133;1.015625;-20000;-20000;141396;0;0;0
2024-11-05_09-31-45.800461;141401;-2000.0;19.875;0.061667;3.73375;225.0;0.026367;0.038086;1.020508;-20000;-20000;141535;0;0;0
2024-11-05_09-31-45.972621;141539;-2000.0;19.875;0.105417;3.744167;217.0;0.024414;0.037109;1.021484;-20000;-20000;141706;0;0;0
2024-11-05_09-31-46.129658;141672;-2000.0;19.875;0.063333;3.740417;217.0;0.025391;0.037109;1.022461;-20000;-20000;141865;0;0;0
2024-11-05_09-31-46.349483;141961;-2000.0;19.875;0.095;3.74375;210.0;0.027344;0.03418;1.024414;-20000;-20000;142085;0;0;0
2024-11-05_09-31-46.443455;142098;-2000.0;19.875;0.062083;3.737084;206.0;0.02832;0.032227;1.029297;-20000;-20000;142176;0;0;0
2024-11-05_09-31-46.647149;142249;-2000.0;19.875;0.129583;3.741667;202.0;0.025391;0.039062;1.030273;-20000;-20000;142375;0;0;0
2024-11-05_09-31-46.803707;142401;-2000.0;19.875;0.132083;3.742917;202.0;0.02832;0.039062;1.025391;-20000;-20000;142540;0;0;0
2024-11-05_09-31-47.039197;142551;-2000.0;19.875;3.739583;3.743334;195.0;0.030273;0.037109;1.032227;-20000;-20000;142773;0;0;0
2024-11-05_09-31-47.383547;142859;-2000.0;19.875;0.103333;3.750417;188.0;0.027344;0.036133;1.025391;-20000;-20000;143081;0;0;0
2024-11-05_09-31-47.556808;143161;-2000.0;19.875;0.055;3.742084;181.0;0.029297;0.040039;1.041016;-20000;-20000;143285;0;0;0
2024-11-05_09-31-47.776540;143301;-2000.0;19.9375;0.128333;3.743334;178.0;0.026367;0.038086;1.037109;-20000;-20000;143504;0;0;0
2024-11-05_09-31-47.934467;143577;-2000.0;19.9375;0.0475;3.7325;173.0;0.029297;0.036133;1.02832;-20000;-20000;143675;0;0;0
2024-11-05_09-31-48.013833;143577;-2000.0;19.9375;0.0475;3.7325;173.0;0.029297;0.036133;1.02832;-20000;-20000;143746;0;0;0
2024-11-05_09-31-48.234601;143861;-2000.0;19.9375;0.05625;3.75125;167.0;0.027344;0.038086;1.033203;-20000;-20000;143965;0;0;0
2024-11-05_09-31-48.406807;143998;-2000.0;19.9375;0.084167;3.732084;161.0;0.02832;0.035156;1.036133;-20000;-20000;144135;0;0;0
2024-11-05_09-31-48.533547;144143;-2000.0;19.9375;0.115;3.74375;162.0;0.027344;0.041016;1.036133;-20000;-20000;144232;0;0;0
2024-11-05_09-31-48.642531;144291;-2000.0;19.9375;0.125417;3.732917;157.0;0.025391;0.036133;1.025391;-20000;-20000;144367;0;0;0
2024-11-05_09-31-48.799281;144428;-2000.0;19.9375;0.10375;3.745417;153.0;0.029297;0.041016;1.02832;-20000;-20000;144536;0;0;0
2024-11-05_09-31-48.956198;144571;-2000.0;19.9375;0.0575;3.74375;149.0;0.025391;0.038086;1.027344;-20000;-20000;144696;0;0;0
2024-11-05_09-31-49.112970;144716;-2000.0;19.9375;0.072083;3.742917;146.0;0.02832;0.036133;1.029297;-20000;-20000;144845;0;0;0
2024-11-05_09-31-49.269577;144861;-2000.0;19.9375;0.06625;3.7325;142.0;0.027344;0.040039;1.033203;-20000;-20000;145005;0;0;0
2024-11-05_09-31-49.410438;144998;-2000.0;19.9375;0.053333;3.741667;139.0;0.025391;0.03418;1.02832;-20000;-20000;145146;0;0;0
2024-11-05_09-31-49.570336;145161;-2000.0;19.9375;3.737084;3.756667;135.0;0.027344;0.035156;1.023438;-20000;-20000;145303;0;0;0
2024-11-05_09-31-49.740283;145309;-2000.0;19.9375;3.744167;3.7375;132.0;0.027344;0.035156;1.024414;-20000;-20000;145465;0;0;0
2024-11-05_09-31-49.912906;145460;-2000.0;19.9375;0.065833;0.066667;132.0;0.02832;0.041992;1.03418;-20000;-20000;145650;0;0;0
2024-11-05_09-31-50.100933;145605;-2000.0;19.9375;0.145417;3.739166;128.0;0.027344;0.035156;1.032227;-20000;-20000;145824;0;0;0
2024-11-05_09-31-50.194900;145751;-2000.0;19.9375;0.083333;3.745;123.0;0.02832;0.03418;1.02832;-20000;-20000;145936;0;0;0
2024-11-05_09-31-50.367276;145892;-2000.0;19.9375;0.047917;3.729584;120.0;0.026367;0.036133;1.029297;-20000;-20000;146105;0;0;0
2024-11-05_09-31-50.555133;146171;-2000.0;19.9375;0.1425;3.7375;115.0;0.026367;0.037109;1.025391;-20000;-20000;146285;0;0;0
2024-11-05_09-31-50.665042;146309;-2000.0;19.9375;0.085417;3.728333;113.0;0.02832;0.03418;1.033203;0;0;146406;0;0;0
2024-11-05_09-31-50.821919;146451;-2000.0;19.9375;0.110833;3.732084;112.0;0.027344;0.036133;1.032227;0;0;146556;0;0;0
2024-11-05_09-31-50.979598;146590;-2000.0;19.9375;0.065;3.727083;114.0;0.027344;0.035156;1.026367;0;0;146703;0;0;0
2024-11-05_09-31-51.136666;146731;-2000.0;20.0;0.109167;3.731667;112.0;0.02832;0.038086;1.023438;0;0;146865;0;0;0
2024-11-05_09-31-51.339868;146872;-2000.0;20.0;0.105417;3.729584;111.0;0.02832;0.03418;1.023438;0;0;147041;0;0;0
2024-11-05_09-31-51.543226;147161;-2000.0;20.0;0.021667;3.727083;110.0;0.026367;0.036133;1.036133;0;0;147262;0;0;0
2024-11-05_09-31-51.606489;147161;-2000.0;20.0;0.021667;3.727083;110.0;0.026367;0.036133;1.036133;0;0;147336;0;0;0
2024-11-05_09-31-51.794656;147441;-2000.0;20.0;0.02125;3.727083;110.0;0.027344;0.033203;1.015625;0;0;147535;0;0;0
2024-11-05_09-31-51.920020;147441;-2000.0;20.0;0.02125;3.727083;110.0;0.027344;0.033203;1.015625;0;0;147648;0;0;0
2024-11-05_09-31-52.061328;147721;-2000.0;20.0;0.021667;3.727083;111.0;0.02832;0.040039;1.030273;0;0;147806;0;0;0
2024-11-05_09-31-52.233760;147858;-2000.0;20.0;0.02125;3.727083;110.0;0.02832;0.039062;1.021484;0;0;147966;0;0;0
2024-11-05_09-31-52.390761;148014;-2000.0;20.0;0.02125;3.727083;110.0;0.027344;0.036133;1.027344;0;0;148116;0;0;0
2024-11-05_09-31-52.563282;148175;-2000.0;20.0;0.02125;3.726667;110.0;0.026367;0.033203;1.021484;0;0;148289;0;0;0
2024-11-05_09-31-52.704274;148330;-2000.0;20.0;0.02125;3.727083;111.0;0.030273;0.039062;1.029297;0;0;148436;0;0;0
2024-11-05_09-31-52.892297;148488;-2000.0;20.0;0.02125;3.727083;109.0;0.029297;0.039062;1.029297;0;0;148598;0;0;0
2024-11-05_09-31-53.018361;148622;-2000.0;20.0;0.02125;3.727083;110.0;0.027344;0.035156;1.025391;0;0;148755;0;0;0
2024-11-05_09-31-53.237995;148768;-2000.0;20.0;0.021667;3.727083;111.0;0.029297;0.036133;1.036133;0;0;148974;0;0;0
2024-11-05_09-31-53.300496;148911;-2000.0;20.0625;0.02125;3.727083;110.0;0.026367;0.036133;1.027344;0;0;149038;0;0;0
2024-11-05_09-31-53.488462;149057;-2000.0;20.0625;0.02125;3.727083;112.0;0.027344;0.037109;1.032227;0;0;149216;0;0;0
2024-11-05_09-31-53.629758;149201;-2000.0;20.0;0.02125;3.727083;109.0;0.029297;0.038086;1.030273;0;0;149366;0;0;0
2024-11-05_09-31-53.833797;149344;-2000.0;20.0625;0.02125;3.727083;112.0;0.027344;0.032227;1.027344;0;0;149565;0;0;0
2024-11-05_09-31-53.959602;149488;-2000.0;20.0625;0.02125;3.727083;110.0;0.027344;0.03418;1.027344;0;0;149693;0;0;0
2024-11-05_09-31-54.132313;149643;-2000.0;20.0625;0.02125;3.727083;113.0;0.03125;0.041016;1.042969;0;0;149837;0;0;0
2024-11-05_09-31-54.257805;149793;-2000.0;20.0625;0.02125;3.727083;109.0;0.02832;0.036133;1.037109;0;0;149986;0;0;0
2024-11-05_09-31-54.414566;149941;-2000.0;20.0625;0.02125;3.727083;110.0;0.026367;0.038086;1.026367;0;0;150146;0;0;0
2024-11-05_09-31-54.555367;150078;-2000.0;20.0625;0.02125;3.727083;111.0;0.027344;0.037109;1.026367;0;0;150296;0;0;0
2024-11-05_09-31-54.727675;150372;-2000.0;20.0625;0.02125;3.727083;109.0;0.02832;0.036133;1.030273;0;0;150465;0;0;0
2024-11-05_09-31-55.010486;150524;-2000.0;20.0625;0.02125;3.727083;114.0;0.027344;0.035156;1.032227;0;0;150620;0;0;0
2024-11-05_09-31-55.199075;150843;-2000.0;20.0625;0.02125;3.726667;111.0;0.026367;0.036133;1.017578;0;0;150932;0;0;0
2024-11-05_09-31-55.419231;150995;-2000.0;20.0625;0.02125;3.726667;110.0;0.027344;0.037109;1.025391;0;0;151161;0;0;0
2024-11-05_09-31-55.513430;151151;-2000.0;20.0625;0.02125;3.727083;114.0;0.026367;0.03418;1.02832;0;0;151245;0;0;0
2024-11-05_09-31-55.654229;151284;-2000.0;20.0625;0.02125;3.727083;110.0;0.02832;0.036133;1.020508;0;0;151396;0;0;0
2024-11-05_09-31-55.827200;151428;-2000.0;20.125;0.02125;3.727083;110.0;0.029297;0.038086;1.030273;0;0;151556;0;0;0
2024-11-05_09-31-55.984292;151572;-2000.0;20.0625;0.02125;3.727083;111.0;0.027344;0.037109;1.036133;0;0;151716;0;0;0
2024-11-05_09-31-56.140541;151724;-2000.0;20.125;0.02125;3.727083;110.0;0.025391;0.036133;1.023438;0;0;151867;0;0;0
2024-11-05_09-31-56.312874;151874;-2000.0;20.0625;0.02125;3.727083;111.0;0.026367;0.035156;1.014648;0;0;152045;0;0;0
2024-11-05_09-31-56.453644;152021;-2000.0;20.0625;0.02125;3.727083;111.0;0.027344;0.036133;1.024414;0;0;152186;0;0;0
2024-11-05_09-31-56.610724;152164;-2000.0;20.125;0.02125;3.726667;109.0;0.026367;0.036133;1.025391;0;0;152339;0;0;0
2024-11-05_09-31-56.845586;152459;-2000.0;20.125;0.021667;3.727083;109.0;0.026367;0.033203;1.024414;0;0;152575;0;0;0
2024-11-05_09-31-56.925379;152459;-2000.0;20.125;0.021667;3.727083;109.0;0.026367;0.033203;1.024414;0;0;152656;0;0;0
2024-11-05_09-31-57.127451;152739;-2000.0;20.125;0.02125;3.72625;111.0;0.027344;0.033203;1.019531;0;0;152855;0;0;0
2024-11-05_09-31-57.241259;152881;-2000.0;20.125;0.02125;3.725417;110.0;0.027344;0.03418;1.019531;0;0;152975;0;0;0
2024-11-05_09-31-57.394166;153027;-2000.0;20.125;0.02125;3.723334;111.0;0.024414;0.037109;1.014648;0;0;153126;0;0;0
2024-11-05_09-31-57.535215;153027;-2000.0;20.125;0.02125;3.723334;111.0;0.024414;0.037109;1.014648;0;0;153269;0;0;0
2024-11-05_09-31-57.786275;153344;-2000.0;20.125;0.02125;3.72125;111.0;0.027344;0.037109;1.024414;0;0;153508;0;0;0
2024-11-05_09-31-57.833336;153344;-2000.0;20.125;0.02125;3.72125;111.0;0.027344;0.037109;1.024414;0;0;153570;0;0;0
2024-11-05_09-31-58.162274;153799;-2000.0;20.125;3.721667;3.721667;109.0;0.027344;0.038086;1.014648;0;0;153878;0;0;0
2024-11-05_09-31-58.335033;153938;-2000.0;20.125;0.021667;3.721667;108.0;0.02832;0.036133;1.03125;0;0;154065;0;0;0
2024-11-05_09-31-58.492119;154081;-2000.0;20.125;0.02125;3.721667;112.0;0.029297;0.036133;1.029297;0;0;154225;0;0;0
2024-11-05_09-31-58.633656;154218;-2000.0;20.125;0.02125;3.721667;111.0;0.025391;0.033203;1.021484;0;0;154366;0;0;0
2024-11-05_09-31-58.790076;154361;-2000.0;20.125;0.02125;3.721667;111.0;0.027344;0.03418;1.03125;0;0;154526;0;0;0
2024-11-05_09-31-58.994037;154503;-2000.0;20.1875;0.02125;3.721667;110.0;0.026367;0.039062;1.019531;0;0;154723;0;0;0
2024-11-05_09-31-59.095149;154648;-2000.0;20.1875;0.021667;3.721667;110.0;0.026367;0.037109;1.022461;0;0;154825;0;0;0
2024-11-05_09-31-59.466848;154928;-2000.0;20.1875;0.02125;3.721667;110.0;0.02832;0.035156;1.024414;0;0;155056;0;0;0
2024-11-05_09-31-59.561604;155209;-2000.0;20.1875;0.02125;3.721667;109.0;0.02832;0.036133;1.022461;0;0;155296;0;0;0
2024-11-05_09-31-59.781165;155353;-2000.0;20.1875;0.02125;3.721667;111.0;0.029297;0.037109;1.012695;0;0;155515;0;0;0
2024-11-05_09-31-59.891545;155501;-2000.0;20.1875;0.021667;3.721667;110.0;0.026367;0.037109;1.024414;0;0;155625;0;0;0
2024-11-05_09-32-00.096008;155638;-2000.0;20.1875;0.02125;3.721667;111.0;0.027344;0.035156;1.024414;0;0;155831;0;0;0
2024-11-05_09-32-00.205385;155781;-2000.0;20.1875;0.021667;3.721667;113.0;0.026367;0.033203;1.027344;0;0;155935;0;0;0
2024-11-05_09-32-00.424782;155941;-2000.0;20.1875;0.02125;3.721667;107.0;0.024414;0.036133;1.015625;0;0;156150;0;0;0
2024-11-05_09-32-00.754654;156102;-2000.0;20.1875;0.02125;3.721667;113.0;0.026367;0.038086;1.020508;0;0;156344;0;0;0
2024-11-05_09-32-00.911252;156558;-2000.0;20.1875;0.021667;3.721667;111.0;0.026367;0.039062;1.015625;0;0;156642;0;0;0
2024-11-05_09-32-00.973911;156558;-2000.0;20.1875;0.021667;3.721667;111.0;0.026367;0.039062;1.015625;0;0;156706;0;0;0
2024-11-05_09-32-01.130539;156701;-2000.0;20.25;0.02125;3.721667;113.0;0.02832;0.041992;1.023438;0;0;156866;0;0;0
2024-11-05_09-32-01.570312;157119;-2000.0;20.25;0.02125;3.721667;111.0;0.026367;0.033203;1.019531;0;0;157306;0;0;0
2024-11-05_09-32-01.758477;157272;-2000.0;20.25;0.02125;3.534584;109.0;0.026367;0.03418;1.020508;0;0;157483;0;0;0
2024-11-05_09-32-02.026187;157561;-2000.0;20.25;0.6025;3.560416;111.0;0.029297;0.035156;1.029297;0;0;157723;0;0;0
2024-11-05_09-32-02.088921;157698;-2000.0;20.25;0.7025;3.5475;109.0;0.027344;0.032227;1.021484;0;0;157815;0;0;0
2024-11-05_09-32-02.402513;157978;-2000.0;20.25;0.847083;3.533334;111.0;0.02832;0.039062;1.020508;0;0;158135;0;0;0
2024-11-05_09-32-02.637121;158258;-2000.0;20.25;0.943333;3.524167;112.0;0.026367;0.035156;1.020508;0;0;158367;0;0;0
2024-11-05_09-32-02.697490;158258;-2000.0;20.25;0.943333;3.524167;112.0;0.026367;0.035156;1.020508;0;0;158426;0;0;0
2024-11-05_09-32-02.854356;158426;-2000.0;20.25;0.97125;3.5225;111.0;0.027344;0.039062;1.025391;0;0;158586;0;0;0
2024-11-05_09-32-03.010967;158587;-2000.0;20.3125;0.989583;3.522917;112.0;0.027344;0.03418;1.020508;0;0;158745;0;0;0
2024-11-05_09-32-03.230169;158742;-2000.0;20.3125;0.995;3.522917;111.0;0.025391;0.036133;1.017578;0;0;158921;0;0;0
2024-11-05_09-32-03.324395;158881;-2000.0;20.3125;1.000417;3.522917;112.0;0.027344;0.033203;1.026367;0;0;159056;0;0;0
2024-11-05_09-32-03.480742;159020;-2000.0;20.3125;1.000417;3.522917;112.0;0.026367;0.037109;1.018555;0;0;159216;0;0;0
2024-11-05_09-32-03.700622;159298;-2000.0;20.3125;1.000417;3.522917;109.0;0.025391;0.036133;1.027344;0;0;159425;0;0;0
2024-11-05_09-32-03.794550;159441;-2000.0;20.3125;1.000417;3.522917;111.0;0.02832;0.039062;1.021484;0;0;159526;0;0;0
2024-11-05_09-32-03.951719;159578;-2000.0;20.3125;1.000417;3.522917;111.0;0.02832;0.038086;1.02832;0;0;159686;0;0;0
2024-11-05_09-32-04.593782;160152;-2000.0;20.3125;0.995417;3.522917;109.0;0.02832;0.038086;1.017578;0;0;160325;0;0;0
2024-11-05_09-32-04.751143;160298;-2000.0;20.3125;0.995;3.526667;113.0;0.027344;0.036133;1.022461;0;0;160473;0;0;0
2024-11-05_09-32-04.908056;160441;-2000.0;20.3125;0.995;3.522917;112.0;0.030273;0.037109;1.029297;0;0;160634;0;0;0
2024-11-05_09-32-05.127940;160728;-2000.0;20.3125;0.994583;3.528334;112.0;0.026367;0.032227;1.017578;0;0;160856;0;0;0
2024-11-05_09-32-05.206396;160728;-2000.0;20.3125;0.994583;3.528334;112.0;0.026367;0.032227;1.017578;0;0;160936;0;0;0
2024-11-05_09-32-05.363066;160882;-2000.0;20.3125;0.995;3.528334;109.0;0.026367;0.035156;1.016602;0;0;161095;0;0;0
2024-11-05_09-32-05.723828;161341;-2000.0;20.375;0.989167;3.528334;107.0;0.025391;0.035156;1.014648;0;0;161434;0;0;0
2024-11-05_09-32-06.021662;161621;-2000.0;20.375;0.989583;3.528334;110.0;0.027344;0.036133;1.017578;0;0;161755;0;0;0
2024-11-05_09-32-06.131268;161760;-2000.0;20.375;0.989583;3.528334;110.0;0.024414;0.036133;1.020508;0;0;161865;0;0;0
2024-11-05_09-32-06.287519;161901;-2000.0;20.375;0.989583;3.528334;110.0;0.027344;0.033203;1.018555;0;0;162025;0;0;0
2024-11-05_09-32-06.444048;162038;-2000.0;20.375;0.989583;3.52875;111.0;0.023438;0.03418;1.011719;0;0;162174;0;0;0
2024-11-05_09-32-06.616712;162183;-2000.0;20.375;0.989583;3.533334;109.0;0.02832;0.037109;1.017578;0;0;162345;0;0;0
2024-11-05_09-32-06.757988;162331;-2000.0;20.375;0.989583;3.53375;112.0;0.027344;0.033203;1.018555;0;0;162486;0;0;0
2024-11-05_09-32-06.977691;162611;-2000.0;20.375;0.989583;3.53375;112.0;0.029297;0.036133;1.020508;0;0;162715;0;0;0
2024-11-05_09-32-07.118521;162748;-2000.0;20.375;0.989583;3.533334;109.0;0.02832;0.035156;1.026367;0;0;162829;0;0;0
2024-11-05_09-32-07.259146;162891;-2000.0;20.375;0.986667;3.533334;111.0;0.027344;0.036133;1.032227;0;0;162985;0;0;0
2024-11-05_09-32-07.416171;163029;-2000.0;20.375;0.985417;3.53375;112.0;0.027344;0.040039;1.020508;0;0;163145;0;0;0
2024-11-05_09-32-07.635360;163171;-2000.0;20.4375;0.984167;3.533334;111.0;0.025391;0.035156;1.019531;0;0;163366;0;0;0
2024-11-05_09-32-07.682553;163326;-2000.0;20.4375;0.989583;3.53375;109.0;0.027344;0.041016;1.033203;0;0;163416;0;0;0
2024-11-05_09-32-07.854793;163468;-2000.0;20.4375;0.9875;3.53375;110.0;0.02832;0.038086;1.021484;0;0;163581;0;0;0
2024-11-05_09-32-08.497899;164058;-2000.0;20.4375;0.984167;3.53875;110.0;0.02832;0.041016;1.025391;0;0;164222;0;0;0
2024-11-05_09-32-08.702144;164338;-2000.0;20.4375;0.984167;3.53375;112.0;0.027344;0.037109;1.011719;0;0;164445;0;0;0
2024-11-05_09-32-08.796560;164338;-2000.0;20.4375;0.984167;3.53375;112.0;0.027344;0.037109;1.011719;0;0;164526;0;0;0
2024-11-05_09-32-08.952854;164481;-2000.0;20.4375;0.984167;3.539167;113.0;0.027344;0.035156;1.019531;0;0;164686;0;0;0
2024-11-05_09-32-09.125025;164761;-2000.0;20.4375;0.984167;3.539167;112.0;0.026367;0.037109;1.020508;0;0;164865;0;0;0
2024-11-05_09-32-09.296899;164898;-2000.0;20.4375;0.984167;3.539167;108.0;0.02832;0.036133;1.018555;0;0;165025;0;0;0
2024-11-05_09-32-09.426216;165041;-2000.0;20.4375;0.984167;3.539167;111.0;0.030273;0.036133;1.024414;0;0;165156;0;0;0
2024-11-05_09-32-09.625825;165180;-2000.0;20.4375;0.98375;3.53875;113.0;0.025391;0.036133;1.021484;0;0;165324;0;0;0
2024-11-05_09-32-09.766728;165322;-2000.0;20.4375;0.977917;3.539167;110.0;0.027344;0.041016;1.023438;0;0;165505;0;0;0
2024-11-05_09-32-09.892134;165458;-2000.0;20.5;0.975833;3.539167;110.0;0.025391;0.038086;1.018555;0;0;165626;0;0;0
2024-11-05_09-32-10.159030;165751;-2000.0;20.4375;0.975833;3.539167;112.0;0.027344;0.036133;1.017578;0;0;165884;0;0;0
2024-11-05_09-32-10.206263;165751;-2000.0;20.4375;0.975833;3.539167;112.0;0.027344;0.036133;1.017578;0;0;165936;0;0;0
2024-11-05_09-32-10.535661;166053;-2000.0;20.5;0.975833;3.539167;111.0;0.025391;0.036133;1.017578;0;0;166271;0;0;0
2024-11-05_09-32-10.646200;166212;-2000.0;20.5;0.975833;3.539167;108.0;0.027344;0.03418;1.017578;0;0;166382;0;0;0
2024-11-05_09-32-10.944496;166501;-2000.0;20.5;0.897083;3.53875;110.0;0.026367;0.03418;1.021484;0;0;166658;0;0;0
2024-11-05_09-32-11.242043;166781;-2000.0;20.5;0.659167;3.53875;112.0;0.027344;0.035156;1.019531;0;0;166975;0;0;0
2024-11-05_09-32-11.273636;166918;-2000.0;20.5;0.560417;3.53875;111.0;0.02832;0.037109;1.025391;0;0;167015;0;0;0
2024-11-05_09-32-11.666204;167208;-2000.0;20.5;0.34875;3.539167;112.0;0.024414;0.03418;1.021484;0;0;167398;0;0;0
2024-11-05_09-32-11.760250;167351;-2000.0;20.5;0.20375;3.539167;109.0;0.026367;0.035156;1.015625;0;0;167496;0;0;0
2024-11-05_09-32-12.074192;167632;-2000.0;20.5;0.03;3.53875;113.0;0.02832;0.037109;1.023438;0;0;167762;0;0;0
2024-11-05_09-32-12.262690;167919;-2000.0;20.5;0.02125;3.53875;109.0;0.02832;0.041992;1.023438;0;0;167995;0;0;0
2024-11-05_09-32-12.388612;167919;-2000.0;20.5;0.02125;3.53875;109.0;0.02832;0.041992;1.023438;0;0;168126;0;0;0
2024-11-05_09-32-12.545875;168061;-2000.0;20.5;0.02125;3.539167;111.0;0.027344;0.038086;1.019531;0;0;168276;0;0;0
2024-11-05_09-32-12.703801;168344;-2000.0;20.5625;0.021667;3.539167;112.0;0.027344;0.036133;1.032227;0;0;168436;0;0;0
2024-11-05_09-32-12.898310;168494;-2000.0;20.5625;0.02125;3.539167;108.0;0.026367;0.038086;1.020508;0;0;168631;0;0;0
2024-11-05_09-32-13.017900;168650;-2000.0;20.5625;0.021667;3.53875;111.0;0.02832;0.037109;1.013672;0;0;168748;0;0;0
2024-11-05_09-32-13.190170;168810;-2000.0;20.5625;0.02125;3.539167;108.0;0.029297;0.038086;1.021484;0;0;168928;0;0;0
2024-11-05_09-32-13.426540;168954;-2000.0;20.5625;0.021667;3.539167;111.0;0.026367;0.033203;1.015625;0;0;169149;0;0;0
2024-11-05_09-32-13.474499;169091;-2000.0;20.5625;0.02125;3.544167;108.0;0.029297;0.037109;1.017578;0;0;169209;0;0;0
2024-11-05_09-32-13.695974;169235;-2000.0;20.5625;0.02125;3.544583;110.0;0.027344;0.035156;1.025391;0;0;169436;0;0;0
2024-11-05_09-32-13.822943;169391;-2000.0;20.5625;0.021667;3.544167;111.0;0.02832;0.03418;1.018555;0;0;169555;0;0;0
2024-11-05_09-32-13.949194;169542;-2000.0;20.5625;0.021667;3.544167;112.0;0.027344;0.03418;1.022461;0;0;169686;0;0;0
2024-11-05_09-32-14.121629;169691;-2000.0;20.5625;0.02125;3.544167;110.0;0.02832;0.03418;1.012695;0;0;169855;0;0;0
2024-11-05_09-32-14.262715;169828;-2000.0;20.625;0.021667;3.544167;110.0;0.027344;0.033203;1.023438;0;0;169996;0;0;0
2024-11-05_09-32-14.419089;169974;-2000.0;20.5625;0.02125;3.544583;111.0;0.029297;0.033203;1.018555;0;0;170148;0;0;0
2024-11-05_09-32-14.575697;170123;-2000.0;20.5625;0.02125;3.544167;109.0;0.027344;0.032227;1.012695;0;0;170310;0;0;0
2024-11-05_09-32-14.763956;170274;-2000.0;20.625;0.02125;3.544167;111.0;0.027344;0.036133;1.025391;0;0;170496;0;0;0
2024-11-05_09-32-14.890290;170421;-2000.0;20.625;0.021667;3.544583;112.0;0.027344;0.035156;1.013672;0;0;170616;0;0;0
2024-11-05_09-32-15.047937;170564;-2000.0;20.625;0.02125;3.544167;110.0;0.02832;0.037109;1.017578;0;0;170776;0;0;0
2024-11-05_09-32-15.298833;170864;-2000.0;20.625;0.02125;3.544167;111.0;0.029297;0.03418;1.023438;0;0;171026;0;0;0
2024-11-05_09-32-15.361341;171011;-2000.0;20.625;0.021667;3.544167;110.0;0.026367;0.035156;1.019531;0;0;171087;0;0;0
2024-11-05_09-32-15.534452;171154;-2000.0;20.625;0.021667;3.544167;110.0;0.027344;0.035156;1.023438;0;0;171265;0;0;0
2024-11-05_09-32-15.675077;171298;-2000.0;20.625;0.02125;3.544167;110.0;0.026367;0.038086;1.02832;0;0;171397;0;0;0
2024-11-05_09-32-15.909452;171434;-2000.0;20.625;0.02125;3.544583;112.0;0.026367;0.037109;1.017578;0;0;171627;0;0;0
2024-11-05_09-32-16.066053;171586;-2000.0;20.625;0.02125;3.544583;112.0;0.027344;0.036133;1.024414;0;0;171791;0;0;0
2024-11-05_09-32-16.159799;171732;-2000.0;20.625;0.021667;3.544167;109.0;0.026367;0.03418;1.022461;0;0;171886;0;0;0
2024-11-05_09-32-16.300425;171890;-2000.0;20.625;0.02125;3.544583;110.0;0.025391;0.036133;1.015625;0;0;172035;0;0;0
2024-11-05_09-32-16.441048;172045;-2000.0;20.625;0.02125;3.544583;111.0;0.027344;0.037109;1.026367;0;0;172176;0;0;0
2024-11-05_09-32-16.597772;172200;-2000.0;20.625;3.544167;3.544167;111.0;0.027344;0.037109;1.026367;0;0;172335;0;0;0
2024-11-05_09-32-16.754021;172338;-2000.0;20.625;0.021667;3.544583;111.0;0.029297;0.039062;1.025391;0;0;172486;0;0;0
2024-11-05_09-32-16.910270;172481;-2000.0;20.625;0.02125;3.544583;114.0;0.027344;0.035156;1.020508;0;0;172646;0;0;0
2024-11-05_09-32-17.066522;172622;-2000.0;20.625;0.02125;3.544583;110.0;0.02832;0.039062;1.026367;0;0;172791;0;0;0
2024-11-05_09-32-17.254020;172768;-2000.0;20.625;0.02125;3.544167;112.0;0.027344;0.033203;1.022461;0;0;172977;0;0;0
2024-11-05_09-32-17.363394;172903;-2000.0;20.6875;0.021667;3.544583;111.0;0.02832;0.037109;1.024414;0;0;173099;0;0;0
2024-11-05_09-32-17.598801;173191;-2000.0;20.625;0.02125;3.544167;112.0;0.02832;0.033203;1.017578;0;0;173335;0;0;0
2024-11-05_09-32-17.693313;173331;-2000.0;20.6875;0.021667;3.544167;111.0;0.02832;0.03418;1.016602;0;0;173426;0;0;0
2024-11-05_09-32-17.850355;173478;-2000.0;20.6875;0.02125;3.544583;110.0;0.026367;0.036133;1.020508;0;0;173586;0;0;0
2024-11-05_09-32-18.023798;173622;-2000.0;20.6875;0.02125;3.544583;110.0;0.02832;0.036133;1.023438;0;0;173755;0;0;0
2024-11-05_09-32-18.242917;173768;-2000.0;20.6875;0.02125;3.544583;111.0;0.02832;0.035156;1.023438;0;0;173936;0;0;0
2024-11-05_09-32-18.322096;173911;-2000.0;20.6875;0.02125;3.544167;109.0;0.027344;0.038086;1.022461;0;0;174056;0;0;0
2024-11-05_09-32-18.603636;174204;-2000.0;20.6875;0.021667;3.544167;110.0;0.027344;0.036133;1.004883;0;0;174333;0;0;0
2024-11-05_09-32-18.887123;174521;-2000.0;20.6875;0.02125;3.544583;111.0;0.02832;0.03418;1.015625;0;0;174626;0;0;0
2024-11-05_09-32-18.965852;174521;-2000.0;20.6875;0.02125;3.544583;111.0;0.02832;0.03418;1.015625;0;0;174696;0;0;0
2024-11-05_09-32-19.218121;174821;-2000.0;20.6875;0.021667;3.544583;109.0;0.027344;0.033203;1.015625;0;0;174951;0;0;0
2024-11-05_09-32-19.328067;174960;-2000.0;20.6875;0.02125;3.544583;109.0;0.026367;0.035156;1.016602;0;0;175038;0;0;0
2024-11-05_09-32-19.437987;174960;-2000.0;20.6875;0.02125;3.544583;109.0;0.026367;0.035156;1.016602;0;0;175163;0;0;0
2024-11-05_09-32-19.626213;175238;-2000.0;20.6875;0.02125;3.544167;109.0;0.024414;0.033203;1.014648;0;0;175344;0;0;0
2024-11-05_09-32-19.736085;175382;-2000.0;20.75;0.021667;3.544167;112.0;0.030273;0.03418;1.018555;0;0;175466;0;0;0
2024-11-05_09-32-19.893538;175531;-2000.0;20.6875;0.02125;3.539584;109.0;0.026367;0.036133;1.017578;0;0;175625;0;0;0
2024-11-05_09-32-20.050220;175669;-2000.0;20.6875;0.02125;3.539167;111.0;0.026367;0.038086;1.016602;0;0;175785;0;0;0
2024-11-05_09-32-20.269233;175811;-2000.0;20.6875;0.02125;3.53875;114.0;0.02832;0.040039;1.022461;0;0;175995;0;0;0
2024-11-05_09-32-20.411063;175948;-2000.0;20.6875;0.02125;3.540833;111.0;0.03125;0.035156;1.017578;0;0;176111;0;0;0
2024-11-05_09-32-20.648217;176241;-2000.0;20.6875;0.021667;3.540417;109.0;0.027344;0.033203;1.016602;0;0;176385;0;0;0
2024-11-05_09-32-20.867954;176380;-2000.0;20.75;0.02125;3.54375;111.0;0.025391;0.041016;1.022461;0;0;176594;0;0;0
2024-11-05_09-32-21.073925;176658;-2000.0;20.75;0.02125;3.53875;110.0;0.027344;0.041016;1.020508;0;0;176808;0;0;0
2024-11-05_09-32-21.243978;176813;-2000.0;20.75;0.02125;3.539584;109.0;0.025391;0.036133;1.015625;0;0;176979;0;0;0
2024-11-05_09-32-21.636136;177131;-2000.0;20.75;0.02125;3.539167;111.0;0.027344;0.035156;1.021484;0;0;177341;0;0;0
2024-11-05_09-32-21.730827;177271;-2000.0;20.75;0.02125;3.54125;110.0;0.029297;0.039062;1.024414;0;0;177464;0;0;0
2024-11-05_09-32-21.793599;177410;-2000.0;20.75;0.021667;3.539167;111.0;0.026367;0.037109;1.019531;0;0;177525;0;0;0
2024-11-05_09-32-21.934808;177551;-2000.0;20.75;0.02125;3.53875;110.0;0.026367;0.038086;1.014648;0;0;177666;0;0;0
2024-11-05_09-32-22.170536;177688;-2000.0;20.75;0.021667;3.539167;112.0;0.030273;0.037109;1.017578;0;0;177903;0;0;0
2024-11-05_09-32-22.248663;177831;-2000.0;20.75;0.02125;3.539167;109.0;0.026367;0.036133;1.012695;0;0;177986;0;0;0
2024-11-05_09-32-22.405824;177968;-2000.0;20.75;0.021667;3.539167;108.0;0.02832;0.038086;1.015625;0;0;178136;0;0;0
2024-11-05_09-32-22.562920;178113;-2000.0;20.75;0.021667;3.53875;112.0;0.026367;0.038086;1.009766;0;0;178296;0;0;0
2024-11-05_09-32-22.877426;178258;-2000.0;20.75;0.02125;3.539167;109.0;0.026367;0.037109;1.017578;0;0;178471;0;0;0
2024-11-05_09-32-23.033412;178678;-2000.0;20.75;0.02125;3.53875;108.0;0.026367;0.03125;1.013672;0;0;178766;0;0;0
2024-11-05_09-32-23.207255;178821;-2000.0;20.75;0.02125;3.544583;111.0;0.027344;0.036133;1.008789;0;0;178936;0;0;0
2024-11-05_09-32-23.348309;178959;-2000.0;20.8125;0.02125;3.544583;111.0;0.027344;0.036133;1.016602;0;0;179075;0;0;0
2024-11-05_09-32-23.725256;179246;-2000.0;20.8125;0.02125;3.544583;110.0;0.029297;0.036133;1.027344;0;0;179460;0;0;0
2024-11-05_09-32-23.912237;179562;-2000.0;20.8125;0.02125;3.544583;111.0;0.027344;0.030273;1.010742;0;0;179640;0;0;0
2024-11-05_09-32-23.974737;179562;-2000.0;20.8125;0.02125;3.544583;111.0;0.027344;0.030273;1.010742;0;0;179705;0;0;0
2024-11-05_09-32-24.147192;179701;-2000.0;20.8125;0.021667;3.544583;113.0;0.030273;0.039062;1.020508;0;0;179875;0;0;0
2024-11-05_09-32-24.368103;179991;-2000.0;20.8125;0.02125;3.544167;109.0;0.027344;0.032227;1.021484;0;0;180105;0;0;0
2024-11-05_09-32-24.429992;179991;-2000.0;20.8125;0.02125;3.544167;109.0;0.027344;0.032227;1.021484;0;0;180156;0;0;0
2024-11-05_09-32-24.587162;180131;-2000.0;20.8125;0.02125;3.544167;112.0;0.027344;0.036133;1.022461;0;0;180316;0;0;0
2024-11-05_09-32-24.917491;180563;-2000.0;20.8125;0.02125;3.544583;111.0;0.027344;0.036133;1.016602;0;0;180655;0;0;0
2024-11-05_09-32-25.105664;180713;-2000.0;20.8125;0.02125;3.544583;110.0;0.029297;0.039062;1.019531;0;0;180811;0;0;0
2024-11-05_09-32-25.215516;180862;-2000.0;20.8125;0.021667;3.544167;110.0;0.029297;0.032227;1.022461;0;0;180946;0;0;0
2024-11-05_09-32-25.465957;180998;-2000.0;20.8125;0.021667;3.544167;110.0;0.027344;0.035156;1.019531;0;0;181201;0;0;0
2024-11-05_09-32-25.513218;181141;-2000.0;20.8125;0.02125;3.544167;112.0;0.026367;0.03418;1.011719;0;0;181255;0;0;0
2024-11-05_09-32-25.685998;181278;-2000.0;20.8125;0.02125;3.544167;113.0;0.025391;0.033203;1.015625;0;0;181415;0;0;0
2024-11-05_09-32-25.843441;181422;-2000.0;20.8125;0.02125;3.544583;110.0;0.02832;0.036133;1.020508;0;0;181575;0;0;0
2024-11-05_09-32-26.000591;181561;-2000.0;20.8125;0.02125;3.544167;111.0;0.029297;0.040039;1.019531;0;0;181739;0;0;0
2024-11-05_09-32-26.235744;181846;-2000.0;20.8125;0.021667;3.544167;110.0;0.025391;0.041016;1.024414;0;0;181964;0;0;0
2024-11-05_09-32-26.330231;181846;-2000.0;20.8125;0.021667;3.544167;110.0;0.025391;0.041016;1.024414;0;0;182042;0;0;0
2024-11-05_09-32-26.565356;182142;-2000.0;20.875;0.02125;3.544583;110.0;0.02832;0.032227;1.022461;0;0;182283;0;0;0
2024-11-05_09-32-26.628670;182142;-2000.0;20.875;0.02125;3.544583;110.0;0.02832;0.032227;1.022461;0;0;182356;0;0;0
2024-11-05_09-32-26.879693;182461;-2000.0;20.875;0.02125;3.544167;111.0;0.030273;0.033203;1.021484;0;0;182605;0;0;0
2024-11-05_09-32-26.926755;182461;-2000.0;20.875;0.02125;3.544167;111.0;0.030273;0.033203;1.021484;0;0;182664;0;0;0
2024-11-05_09-32-27.114760;182761;-2000.0;20.875;0.02125;3.544167;111.0;0.025391;0.036133;1.024414;0;0;182845;0;0;0
2024-11-05_09-32-27.255986;182898;-2000.0;20.875;0.02125;3.544167;110.0;0.026367;0.036133;1.024414;0;0;182983;0;0;0
2024-11-05_09-32-27.475595;183043;-2000.0;20.875;0.02125;3.544167;112.0;0.030273;0.035156;1.020508;0;0;183205;0;0;0
2024-11-05_09-32-27.695948;183191;-2000.0;20.875;0.02125;3.544167;113.0;0.027344;0.033203;1.020508;0;0;183383;0;0;0
2024-11-05_09-32-27.962723;183473;-2000.0;20.875;0.02125;3.544167;112.0;0.02832;0.03418;1.017578;0;0;183692;0;0;0
2024-11-05_09-32-28.134861;183761;-2000.0;20.875;0.02125;3.544167;111.0;0.02832;0.039062;1.027344;0;0;183865;0;0;0
2024-11-05_09-32-28.324126;183899;-2000.0;20.875;0.02125;3.544167;113.0;0.030273;0.035156;1.024414;0;0;184062;0;0;0
2024-11-05_09-32-28.543655;184178;-2000.0;20.875;0.021667;3.544167;109.0;0.029297;0.035156;1.023438;0;0;184285;0;0;0
2024-11-05_09-32-28.653400;184178;-2000.0;20.875;0.021667;3.544167;109.0;0.029297;0.035156;1.023438;0;0;184384;0;0;0
2024-11-05_09-32-28.841849;184458;-2000.0;20.875;0.02125;0.02125;110.0;0.024414;0.033203;1.018555;0;0;184567;0;0;0
2024-11-05_09-32-28.983228;184600;-2000.0;20.875;0.02125;3.541667;108.0;0.02832;0.037109;1.019531;0;0;184718;0;0;0
2024-11-05_09-32-29.123954;184739;-2000.0;20.875;0.02125;3.544583;110.0;0.030273;0.044922;1.019531;0;0;184855;0;0;0
2024-11-05_09-32-29.264903;184891;-2000.0;20.875;0.02125;3.54125;109.0;0.027344;0.038086;1.026367;0;0;185001;0;0;0
2024-11-05_09-32-29.436939;185057;-2000.0;20.9375;0.021667;3.540417;113.0;0.025391;0.037109;1.010742;0;0;185166;0;0;0
2024-11-05_09-32-29.719326;185361;-2000.0;20.875;0.021667;3.53875;109.0;0.027344;0.03418;1.014648;0;0;185444;0;0;0
2024-11-05_09-32-29.939974;185503;-2000.0;20.9375;0.02125;3.53875;113.0;0.025391;0.037109;1.020508;0;0;185665;0;0;0
2024-11-05_09-32-30.096793;185648;-2000.0;20.9375;0.021667;3.53875;110.0;0.029297;0.030273;1.021484;0;0;185825;0;0;0
2024-11-05_09-32-30.333323;185930;-2000.0;20.9375;0.02125;3.539167;109.0;0.02832;0.033203;1.020508;0;0;186076;0;0;0
2024-11-05_09-32-30.522228;186071;-2000.0;20.9375;0.02125;3.53875;111.0;0.02832;0.037109;1.03125;0;0;186249;0;0;0
2024-11-05_09-32-30.600361;186211;-2000.0;20.9375;0.02125;3.539167;110.0;0.02832;0.03418;1.017578;0;0;186336;0;0;0
2024-11-05_09-32-30.663621;186211;-2000.0;20.9375;0.02125;3.539167;110.0;0.02832;0.03418;1.017578;0;0;186405;0;0;0
2024-11-05_09-32-30.837061;186491;-2000.0;20.9375;0.02125;3.53875;110.0;0.030273;0.032227;1.024414;0;0;186575;0;0;0
2024-11-05_09-32-30.993122;186630;-2000.0;20.9375;0.02125;3.539167;112.0;0.027344;0.035156;1.019531;0;0;186726;0;0;0
2024-11-05_09-32-31.150058;186771;-2000.0;20.9375;0.02125;3.53875;110.0;0.030273;0.03418;1.03125;0;0;186886;0;0;0
2024-11-05_09-32-31.432892;187051;-2000.0;20.9375;0.02125;3.539167;111.0;0.02832;0.035156;1.019531;0;0;187149;0;0;0
2024-11-05_09-32-31.464438;187051;-2000.0;20.9375;0.02125;3.539167;111.0;0.02832;0.035156;1.019531;0;0;187206;0;0;0
2024-11-05_09-32-31.638088;187190;-2000.0;20.9375;0.02125;3.539167;111.0;0.030273;0.039062;1.033203;0;0;187365;0;0;0
2024-11-05_09-32-31.779993;187352;-2000.0;20.9375;0.021667;3.539167;111.0;0.029297;0.036133;1.029297;0;0;187516;0;0;0
2024-11-05_09-32-31.953163;187513;-2000.0;20.9375;0.021667;3.53875;110.0;0.025391;0.036133;1.03125;0;0;187688;0;0;0
2024-11-05_09-32-32.095303;187670;-2000.0;20.9375;3.539167;3.539167;112.0;0.027344;0.03418;1.033203;0;0;187826;0;0;0
2024-11-05_09-32-32.299388;187813;-2000.0;20.9375;0.021667;3.53875;112.0;0.030273;0.037109;1.022461;0;0;188033;0;0;0
2024-11-05_09-32-32.566645;188098;-2000.0;20.9375;0.02125;3.539167;110.0;0.02832;0.036133;1.022461;0;0;188261;0;0;0
2024-11-05_09-32-32.786517;188388;-2000.0;20.9375;0.02125;3.53875;111.0;0.030273;0.038086;1.030273;0;0;188515;0;0;0
2024-11-05_09-32-32.990106;188531;-2000.0;20.9375;0.02125;3.539167;110.0;0.029297;0.039062;1.023438;0;0;188719;0;0;0
2024-11-05_09-32-33.147572;188668;-2000.0;20.9375;0.02125;3.53875;111.0;0.027344;0.036133;1.023438;0;0;188883;0;0;0
2024-11-05_09-32-33.210790;188811;-2000.0;20.9375;0.021667;3.539167;110.0;0.029297;0.039062;1.019531;0;0;188935;0;0;0
2024-11-05_09-32-33.460907;189091;-2000.0;21.0;0.02125;3.539167;110.0;0.029297;0.037109;1.029297;0;0;189195;0;0;0
2024-11-05_09-32-33.508151;189091;-2000.0;21.0;0.02125;3.539167;110.0;0.029297;0.037109;1.029297;0;0;189245;0;0;0
2024-11-05_09-32-33.727991;189231;-2000.0;21.0;0.02125;3.539167;112.0;0.027344;0.036133;1.02832;0;0;189411;0;0;0
2024-11-05_09-32-33.838182;189368;-2000.0;21.0;0.02125;3.53875;111.0;0.027344;0.035156;1.025391;0;0;189564;0;0;0
2024-11-05_09-32-34.104937;189513;-2000.0;21.0;0.02125;3.53875;113.0;0.02832;0.032227;1.022461;0;0;189716;0;0;0
2024-11-05_09-32-34.294233;189810;-2000.0;21.0;0.02125;3.539167;111.0;0.029297;0.035156;1.036133;0;0;190026;0;0;0
2024-11-05_09-32-34.561277;190103;-2000.0;21.0;0.021667;3.539167;114.0;0.027344;0.030273;1.024414;0;0;190295;0;0;0
2024-11-05_09-32-34.703213;190259;-2000.0;21.0;0.02125;3.539167;110.0;0.029297;0.039062;1.022461;0;0;190445;0;0;0
2024-11-05_09-32-34.813408;190401;-2000.0;21.0;0.02125;3.539167;113.0;0.02832;0.03418;1.020508;0;0;190513;0;0;0
2024-11-05_09-32-34.924085;190540;-2000.0;21.0;0.02125;3.53875;112.0;0.030273;0.036133;1.029297;0;0;190655;0;0;0
2024-11-05_09-32-35.191036;190821;-2000.0;21.0;0.021667;3.539167;113.0;0.02832;0.040039;1.030273;0;0;190925;0;0;0
2024-11-05_09-32-35.458245;191101;-2000.0;21.0;0.02125;3.53375;109.0;0.027344;0.037109;1.023438;0;0;191195;0;0;0
2024-11-05_09-32-35.536540;191101;-2000.0;21.0;0.02125;3.53375;109.0;0.027344;0.037109;1.023438;0;0;191276;0;0;0
2024-11-05_09-32-35.677889;191239;-2000.0;21.0;0.02125;3.539167;113.0;0.030273;0.042969;1.021484;0;0;191416;0;0;0
2024-11-05_09-32-36.181140;191798;-2000.0;21.0;0.02125;3.539167;111.0;0.029297;0.038086;1.024414;0;0;191903;0;0;0
2024-11-05_09-32-36.557740;192078;-2000.0;21.0;0.021667;3.539167;111.0;0.03125;0.035156;1.029297;0;0;192285;0;0;0
2024-11-05_09-32-36.636397;192221;-2000.0;21.0;0.02125;3.53875;112.0;0.025391;0.035156;1.022461;0;0;192366;0;0;0
2024-11-05_09-32-36.824948;192362;-2000.0;21.0;0.02125;3.539167;110.0;0.026367;0.032227;1.016602;0;0;192543;0;0;0
2024-11-05_09-32-36.950684;192501;-2000.0;21.0;0.02125;3.5375;112.0;0.029297;0.03418;1.020508;0;0;192686;0;0;0
2024-11-05_09-32-37.201060;192799;-2000.0;21.0;3.535;3.536667;110.0;0.024414;0.035156;1.022461;0;0;192934;0;0;0
2024-11-05_09-32-37.404878;192944;-2000.0;21.0;0.02125;3.53375;111.0;0.029297;0.03418;1.018555;0;0;193113;0;0;0
2024-11-05_09-32-37.592550;193238;-2000.0;21.0625;0.02125;3.53375;111.0;0.027344;0.03418;1.020508;0;0;193325;0;0;0
2024-11-05_09-32-37.718304;193238;-2000.0;21.0625;0.02125;3.53375;111.0;0.027344;0.03418;1.020508;0;0;193456;0;0;0
2024-11-05_09-32-37.937935;193531;-2000.0;21.0625;0.02125;3.53375;110.0;0.029297;0.036133;1.014648;0;0;193663;0;0;0
2024-11-05_09-32-38.048150;193669;-2000.0;21.0625;0.02125;3.53375;108.0;0.027344;0.035156;1.017578;0;0;193786;0;0;0
2024-11-05_09-32-38.236415;193813;-2000.0;21.0625;0.02125;3.533334;110.0;0.027344;0.036133;1.023438;0;0;193975;0;0;0
2024-11-05_09-32-38.345991;193961;-2000.0;21.0625;0.02125;3.53375;110.0;0.027344;0.038086;1.021484;0;0;194085;0;0;0
2024-11-05_09-32-38.550086;194098;-2000.0;21.0625;0.021667;3.539167;111.0;0.026367;0.030273;1.014648;0;0;194258;0;0;0
2024-11-05_09-32-38.739345;194243;-2000.0;21.0625;0.02125;3.539167;110.0;0.027344;0.033203;1.018555;0;0;194462;0;0;0
2024-11-05_09-32-38.895951;194531;-2000.0;21.0625;0.02125;3.53875;111.0;0.027344;0.037109;1.025391;0;0;194625;0;0;0
2024-11-05_09-32-39.054668;194670;-2000.0;21.0625;0.02125;3.5375;111.0;0.027344;0.041992;1.026367;0;0;194786;0;0;0
2024-11-05_09-32-39.148727;194670;-2000.0;21.0625;0.02125;3.5375;111.0;0.027344;0.041992;1.026367;0;0;194884;0;0;0
2024-11-05_09-32-39.400793;194950;-2000.0;21.0625;0.02125;3.534167;112.0;0.030273;0.039062;1.017578;0;0;195126;0;0;0
2024-11-05_09-32-39.470296;195100;-2000.0;21.0625;0.02125;3.534167;111.0;0.02832;0.038086;1.029297;0;0;195196;0;0;0
2024-11-05_09-32-39.622784;195250;-2000.0;21.0625;0.021667;3.53375;109.0;0.029297;0.036133;1.022461;0;0;195357;0;0;0
2024-11-05_09-32-39.748901;195385;-2000.0;21.0625;0.02125;3.53375;113.0;0.02832;0.035156;1.019531;0;0;195486;0;0;0
2024-11-05_09-32-39.937091;195531;-2000.0;21.0625;0.02125;3.53375;109.0;0.027344;0.038086;1.026367;0;0;195665;0;0;0
2024-11-05_09-32-40.063445;195683;-2000.0;21.0625;0.02125;3.53375;112.0;0.029297;0.039062;1.019531;0;0;195799;0;0;0
2024-11-05_09-32-40.236484;195832;-2000.0;21.0625;0.021667;3.53375;112.0;0.026367;0.036133;1.018555;0;0;195966;0;0;0
2024-11-05_09-32-40.424629;195978;-2000.0;21.0625;0.02125;3.53375;107.0;0.030273;0.040039;1.026367;0;0;196165;0;0;0
2024-11-05_09-32-40.535411;196121;-2000.0;21.0625;0.02125;3.533334;109.0;0.029297;0.038086;1.021484;0;0;196264;0;0;0
2024-11-05_09-32-40.708064;196259;-2000.0;21.0625;0.021667;3.53375;113.0;0.024414;0.032227;1.020508;0;0;196424;0;0;0
2024-11-05_09-32-40.975604;196538;-2000.0;21.0625;0.02125;3.533334;111.0;0.030273;0.03418;1.018555;0;0;196663;0;0;0
2024-11-05_09-32-41.179561;196821;-2000.0;21.0625;0.021667;3.53375;111.0;0.02832;0.038086;1.024414;0;0;196903;0;0;0
2024-11-05_09-32-41.383245;196960;-2000.0;21.0625;0.02125;3.53375;109.0;0.030273;0.03418;1.018555;0;0;197125;0;0;0
2024-11-05_09-32-41.477548;197101;-2000.0;21.0625;0.021667;3.53375;109.0;0.02832;0.039062;1.023438;0;0;197206;0;0;0
2024-11-05_09-32-41.635283;197238;-2000.0;21.0625;0.02125;3.53375;112.0;0.027344;0.035156;1.019531;0;0;197376;0;0;0
2024-11-05_09-32-41.824952;197381;-2000.0;21.0625;0.02125;3.53375;112.0;0.029297;0.036133;1.018555;0;0;197555;0;0;0
2024-11-05_09-32-42.029613;197661;-2000.0;21.125;0.02125;3.533334;107.0;0.027344;0.033203;1.027344;0;0;197765;0;0;0
2024-11-05_09-32-42.123951;197661;-2000.0;21.125;0.02125;3.533334;107.0;0.027344;0.033203;1.027344;0;0;197846;0;0;0
2024-11-05_09-32-42.313313;197950;-2000.0;21.0625;3.533334;3.533334;111.0;0.02832;0.03418;1.022461;0;0;198047;0;0;0
2024-11-05_09-32-42.438448;197950;-2000.0;21.0625;3.533334;3.533334;111.0;0.02832;0.03418;1.022461;0;0;198154;0;0;0
2024-11-05_09-32-42.642742;198228;-2000.0;21.0625;0.02125;3.53375;109.0;0.02832;0.039062;1.021484;0;0;198376;0;0;0
2024-11-05_09-32-42.753149;198374;-2000.0;21.125;0.02125;3.533334;112.0;0.025391;0.037109;1.020508;0;0;198485;0;0;0
2024-11-05_09-32-42.909648;198522;-2000.0;21.125;0.02125;3.53375;113.0;0.02832;0.037109;1.020508;0;0;198635;0;0;0
2024-11-05_09-32-43.114580;198661;-2000.0;21.0625;0.02125;3.53375;110.0;0.02832;0.036133;1.024414;0;0;198845;0;0;0
2024-11-05_09-32-43.177444;198798;-2000.0;21.125;0.02125;3.533334;109.0;0.02832;0.036133;1.019531;0;0;198918;0;0;0
2024-11-05_09-32-43.554675;199091;-2000.0;21.125;0.021667;3.53375;109.0;0.029297;0.039062;1.026367;0;0;199245;0;0;0
2024-11-05_09-32-43.713413;199229;-2000.0;21.125;0.021667;3.533334;112.0;0.026367;0.039062;1.02832;0;0;199444;0;0;0
2024-11-05_09-32-43.980271;199508;-2000.0;21.125;0.02125;3.53375;111.0;0.032227;0.039062;1.032227;0;0;199711;0;0;0
2024-11-05_09-32-44.215668;199788;-2000.0;21.125;0.02125;3.53375;109.0;0.029297;0.036133;1.023438;0;0;199944;0;0;0
2024-11-05_09-32-44.307082;199933;-2000.0;21.125;0.02125;3.53375;111.0;0.026367;0.038086;1.029297;0;0;200024;0;0;0
2024-11-05_09-32-44.451595;200081;-2000.0;21.125;0.02125;3.53375;114.0;0.026367;0.035156;1.025391;0;0;200185;0;0;0
2024-11-05_09-32-44.718777;200218;-2000.0;21.125;0.021667;3.53375;111.0;0.02832;0.041016;1.025391;0;0;200414;0;0;0
2024-11-05_09-32-44.782778;200361;-2000.0;21.125;0.02125;3.53375;110.0;0.026367;0.039062;1.017578;0;0;200515;0;0;0
2024-11-05_09-32-45.003517;200658;-2000.0;21.125;0.021667;3.53375;108.0;0.029297;0.036133;1.025391;0;0;200740;0;0;0
2024-11-05_09-32-45.176188;200810;-2000.0;21.125;0.02125;3.533334;111.0;0.029297;0.040039;1.023438;0;0;200916;0;0;0
2024-11-05_09-32-45.505712;201091;-2000.0;21.125;0.02125;3.53375;111.0;0.030273;0.037109;1.024414;0;0;201235;0;0;0
2024-11-05_09-32-45.694058;201228;-2000.0;21.125;0.021667;3.532084;111.0;0.029297;0.039062;1.029297;0;0;201426;0;0;0
2024-11-05_09-32-45.851452;201371;-2000.0;21.125;0.02125;3.532917;111.0;0.02832;0.035156;1.017578;0;0;201581;0;0;0
2024-11-05_09-32-46.119305;201658;-2000.0;21.125;0.02125;3.529584;110.0;0.030273;0.040039;1.021484;0;0;201845;0;0;0
2024-11-05_09-32-46.282843;201801;-2000.0;21.125;0.02125;3.528334;110.0;0.027344;0.036133;1.023438;0;0;202015;0;0;0
2024-11-05_09-32-46.480967;202081;-2000.0;21.1875;0.02125;3.530833;112.0;0.02832;0.035156;1.026367;0;0;202215;0;0;0
2024-11-05_09-32-46.827574;202361;-2000.0;21.1875;0.021667;3.527917;112.0;0.02832;0.03125;1.026367;0;0;202545;0;0;0
2024-11-05_09-32-47.048456;202642;-2000.0;21.1875;0.021667;3.528334;108.0;0.029297;0.036133;1.027344;0;0;202773;0;0;0
2024-11-05_09-32-47.189726;202779;-2000.0;21.125;0.021667;3.528334;109.0;0.03125;0.036133;1.02832;0;0;202915;0;0;0
2024-11-05_09-32-47.299946;202922;-2000.0;21.125;0.021667;3.528334;110.0;0.029297;0.037109;1.024414;0;0;203025;0;0;0
2024-11-05_09-32-47.409785;202922;-2000.0;21.125;0.021667;3.528334;110.0;0.029297;0.037109;1.024414;0;0;203146;0;0;0
2024-11-05_09-32-47.660719;203249;-2000.0;21.125;0.02125;3.528334;109.0;0.02832;0.03418;1.030273;0;0;203395;0;0;0
2024-11-05_09-32-47.738861;203249;-2000.0;21.125;0.02125;3.528334;109.0;0.02832;0.03418;1.030273;0;0;203466;0;0;0
2024-11-05_09-32-48.069311;203561;-2000.0;21.1875;0.02125;3.527917;109.0;0.029297;0.033203;1.013672;0;0;203774;0;0;0
2024-11-05_09-32-48.367412;203991;-2000.0;21.1875;0.02125;3.528334;111.0;0.02832;0.038086;1.018555;0;0;204070;0;0;0
2024-11-05_09-32-48.744658;204271;-2000.0;21.1875;0.02125;3.528334;109.0;0.02832;0.036133;1.023438;0;0;204470;0;0;0
2024-11-05_09-32-48.823326;204408;-2000.0;21.1875;0.02125;3.528334;112.0;0.030273;0.040039;1.023438;0;0;204556;0;0;0
2024-11-05_09-32-49.011652;204551;-2000.0;21.1875;0.021667;3.528334;109.0;0.027344;0.040039;1.035156;0;0;204735;0;0;0
2024-11-05_09-32-49.215355;204829;-2000.0;21.1875;0.021667;3.528334;111.0;0.030273;0.041016;1.025391;0;0;204945;0;0;0
2024-11-05_09-32-49.419368;204971;-2000.0;21.1875;0.02125;3.528334;111.0;0.02832;0.040039;1.02832;0;0;205125;0;0;0
2024-11-05_09-32-49.609025;205251;-2000.0;21.1875;0.021667;3.528334;108.0;0.027344;0.03418;1.015625;0;0;205346;0;0;0
2024-11-05_09-32-49.765540;205388;-2000.0;21.1875;0.021667;3.528334;111.0;0.02832;0.038086;1.029297;0;0;205506;0;0;0
2024-11-05_09-32-49.922782;205532;-2000.0;21.1875;0.021667;3.525417;110.0;0.02832;0.032227;1.026367;0;0;205646;0;0;0
2024-11-05_09-32-50.096064;205672;-2000.0;21.1875;0.021667;3.528334;109.0;0.02832;0.036133;1.022461;0;0;205816;0;0;0
2024-11-05_09-32-50.490510;206123;-2000.0;21.1875;0.02125;3.5225;112.0;0.02832;0.035156;1.012695;0;0;206211;0;0;0
2024-11-05_09-32-50.618020;206123;-2000.0;21.1875;0.02125;3.5225;112.0;0.02832;0.035156;1.012695;0;0;206315;0;0;0
2024-11-05_09-32-50.725419;206272;-2000.0;21.1875;0.02125;3.522917;111.0;0.029297;0.039062;1.027344;0;0;206446;0;0;0
2024-11-05_09-32-50.924451;206413;-2000.0;21.1875;0.02125;3.522917;108.0;0.029297;0.032227;1.020508;0;0;206633;0;0;0
2024-11-05_09-32-51.040845;206561;-2000.0;21.1875;0.02125;3.522917;112.0;0.02832;0.035156;1.018555;0;0;206756;0;0;0
2024-11-05_09-32-51.175546;206698;-2000.0;21.1875;0.021667;3.522917;109.0;0.02832;0.033203;1.017578;0;0;206896;0;0;0
2024-11-05_09-32-51.451195;206988;-2000.0;21.1875;0.021667;3.522917;112.0;0.029297;0.035156;1.019531;0;0;207165;0;0;0
2024-11-05_09-32-51.570182;207131;-2000.0;21.1875;0.02125;3.522917;112.0;0.02832;0.038086;1.017578;0;0;207286;0;0;0
2024-11-05_09-32-51.930992;207411;-2000.0;21.1875;0.02125;3.522917;112.0;0.02832;0.038086;1.016602;0;0;207617;0;0;0
2024-11-05_09-32-52.048236;207551;-2000.0;21.1875;0.02125;3.522917;109.0;0.030273;0.03418;1.016602;0;0;207763;0;0;0
2024-11-05_09-32-52.168551;207688;-2000.0;21.1875;0.021667;3.522917;110.0;0.029297;0.035156;1.011719;0;0;207886;0;0;0
2024-11-05_09-32-52.355762;207968;-2000.0;21.1875;0.02125;3.522917;110.0;0.026367;0.039062;1.021484;0;0;208075;0;0;0
2024-11-05_09-32-52.468040;208111;-2000.0;21.1875;0.02125;3.522917;109.0;0.02832;0.033203;1.022461;0;0;208196;0;0;0
2024-11-05_09-32-52.751854;208248;-2000.0;21.25;0.02125;3.522917;110.0;0.027344;0.040039;1.022461;0;0;208461;0;0;0
2024-11-05_09-32-52.948796;208535;-2000.0;21.1875;0.021667;3.522917;112.0;0.030273;0.040039;1.025391;0;0;208663;0;0;0
2024-11-05_09-32-53.129594;208684;-2000.0;21.25;0.02125;3.522917;110.0;0.026367;0.038086;1.015625;0;0;208832;0;0;0
2024-11-05_09-32-53.284501;208838;-2000.0;21.25;0.02125;3.5225;111.0;0.029297;0.040039;1.024414;0;0;209008;0;0;0
2024-11-05_09-32-53.429625;208982;-2000.0;21.1875;0.02125;3.522917;108.0;0.026367;0.03418;1.022461;0;0;209146;0;0;0
2024-11-05_09-32-53.596121;209131;-2000.0;21.25;0.02125;3.522917;112.0;0.029297;0.035156;1.019531;0;0;209320;0;0;0
2024-11-05_09-32-53.874378;209408;-2000.0;21.25;0.02125;3.522917;110.0;0.02832;0.040039;1.020508;0;0;209592;0;0;0
2024-11-05_09-32-54.095935;209689;-2000.0;21.25;0.021667;3.522917;111.0;0.02832;0.036133;1.019531;0;0;209805;0;0;0
2024-11-05_09-32-54.313318;209831;-2000.0;21.25;0.02125;3.522917;111.0;0.030273;0.037109;1.021484;0;0;210015;0;0;0
2024-11-05_09-32-54.557337;210111;-2000.0;21.25;0.021667;3.522917;111.0;0.029297;0.035156;1.026367;0;0;210239;0;0;0
2024-11-05_09-32-54.774449;210391;-2000.0;21.25;0.02125;3.522917;112.0;0.02832;0.037109;1.015625;0;0;210495;0;0;0
2024-11-05_09-32-54.952590;210528;-2000.0;21.25;0.021667;3.522917;112.0;0.026367;0.039062;1.016602;0;0;210665;0;0;0
2024-11-05_09-32-55.112797;210672;-2000.0;21.25;0.02125;3.522917;111.0;0.02832;0.033203;1.026367;0;0;210846;0;0;0
2024-11-05_09-32-55.320107;210813;-2000.0;21.25;0.02125;3.522917;111.0;0.026367;0.040039;1.016602;0;0;211032;0;0;0
2024-11-05_09-32-55.530566;211109;-2000.0;21.1875;0.02125;3.5225;108.0;0.029297;0.036133;1.027344;0;0;211257;0;0;0
2024-11-05_09-32-55.711254;211253;-2000.0;21.25;0.02125;3.522917;109.0;0.027344;0.038086;1.018555;0;0;211427;0;0;0
2024-11-05_09-32-55.962915;211547;-2000.0;21.25;0.02125;3.522917;112.0;0.027344;0.038086;1.016602;0;0;211690;0;0;0
2024-11-05_09-32-56.142642;211696;-2000.0;21.25;0.02125;3.522083;111.0;0.02832;0.040039;1.016602;0;0;211866;0;0;0
2024-11-05_09-32-56.229527;211842;-2000.0;21.25;0.02125;3.522917;111.0;0.026367;0.039062;1.013672;0;0;211956;0;0;0
2024-11-05_09-32-56.396251;211991;-2000.0;21.25;0.02125;3.522083;109.0;0.027344;0.037109;1.015625;0;0;212124;0;0;0
2024-11-05_09-32-56.568941;212133;-2000.0;21.25;0.02125;3.522917;108.0;0.030273;0.040039;1.016602;0;0;212295;0;0;0
2024-11-05_09-32-56.729907;212281;-2000.0;21.25;0.021667;3.522917;108.0;0.027344;0.039062;1.009766;0;0;212455;0;0;0
2024-11-05_09-32-56.912554;212418;-2000.0;21.25;0.021667;3.522917;109.0;0.027344;0.035156;1.016602;0;0;212593;0;0;0
2024-11-05_09-32-57.070230;212708;-2000.0;21.25;0.02125;3.522917;109.0;0.027344;0.037109;1.005859;0;0;212795;0;0;0
2024-11-05_09-32-57.273356;212851;-2000.0;21.25;0.02125;3.522917;109.0;0.027344;0.037109;1.007812;0;0;212993;0;0;0
2024-11-05_09-32-57.484488;213131;-2000.0;21.25;0.02125;3.522917;111.0;0.02832;0.036133;1.010742;0;0;213215;0;0;0
2024-11-05_09-32-57.709150;213270;-2000.0;21.25;0.02125;3.522917;111.0;0.027344;0.041016;1.021484;0;0;213435;0;0;0
2024-11-05_09-32-57.868741;213411;-2000.0;21.25;0.02125;3.522917;109.0;0.02832;0.039062;1.020508;0;0;213595;0;0;0
2024-11-05_09-32-58.078304;213691;-2000.0;21.25;0.02125;3.522917;111.0;0.029297;0.040039;1.014648;0;0;213776;0;0;0
2024-11-05_09-32-58.389896;213974;-2000.0;21.25;0.021667;3.522917;110.0;0.02832;0.035156;1.011719;0;0;214125;0;0;0
2024-11-05_09-32-58.670362;214272;-2000.0;21.25;0.021667;3.522917;109.0;0.02832;0.036133;1.011719;0;0;214406;0;0;0
2024-11-05_09-32-58.745497;214272;-2000.0;21.25;0.021667;3.522917;109.0;0.02832;0.036133;1.011719;0;0;214476;0;0;0
2024-11-05_09-32-58.905820;214430;-2000.0;21.25;0.02125;3.522917;110.0;0.027344;0.029297;1.011719;0;0;214624;0;0;0
2024-11-05_09-32-59.123537;214721;-2000.0;21.25;0.02125;3.522917;110.0;0.029297;0.03418;1.015625;0;0;214855;0;0;0
2024-11-05_09-32-59.253081;214859;-2000.0;21.25;0.021667;3.5225;112.0;0.030273;0.036133;1.017578;0;0;214955;0;0;0
2024-11-05_09-32-59.374136;215002;-2000.0;21.25;0.02125;3.522917;111.0;0.026367;0.041016;1.023438;0;0;215096;0;0;0
2024-11-05_09-32-59.515333;215151;-2000.0;21.25;0.02125;3.522917;111.0;0.02832;0.037109;1.023438;0;0;215235;0;0;0
2024-11-05_09-32-59.674695;215288;-2000.0;21.25;0.021667;3.522083;109.0;0.029297;0.038086;1.022461;0;0;215395;0;0;0
2024-11-05_09-32-59.832080;215431;-2000.0;21.25;0.02125;3.522917;111.0;0.029297;0.035156;1.018555;0;0;215555;0;0;0
2024-11-05_09-33-00.043897;215568;-2000.0;21.3125;0.021667;3.521667;112.0;0.029297;0.033203;1.017578;0;0;215760;0;0;0
2024-11-05_09-33-00.155809;215711;-2000.0;21.25;0.02125;3.5225;111.0;0.025391;0.037109;1.018555;0;0;215876;0;0;0
2024-11-05_09-33-00.473034;215849;-2000.0;21.25;0.021667;3.519167;112.0;0.027344;0.041016;1.022461;0;0;216044;0;0;0
2024-11-05_09-33-00.628059;216271;-2000.0;21.25;0.02125;3.51875;110.0;0.02832;0.039062;1.019531;0;0;216350;0;0;0
2024-11-05_09-33-01.000709;216560;-2000.0;21.3125;0.021667;3.5175;109.0;0.027344;0.037109;1.020508;0;0;216719;0;0;0
2024-11-05_09-33-01.239688;216853;-2000.0;21.3125;0.02125;3.5175;110.0;0.02832;0.03418;1.017578;0;0;216965;0;0;0
2024-11-05_09-33-01.378144;217000;-2000.0;21.25;0.02125;3.5175;110.0;0.02832;0.035156;1.020508;0;0;217115;0;0;0
2024-11-05_09-33-01.701016;217278;-2000.0;21.3125;0.02125;3.5175;111.0;0.029297;0.039062;1.022461;0;0;217399;0;0;0
2024-11-05_09-33-01.861044;217422;-2000.0;21.3125;0.021667;3.5175;110.0;0.026367;0.037109;1.017578;0;0;217593;0;0;0
2024-11-05_09-33-02.027078;217558;-2000.0;21.3125;0.02125;3.5175;108.0;0.02832;0.036133;1.018555;0;0;217754;0;0;0
2024-11-05_09-33-02.193276;217703;-2000.0;21.3125;0.021667;3.5175;111.0;0.030273;0.038086;1.021484;0;0;217924;0;0;0
2024-11-05_09-33-02.327190;217851;-2000.0;21.3125;0.02125;3.5175;111.0;0.027344;0.040039;1.017578;0;0;218056;0;0;0
2024-11-05_09-33-02.477302;217989;-2000.0;21.3125;0.021667;3.5175;109.0;0.027344;0.033203;1.014648;0;0;218206;0;0;0
2024-11-05_09-33-02.676182;218281;-2000.0;21.3125;0.021667;3.5175;110.0;0.026367;0.036133;1.020508;0;0;218405;0;0;0
2024-11-05_09-33-02.826154;218418;-2000.0;21.3125;0.02125;3.5175;110.0;0.030273;0.033203;1.018555;0;0;218523;0;0;0
2024-11-05_09-33-02.962199;218563;-2000.0;21.3125;0.021667;3.5175;109.0;0.029297;0.027344;1.014648;0;0;218696;0;0;0
2024-11-05_09-33-03.112106;218708;-2000.0;21.3125;0.02125;3.5175;112.0;0.029297;0.035156;1.020508;0;0;218835;0;0;0
2024-11-05_09-33-03.261081;218851;-2000.0;21.3125;0.02125;3.5175;111.0;0.027344;0.037109;1.024414;0;0;218991;0;0;0
2024-11-05_09-33-03.491097;218992;-2000.0;21.3125;0.02125;3.5175;111.0;0.02832;0.039062;1.022461;0;0;219219;0;0;0
2024-11-05_09-33-03.584070;219149;-2000.0;21.3125;0.02125;3.5175;111.0;0.027344;0.033203;1.017578;0;0;219306;0;0;0
2024-11-05_09-33-03.723447;219300;-2000.0;21.3125;3.5175;3.5175;110.0;0.02832;0.038086;1.023438;0;0;219466;0;0;0
2024-11-05_09-33-03.968579;219601;-2000.0;21.3125;0.02125;3.5175;111.0;0.030273;0.038086;1.015625;0;0;219678;0;0;0
2024-11-05_09-33-04.047670;219601;-2000.0;21.3125;0.02125;3.5175;111.0;0.030273;0.038086;1.015625;0;0;219786;0;0;0
2024-11-05_09-33-04.198059;219739;-2000.0;21.3125;0.021667;3.5175;111.0;0.024414;0.035156;1.011719;0;0;219936;0;0;0
2024-11-05_09-33-04.396390;220018;-2000.0;21.3125;0.02125;3.5175;109.0;0.029297;0.036133;1.015625;0;0;220135;0;0;0
2024-11-05_09-33-04.598736;220161;-2000.0;21.3125;0.021667;3.5175;110.0;0.026367;0.037109;1.009766;0;0;220335;0;0;0
2024-11-05_09-33-04.712893;220298;-2000.0;21.3125;0.02125;3.5175;111.0;0.029297;0.038086;1.017578;0;0;220433;0;0;0
2024-11-05_09-33-04.862105;220443;-2000.0;21.3125;0.02125;3.5175;111.0;0.029297;0.040039;1.021484;0;0;220605;0;0;0
2024-11-05_09-33-05.249007;220871;-2000.0;21.3125;0.02125;3.5175;109.0;0.029297;0.038086;1.019531;0;0;220951;0;0;0
2024-11-05_09-33-05.316708;220871;-2000.0;21.3125;0.02125;3.5175;109.0;0.029297;0.038086;1.019531;0;0;221034;0;0;0
2024-11-05_09-33-05.522769;221151;-2000.0;21.3125;0.021667;3.5175;114.0;0.02832;0.040039;1.033203;0;0;221255;0;0;0
2024-11-05_09-33-05.679687;221288;-2000.0;21.3125;0.02125;3.5175;111.0;0.029297;0.039062;1.033203;0;0;221415;0;0;0
2024-11-05_09-33-05.846616;221431;-2000.0;21.3125;0.02125;3.5175;110.0;0.027344;0.032227;1.020508;0;0;221579;0;0;0
2024-11-05_09-33-05.925615;221431;-2000.0;21.3125;0.02125;3.5175;110.0;0.027344;0.032227;1.020508;0;0;221656;0;0;0
2024-11-05_09-33-06.137467;221728;-2000.0;21.3125;0.02125;3.5175;113.0;0.026367;0.036133;1.019531;0;0;221866;0;0;0
2024-11-05_09-33-06.406473;221882;-2000.0;21.3125;0.021667;3.5175;109.0;0.02832;0.03125;1.022461;0;0;222094;0;0;0
2024-11-05_09-33-06.688977;222193;-2000.0;21.3125;0.02125;3.515417;110.0;0.02832;0.03418;1.026367;0;0;222413;0;0;0
2024-11-05_09-33-06.939524;222478;-2000.0;21.3125;0.021667;3.5125;107.0;0.030273;0.032227;1.02832;0;0;222670;0;0;0
2024-11-05_09-33-07.111112;222621;-2000.0;21.3125;0.02125;3.512084;111.0;0.032227;0.030273;1.021484;0;0;222833;0;0;0
2024-11-05_09-33-07.263727;222901;-2000.0;21.3125;0.02125;3.512084;114.0;0.029297;0.038086;1.03418;0;0;222995;0;0;0
2024-11-05_09-33-07.341854;222901;-2000.0;21.3125;0.02125;3.512084;114.0;0.029297;0.038086;1.03418;0;0;223076;0;0;0
2024-11-05_09-33-07.646856;223039;-2000.0;21.3125;0.02125;3.512084;111.0;0.030273;0.03418;1.030273;0;0;223234;0;0;0
2024-11-05_09-33-07.901620;223462;-2000.0;21.3125;0.02125;3.512084;111.0;0.03125;0.036133;1.018555;0;0;223635;0;0;0
2024-11-05_09-33-07.964562;223611;-2000.0;21.3125;0.02125;3.5125;109.0;0.027344;0.038086;1.015625;0;0;223706;0;0;0
2024-11-05_09-33-08.178339;223750;-2000.0;21.3125;0.021667;3.512084;111.0;0.02832;0.040039;1.03125;0;0;223915;0;0;0
2024-11-05_09-33-08.333725;223891;-2000.0;21.3125;0.02125;3.512084;109.0;0.030273;0.041016;1.02832;0;0;224072;0;0;0
2024-11-05_09-33-08.500071;224028;-2000.0;21.375;0.02125;3.512084;110.0;0.02832;0.035156;1.010742;0;0;224238;0;0;0
2024-11-05_09-33-08.609592;224178;-2000.0;21.3125;0.02125;3.512084;110.0;0.030273;0.037109;1.019531;0;0;224326;0;0;0
2024-11-05_09-33-08.751253;224324;-2000.0;21.3125;0.021667;3.512084;111.0;0.032227;0.038086;1.025391;0;0;224484;0;0;0
2024-11-05_09-33-08.996437;224603;-2000.0;21.3125;0.021667;3.512084;112.0;0.029297;0.039062;1.021484;0;0;224698;0;0;0
2024-11-05_09-33-09.114674;224751;-2000.0;21.375;0.021667;3.5125;112.0;0.030273;0.036133;1.016602;0;0;224833;0;0;0
2024-11-05_09-33-09.432862;225041;-2000.0;21.375;0.02125;3.512084;107.0;0.02832;0.038086;1.027344;0;0;225165;0;0;0
2024-11-05_09-33-09.568126;225178;-2000.0;21.375;0.02125;3.512084;113.0;0.030273;0.039062;1.016602;0;0;225296;0;0;0
2024-11-05_09-33-09.747233;225323;-2000.0;21.375;0.02125;3.512084;112.0;0.026367;0.037109;1.012695;0;0;225485;0;0;0
2024-11-05_09-33-09.866483;225468;-2000.0;21.375;0.02125;3.5125;110.0;0.030273;0.035156;1.019531;0;0;225595;0;0;0
2024-11-05_09-33-10.063062;225611;-2000.0;21.375;0.021667;3.512084;109.0;0.030273;0.039062;1.017578;0;0;225767;0;0;0
2024-11-05_09-33-10.210681;225751;-2000.0;21.3125;0.02125;3.512084;106.0;0.029297;0.036133;1.011719;0;0;225914;0;0;0
2024-11-05_09-33-10.461589;226033;-2000.0;21.375;0.021667;3.512084;109.0;0.030273;0.038086;1.019531;0;0;226193;0;0;0
2024-11-05_09-33-10.789860;226321;-2000.0;21.3125;0.02125;3.512084;110.0;0.030273;0.036133;1.014648;0;0;226521;0;0;0
2024-11-05_09-33-10.964483;226601;-2000.0;21.375;0.02125;3.512084;110.0;0.027344;0.032227;1.004883;0;0;226696;0;0;0
2024-11-05_09-33-11.115377;226745;-2000.0;21.375;0.021667;3.5125;112.0;0.027344;0.041016;1.021484;0;0;226851;0;0;0
2024-11-05_09-33-11.282983;226892;-2000.0;21.375;0.021667;3.512084;112.0;0.030273;0.035156;1.012695;0;0;227013;0;0;0
2024-11-05_09-33-11.496097;227017;-2000.0;21.375;0.021667;3.512084;111.0;0.026367;0.038086;1.011719;0;0;227225;0;0;0
2024-11-05_09-33-11.665427;227318;-2000.0;21.375;0.021667;3.5125;110.0;0.030273;0.035156;1.019531;0;0;227405;0;0;0
2024-11-05_09-33-11.863367;227461;-2000.0;21.375;0.02125;3.5125;109.0;0.027344;0.038086;1.010742;0;0;227605;0;0;0
2024-11-05_09-33-12.067767;227598;-2000.0;21.375;0.02125;3.512084;111.0;0.02832;0.035156;1.019531;0;0;227796;0;0;0
2024-11-05_09-33-12.246674;227878;-2000.0;21.375;0.02125;3.512084;112.0;0.030273;0.036133;1.016602;0;0;227985;0;0;0
2024-11-05_09-33-12.508510;228021;-2000.0;21.375;0.02125;3.512084;110.0;0.029297;0.033203;1.017578;0;0;228208;0;0;0
2024-11-05_09-33-12.681112;228302;-2000.0;21.375;0.021667;3.510417;111.0;0.027344;0.03418;1.019531;0;0;228425;0;0;0
2024-11-05_09-33-12.896354;228438;-2000.0;21.375;0.02125;3.508333;111.0;0.027344;0.038086;1.024414;0;0;228625;0;0;0
2024-11-05_09-33-13.006223;228581;-2000.0;21.375;0.02125;3.507917;110.0;0.03125;0.039062;1.024414;0;0;228724;0;0;0
2024-11-05_09-33-13.149791;228719;-2000.0;21.375;0.021667;3.509167;110.0;0.030273;0.037109;1.016602;0;0;228885;0;0;0
2024-11-05_09-33-13.315399;228861;-2000.0;21.375;0.02125;3.507917;111.0;0.029297;0.038086;1.020508;0;0;229045;0;0;0
2024-11-05_09-33-13.449981;228998;-2000.0;21.375;0.021667;3.506667;110.0;0.029297;0.035156;1.022461;0;0;229186;0;0;0
2024-11-05_09-33-13.615255;229142;-2000.0;21.375;0.02125;3.50875;110.0;0.02832;0.035156;1.014648;0;0;229342;0;0;0
2024-11-05_09-33-13.861317;229432;-2000.0;21.375;3.506667;3.506667;109.0;0.03125;0.035156;1.022461;0;0;229590;0;0;0
2024-11-05_09-33-13.942297;229571;-2000.0;21.375;0.021667;3.506667;110.0;0.029297;0.035156;1.020508;0;0;229666;0;0;0
2024-11-05_09-33-14.086700;229706;-2000.0;21.375;0.02125;3.507084;111.0;0.030273;0.040039;1.027344;0;0;229816;0;0;0
2024-11-05_09-33-14.257661;229859;-2000.0;21.375;3.506667;3.506667;111.0;0.029297;0.037109;1.025391;0;0;229986;0;0;0
2024-11-05_09-33-14.416664;230004;-2000.0;21.375;0.021667;3.506667;110.0;0.027344;0.03418;1.019531;0;0;230144;0;0;0
2024-11-05_09-33-14.558757;230149;-2000.0;21.375;0.02125;3.507084;108.0;0.03125;0.035156;1.030273;0;0;230286;0;0;0
2024-11-05_09-33-14.812052;230428;-2000.0;21.375;0.02125;3.506667;111.0;0.030273;0.03418;1.021484;0;0;230535;0;0;0
2024-11-05_09-33-14.866420;230428;-2000.0;21.375;0.02125;3.506667;111.0;0.030273;0.03418;1.021484;0;0;230595;0;0;0
2024-11-05_09-33-15.026730;230571;-2000.0;21.375;0.02125;3.506667;112.0;0.02832;0.037109;1.023438;0;0;230756;0;0;0
2024-11-05_09-33-15.279864;230853;-2000.0;21.375;0.02125;3.507084;107.0;0.03125;0.038086;1.021484;0;0;231015;0;0;0
2024-11-05_09-33-15.402585;231001;-2000.0;21.375;0.02125;3.507084;113.0;0.029297;0.040039;1.018555;0;0;231106;0;0;0
2024-11-05_09-33-15.607452;231138;-2000.0;21.375;0.021667;3.506667;110.0;0.030273;0.033203;1.014648;0;0;231330;0;0;0
2024-11-05_09-33-15.686580;231281;-2000.0;21.4375;0.02125;3.507084;111.0;0.02832;0.037109;1.026367;0;0;231416;0;0;0
2024-11-05_09-33-15.874967;231418;-2000.0;21.375;0.02125;3.506667;107.0;0.02832;0.037109;1.025391;0;0;231603;0;0;0
2024-11-05_09-33-16.080008;231698;-2000.0;21.375;0.02125;3.506667;110.0;0.03125;0.035156;1.014648;0;0;231777;0;0;0
2024-11-05_09-33-16.142908;231698;-2000.0;21.375;0.02125;3.506667;110.0;0.03125;0.035156;1.014648;0;0;231876;0;0;0
2024-11-05_09-33-16.283691;231841;-2000.0;21.375;0.02125;3.507084;111.0;0.030273;0.035156;1.020508;0;0;232015;0;0;0
2024-11-05_09-33-16.440138;231978;-2000.0;21.375;0.02125;3.506667;111.0;0.029297;0.036133;1.024414;0;0;232176;0;0;0
2024-11-05_09-33-16.785466;232428;-2000.0;21.375;0.02125;3.507084;109.0;0.030273;0.036133;1.025391;0;0;232516;0;0;0
2024-11-05_09-33-16.926986;232428;-2000.0;21.375;0.02125;3.507084;109.0;0.030273;0.036133;1.025391;0;0;232654;0;0;0
2024-11-05_09-33-17.067429;232581;-2000.0;21.375;0.021667;3.507084;110.0;0.032227;0.036133;1.022461;0;0;232793;0;0;0
2024-11-05_09-33-17.397302;232881;-2000.0;21.375;0.02125;3.506667;109.0;0.029297;0.03418;1.023438;0;0;233096;0;0;0
2024-11-05_09-33-17.601203;233162;-2000.0;21.375;0.02125;3.507084;110.0;0.030273;0.037109;1.022461;0;0;233335;0;0;0
2024-11-05_09-33-17.757816;233298;-2000.0;21.375;0.02125;3.506667;110.0;0.03125;0.03418;1.019531;0;0;233491;0;0;0
2024-11-05_09-33-17.837577;233441;-2000.0;21.375;0.021667;3.507084;109.0;0.030273;0.03418;1.016602;0;0;233576;0;0;0
2024-11-05_09-33-17.994480;233578;-2000.0;21.375;0.02125;3.507084;109.0;0.029297;0.032227;1.025391;0;0;233726;0;0;0
2024-11-05_09-33-18.184780;233721;-2000.0;21.4375;0.021667;3.506667;109.0;0.033203;0.036133;1.032227;0;0;233910;0;0;0
2024-11-05_09-33-18.309440;233861;-2000.0;21.375;0.02125;3.507084;110.0;0.030273;0.040039;1.025391;0;0;234046;0;0;0
2024-11-05_09-33-18.514226;233998;-2000.0;21.375;0.021667;3.507084;109.0;0.03125;0.037109;1.029297;0;0;234212;0;0;0
2024-11-05_09-33-18.623966;234280;-2000.0;21.4375;0.02125;3.506667;110.0;0.03125;0.039062;1.02832;0;0;234356;0;0;0
2024-11-05_09-33-18.815246;234421;-2000.0;21.375;0.02125;3.506667;110.0;0.02832;0.040039;1.029297;0;0;234555;0;0;0
2024-11-05_09-33-18.923234;234560;-2000.0;21.4375;0.02125;3.506667;110.0;0.030273;0.035156;1.026367;0;0;234665;0;0;0
2024-11-05_09-33-19.147480;234701;-2000.0;21.4375;0.02125;3.506667;113.0;0.03125;0.038086;1.010742;0;0;234877;0;0;0
2024-11-05_09-33-19.315939;234843;-2000.0;21.4375;0.02125;3.506667;111.0;0.029297;0.040039;1.012695;0;0;235056;0;0;0
2024-11-05_09-33-19.503747;234998;-2000.0;21.4375;0.02125;3.506667;109.0;0.029297;0.037109;1.018555;0;0;235225;0;0;0
2024-11-05_09-33-19.613135;235150;-2000.0;21.4375;0.021667;3.506667;110.0;0.030273;0.039062;1.021484;0;0;235305;0;0;0
2024-11-05_09-33-19.706786;235291;-2000.0;21.375;0.02125;3.507084;108.0;0.030273;0.03418;1.022461;0;0;235426;0;0;0
2024-11-05_09-33-19.927679;235571;-2000.0;21.4375;0.02125;3.507084;111.0;0.030273;0.036133;1.018555;0;0;235665;0;0;0
2024-11-05_09-33-20.084647;235708;-2000.0;21.4375;0.02125;3.507084;111.0;0.030273;0.033203;1.011719;0;0;235815;0;0;0
2024-11-05_09-33-20.241673;235851;-2000.0;21.4375;0.02125;3.506667;110.0;0.03125;0.035156;1.030273;0;0;235975;0;0;0
2024-11-05_09-33-20.351567;235988;-2000.0;21.4375;0.02125;3.506667;111.0;0.032227;0.038086;1.03125;0;0;236073;0;0;0
2024-11-05_09-33-20.492405;236133;-2000.0;21.4375;0.02125;3.505;111.0;0.02832;0.037109;1.024414;0;0;236226;0;0;0
2024-11-05_09-33-20.900276;236278;-2000.0;21.4375;0.02125;3.505417;111.0;0.030273;0.036133;1.027344;0;0;236485;0;0;0
2024-11-05_09-33-20.968126;236558;-2000.0;21.4375;0.02125;3.50125;111.0;0.03125;0.03418;1.023438;0;0;236693;0;0;0
2024-11-05_09-33-21.215884;236841;-2000.0;21.4375;0.021667;3.501667;109.0;0.02832;0.037109;1.020508;0;0;236945;0;0;0
2024-11-05_09-33-21.285030;236841;-2000.0;21.4375;0.021667;3.501667;109.0;0.02832;0.037109;1.020508;0;0;237016;0;0;0
2024-11-05_09-33-21.482480;237121;-2000.0;21.4375;0.021667;3.501667;109.0;0.030273;0.037109;1.02832;0;0;237215;0;0;0
2024-11-05_09-33-21.812773;237418;-2000.0;21.4375;0.02125;3.501667;110.0;0.02832;0.039062;1.029297;0;0;237552;0;0;0
2024-11-05_09-33-21.906962;237418;-2000.0;21.4375;0.02125;3.501667;110.0;0.02832;0.039062;1.029297;0;0;237636;0;0;0
2024-11-05_09-33-22.220300;237730;-2000.0;21.4375;0.021667;3.501667;108.0;0.029297;0.039062;1.03418;0;0;237812;0;0;0
2024-11-05_09-33-22.407787;238011;-2000.0;21.4375;0.02125;3.50125;113.0;0.030273;0.038086;1.029297;0;0;238120;0;0;0
2024-11-05_09-33-22.585007;238149;-2000.0;21.4375;0.021667;3.501667;113.0;0.032227;0.035156;1.024414;0;0;238314;0;0;0
2024-11-05_09-33-22.693653;238291;-2000.0;21.4375;0.02125;3.50125;111.0;0.030273;0.036133;1.027344;0;0;238424;0;0;0
2024-11-05_09-33-22.835235;238433;-2000.0;21.4375;0.02125;3.50125;109.0;0.02832;0.041992;1.03125;0;0;238566;0;0;0
2024-11-05_09-33-22.991956;238578;-2000.0;21.4375;0.02125;3.501667;109.0;0.027344;0.039062;1.03125;0;0;238726;0;0;0
2024-11-05_09-33-23.148763;238721;-2000.0;21.4375;0.021667;3.501667;112.0;0.030273;0.035156;1.022461;0;0;238886;0;0;0
2024-11-05_09-33-23.289801;238860;-2000.0;21.4375;0.02125;3.501667;111.0;0.032227;0.035156;1.040039;0;0;239026;0;0;0
2024-11-05_09-33-23.477440;239001;-2000.0;21.4375;0.02125;3.50125;111.0;0.03125;0.030273;1.022461;0;0;239207;0;0;0
2024-11-05_09-33-23.932896;239561;-2000.0;21.4375;0.021667;3.50125;110.0;0.030273;0.033203;1.025391;0;0;239665;0;0;0
2024-11-05_09-33-24.325351;239850;-2000.0;21.4375;0.02125;3.501667;109.0;0.032227;0.038086;1.037109;0;0;240057;0;0;0
2024-11-05_09-33-24.544095;240142;-2000.0;21.4375;0.021667;3.501667;111.0;0.02832;0.036133;1.035156;0;0;240276;0;0;0
2024-11-05_09-33-24.716575;240300;-2000.0;21.4375;0.021667;3.50125;110.0;0.03418;0.039062;1.037109;0;0;240446;0;0;0
2024-11-05_09-33-25.188209;240728;-2000.0;21.4375;0.02125;3.50125;111.0;0.032227;0.03418;1.032227;0;0;240921;0;0;0
2024-11-05_09-33-25.344876;240871;-2000.0;21.4375;0.021667;3.501667;110.0;0.029297;0.035156;1.033203;0;0;241078;0;0;0
2024-11-05_09-33-25.501801;241151;-2000.0;21.4375;0.021667;3.501667;111.0;0.032227;0.035156;1.035156;0;0;241234;0;0;0
2024-11-05_09-33-25.720923;241290;-2000.0;21.4375;0.02125;3.501667;110.0;0.03125;0.03418;1.02832;0;0;241454;0;0;0
2024-11-05_09-33-25.815460;241431;-2000.0;21.4375;0.02125;3.501667;111.0;0.029297;0.039062;1.033203;0;0;241546;0;0;0
2024-11-05_09-33-25.957090;241571;-2000.0;21.4375;0.02125;3.501667;111.0;0.03125;0.038086;1.03418;0;0;241696;0;0;0
2024-11-05_09-33-26.364815;241988;-2000.0;21.4375;0.021667;3.501667;110.0;0.030273;0.036133;1.024414;0;0;242074;0;0;0
2024-11-05_09-33-26.976886;242580;-2000.0;21.4375;3.497917;3.5;109.0;0.030273;0.038086;1.018555;-60000;-60000;242705;0;0;0
2024-11-05_09-33-27.142039;242724;-2000.0;21.4375;0.131667;3.497917;104.0;0.030273;0.03418;1.018555;-60000;-60000;242875;0;0;0
2024-11-05_09-33-27.227989;242724;-2000.0;21.4375;0.131667;3.497917;104.0;0.030273;0.03418;1.018555;-60000;-60000;242946;0;0;0
2024-11-05_09-33-27.400153;243029;-2000.0;21.4375;0.490417;3.694584;91.0;0.027344;0.024414;0.991211;20000;20000;243119;1;0;0
2024-11-05_09-33-27.540724;243172;-2000.0;21.4375;0.3325;3.608334;93.0;0.02832;0.036133;1.000977;20000;20000;243256;0;0;0
2024-11-05_09-33-27.682090;243308;-2000.0;21.4375;0.730417;3.5175;96.0;0.030273;0.038086;1.017578;20000;20000;243415;0;0;0
2024-11-05_09-33-27.848107;243452;-2000.0;21.4375;0.119583;3.510417;97.0;0.030273;0.035156;1.022461;20000;20000;243565;0;0;0
2024-11-05_09-33-27.995633;243588;-2000.0;21.4375;0.138333;3.519167;98.0;0.029297;0.036133;1.016602;20000;20000;243724;0;0;0
2024-11-05_09-33-28.168428;243733;-2000.0;21.4375;0.1;3.49625;97.0;0.032227;0.036133;1.030273;20000;20000;243895;0;0;0
2024-11-05_09-33-28.328185;243881;-2000.0;21.5;0.027917;3.495833;96.0;0.032227;0.035156;1.030273;20000;20000;244053;0;0;0
2024-11-05_09-33-28.655291;244163;-2000.0;21.5;0.021667;3.49625;97.0;0.030273;0.036133;1.03418;20000;20000;244341;0;0;0
2024-11-05_09-33-28.781064;244308;-2000.0;21.4375;0.021667;3.49625;95.0;0.03125;0.033203;1.029297;20000;20000;244516;0;0;0
2024-11-05_09-33-29.047415;244593;-2000.0;21.4375;0.021667;3.49625;98.0;0.030273;0.035156;1.024414;20000;20000;244755;0;0;0
2024-11-05_09-33-29.141693;244738;-2000.0;21.4375;0.021667;3.499167;97.0;0.030273;0.03418;1.021484;60000;60000;113;0;0;0
2024-11-05_09-33-29.345548;244888;-2000.0;21.4375;0.033333;3.4975;103.0;0.027344;0.037109;1.019531;60000;60000;326;0;0;0
2024-11-05_09-33-29.517828;245032;-2000.0;21.4375;0.037917;3.49625;114.0;0.02832;0.033203;1.023438;60000;60000;498;0;0;0
2024-11-05_09-33-29.642923;245189;-2000.0;21.4375;3.495833;3.501667;122.0;0.02832;0.038086;1.007812;60000;60000;614;0;0;0
2024-11-05_09-33-30.067625;245481;-2000.0;21.4375;0.15125;3.499583;139.0;0.03125;0.032227;1.015625;60000;60000;905;0;0;0
2024-11-05_09-33-30.271712;245898;-2000.0;21.4375;0.142083;3.50375;170.0;0.02832;0.038086;1.012695;60000;60000;1254;0;0;0
2024-11-05_09-33-30.444197;246041;-2000.0;21.5;0.14875;3.4975;182.0;0.029297;0.036133;1.019531;60000;60000;1414;0;0;0
2024-11-05_09-33-30.600844;246181;-2000.0;21.5;0.063333;3.49625;189.0;0.03125;0.035156;1.022461;60000;60000;1584;0;0;0
2024-11-05_09-33-30.820938;246461;-2000.0;21.5;0.194583;3.509167;210.0;0.030273;0.037109;1.022461;39999;39999;1804;0;2;0
2024-11-05_09-33-30.978068;246600;-2000.0;21.5;0.19125;3.56875;219.0;0.030273;0.036133;1.024414;20000;20000;1945;0;0;0
2024-11-05_09-33-31.119484;246741;-2000.0;21.5;0.48125;3.41625;225.0;0.030273;0.039062;1.022461;0;0;2106;0;0;0
2024-11-05_09-33-31.386852;247021;-2000.0;21.4375;0.78;3.36875;222.0;0.032227;0.037109;1.019531;-19999;-19999;2364;0;0;0
2024-11-05_09-33-31.480636;247021;-2000.0;21.4375;0.78;3.36875;222.0;0.032227;0.037109;1.019531;-30000;-30000;2463;0;0;0
2024-11-05_09-33-31.606384;247160;-2000.0;21.5;0.83125;3.33;218.0;0.03125;0.03418;1.021484;-40000;-40000;2573;0;0;0
2024-11-05_09-33-31.778788;247301;-2000.0;21.4375;0.836667;3.31625;209.0;0.032227;0.040039;1.023438;-60000;-60000;2746;0;0;0
2024-11-05_09-33-31.904841;247440;-2000.0;21.5;0.899583;3.310834;201.0;0.030273;0.036133;1.021484;-60000;-60000;2885;0;0;0
2024-11-05_09-33-32.078404;247600;-2000.0;21.5;0.952917;3.305417;188.0;0.027344;0.032227;1.000977;-60000;-60000;3045;0;0;0
2024-11-05_09-33-32.565581;248198;-1764.0;21.5;1.080417;3.304167;145.0;0.033203;0.03418;1.022461;-60000;-60000;3534;0;0;0
2024-11-05_09-33-32.690776;248341;-1680.0;21.5;1.019167;3.3;137.0;0.029297;0.038086;1.019531;-60000;-60000;3676;0;0;0
2024-11-05_09-33-32.832488;248479;-1646.666626;21.5;1.100417;3.319584;126.0;0.03125;0.03418;1.019531;-60000;-60000;3815;0;0;0
2024-11-05_09-33-33.020272;248621;-1746.666626;21.5;0.98875;3.315417;119.0;0.030273;0.036133;1.019531;-60000;-60000;4004;0;0;0
2024-11-05_09-33-33.177933;248759;-1974.666626;21.5;0.80625;3.30625;110.0;0.03125;0.036133;1.024414;-60000;-60000;4164;0;0;0
2024-11-05_09-33-33.303680;248901;-2000.0;21.5;0.773333;3.30125;103.0;0.027344;0.038086;1.012695;-60000;-60000;4273;0;0;0
2024-11-05_09-33-33.461392;249038;-2000.0;21.5;0.593333;3.319584;92.0;0.02832;0.041992;1.018555;20000;20000;4445;1;0;0
2024-11-05_09-33-33.665446;249181;-2000.0;21.5;0.735;3.6325;91.0;0.033203;0.03418;1.017578;20000;20000;4605;1;0;0
2024-11-05_09-33-33.838250;249458;-2000.0;21.5;0.59125;3.580417;96.0;0.030273;0.035156;1.030273;20000;20000;4825;0;0;0
2024-11-05_09-33-33.932137;249458;-2000.0;21.5;0.59125;3.580417;96.0;0.030273;0.035156;1.030273;20000;20000;4904;0;0;0
2024-11-05_09-33-34.199118;249748;-2000.0;21.5;0.070833;3.3125;97.0;0.027344;0.036133;1.022461;20000;20000;5174;0;0;0
2024-11-05_09-33-34.262104;249891;-2000.0;21.5;0.12625;3.325;99.0;0.029297;0.039062;1.025391;20000;20000;5245;0;0;0
2024-11-05_09-33-34.403474;250037;-2000.0;21.5;0.084167;3.307083;95.0;0.03125;0.037109;1.029297;20000;20000;5385;0;0;0
2024-11-05_09-33-34.670852;250192;-2000.0;21.5;0.0225;3.305417;96.0;0.03125;0.033203;1.017578;20000;20000;5652;0;0;0
2024-11-05_09-33-34.749857;250350;-2000.0;21.5;3.305417;3.305417;94.0;0.030273;0.040039;1.030273;20000;20000;5715;0;0;0
2024-11-05_09-33-34.954144;250491;-2000.0;21.5;3.305417;3.305417;96.0;0.030273;0.036133;1.024414;60000;60000;160;0;0;0
2024-11-05_09-33-35.033336;250634;-2000.0;21.5;0.0325;3.305417;107.0;0.03125;0.035156;1.019531;60000;60000;248;0;0;0
2024-11-05_09-33-35.205254;250783;-2000.0;21.5;0.02875;3.305;116.0;0.027344;0.033203;1.012695;60000;60000;400;0;0;0
2024-11-05_09-33-35.346241;250931;-2000.0;21.5;0.090417;3.3075;125.0;0.029297;0.035156;1.018555;60000;60000;550;0;0;0
2024-11-05_09-33-35.535100;251071;-2000.0;21.5;0.119167;3.307917;134.0;0.030273;0.033203;1.024414;60000;60000;734;0;0;0
2024-11-05_09-33-35.644731;251208;-2000.0;21.5;0.125;3.314584;145.0;0.029297;0.032227;1.010742;60000;60000;838;0;0;0
2024-11-05_09-33-35.848871;251488;-2000.0;21.5;0.097083;3.310417;163.0;0.032227;0.033203;1.03125;60000;60000;1059;0;0;0
2024-11-05_09-33-36.006526;251632;-2000.0;21.5;0.055417;3.315833;179.0;0.03125;0.036133;1.030273;60000;60000;1195;0;0;0
2024-11-05_09-33-36.131952;251632;-2000.0;21.5;0.055417;3.315833;179.0;0.03125;0.036133;1.030273;60000;60000;1328;0;0;0
2024-11-05_09-33-36.273550;251779;-2000.0;21.5;0.0525;3.310834;185.0;0.03125;0.039062;1.03418;60000;60000;1480;0;0;0
2024-11-05_09-33-36.430318;252071;-2000.0;21.5;0.66;3.509583;201.0;0.03125;0.03125;1.021484;0;0;1640;0;0;0
2024-11-05_09-33-36.665104;252218;-2000.0;21.5;0.064583;3.310834;201.0;0.03125;0.039062;1.035156;0;0;1879;0;0;0
2024-11-05_09-33-36.743574;252361;-2000.0;21.5;0.075833;3.317917;202.0;0.03418;0.036133;1.03125;0;0;1960;0;0;0
2024-11-05_09-33-36.900414;252502;-2000.0;21.5;0.109167;3.327917;197.0;0.027344;0.040039;1.029297;0;0;2110;0;0;0
2024-11-05_09-33-37.042025;252638;-2000.0;21.5;0.05;3.314167;199.0;0.03125;0.040039;1.032227;0;0;2260;0;0;0
2024-11-05_09-33-37.340171;252920;-2000.0;21.5625;0.02125;3.31625;197.0;0.027344;0.038086;1.023438;0;0;2532;0;0;0
2024-11-05_09-33-37.544199;253070;-2000.0;21.5;0.02125;3.315833;198.0;0.030273;0.038086;1.03418;0;0;2750;0;0;0
2024-11-05_09-33-37.763773;253369;-2000.0;21.5625;0.021667;3.31625;198.0;0.030273;0.037109;1.017578;0;0;2970;0;0;0
2024-11-05_09-33-37.952565;253511;-2000.0;21.5;0.021667;3.31625;199.0;0.027344;0.038086;1.015625;0;0;3163;0;0;0
2024-11-05_09-33-38.031812;253648;-2000.0;21.5625;0.02125;3.31625;198.0;0.029297;0.040039;1.012695;0;0;3240;0;0;0
2024-11-05_09-33-38.157899;253792;-2000.0;21.5625;0.021667;3.31625;200.0;0.02832;0.037109;1.021484;0;0;3370;0;0;0
2024-11-05_09-33-38.315058;253941;-2000.0;21.5625;0.021667;3.31625;200.0;0.027344;0.037109;1.020508;0;0;3520;0;0;0
2024-11-05_09-33-38.680116;254221;-2000.0;21.5;0.02125;3.31625;196.0;0.027344;0.041016;1.011719;0;0;3847;0;0;0
2024-11-05_09-33-38.787620;254360;-2000.0;21.5625;0.021667;3.31625;198.0;0.027344;0.040039;1.020508;0;0;3990;0;0;0
2024-11-05_09-33-39.056414;254638;-2000.0;21.5625;0.021667;3.31625;199.0;0.029297;0.040039;1.015625;0;0;4256;0;0;0
2024-11-05_09-33-39.246468;254782;-2000.0;21.5625;0.021667;3.31625;198.0;0.027344;0.037109;1.014648;0;0;4450;0;0;0
2024-11-05_09-33-39.413230;254931;-2000.0;21.5625;0.021667;3.31625;202.0;0.03125;0.033203;1.029297;0;0;4610;0;0;0
2024-11-05_09-33-39.568242;255068;-2000.0;21.5625;0.021667;3.31625;198.0;0.029297;0.037109;1.026367;0;0;4770;0;0;0
2024-11-05_09-33-39.735838;255361;-2000.0;21.5625;0.021667;3.315833;198.0;0.029297;0.036133;1.029297;0;0;4927;0;0;0
2024-11-05_09-33-39.926264;255497;-2000.0;21.5625;0.021667;3.31625;200.0;0.03125;0.030273;1.017578;0;0;5127;0;0;0
2024-11-05_09-33-40.019847;255646;-2000.0;21.5625;0.02125;3.31625;199.0;0.029297;0.032227;1.021484;0;0;5230;0;0;0
2024-11-05_09-33-40.207039;255793;-2000.0;21.5625;0.021667;3.317083;199.0;0.02832;0.036133;1.027344;0;0;5400;0;0;0
2024-11-05_09-33-40.463034;256100;-2000.0;21.5625;0.02125;3.320417;197.0;0.03125;0.038086;1.013672;0;0;5679;0;0;0
2024-11-05_09-33-40.646589;256249;-2000.0;21.5625;0.021667;3.321667;199.0;0.030273;0.040039;1.024414;0;0;5849;0;0;0
2024-11-05_09-33-40.807313;256388;-2000.0;21.5625;0.021667;3.32125;199.0;0.03125;0.036133;1.024414;0;0;6020;0;0;0
2024-11-05_09-33-40.980093;256533;-2000.0;21.5625;0.02125;3.321667;197.0;0.029297;0.039062;1.021484;0;0;6189;0;0;0
