datetime;time;load_cell;board_temperature;pressure_macki;pressure_tank;distance;acc_x;acc_y;acc_z;motor1_speed;motor2_speed;procedure_time;mechanical_state;motor1_temperature;motor2_temperature
2024-11-05_10-08-26.485471;375117;-190.666626;23.25;0.021667;3.119167;94.0;-0.012695;0.026367;1.009766;0;0;71413;0;0;0
2024-11-05_10-08-26.610904;375257;-189.333374;23.25;0.021667;3.119167;96.0;-0.012695;0.024414;1.015625;0;0;71535;0;0;0
2024-11-05_10-08-26.799912;375413;-189.333374;23.3125;0.021667;3.119167;95.0;-0.013672;0.017578;1.024414;0;0;71700;0;0;0
2024-11-05_10-08-26.925916;375558;-184.0;23.25;0.021667;3.119167;94.0;-0.013672;0.026367;0.991211;0;0;71843;0;0;0
2024-11-05_10-08-27.271684;375844;-184.0;23.3125;0.021667;3.119167;94.0;-0.010742;0.017578;1.015625;0;0;72181;0;0;0
2024-11-05_10-08-27.334435;375986;-189.333374;23.3125;0.021667;3.119167;99.0;-0.009766;0.018555;1.010742;0;0;72263;0;0;0
2024-11-05_10-08-27.398618;375986;-189.333374;23.3125;0.021667;3.119167;99.0;-0.009766;0.018555;1.010742;0;0;72323;0;0;0
2024-11-05_10-08-27.555169;376124;-190.666626;23.25;0.021667;3.119167;94.0;-0.009766;0.023438;1.03125;0;0;72473;0;0;0
2024-11-05_10-08-27.706408;376268;-190.666626;23.3125;0.021667;3.119167;96.0;-0.011719;0.024414;1.043945;0;0;72623;0;0;0
2024-11-05_10-08-28.058193;376696;-189.333374;23.25;0.021667;3.119167;95.0;-0.007812;0.027344;1.040039;0;0;72959;0;0;0
2024-11-05_10-08-28.137023;376696;-189.333374;23.25;0.021667;3.119167;95.0;-0.007812;0.027344;1.040039;0;0;73044;0;0;0
2024-11-05_10-08-28.183923;376696;-189.333374;23.25;0.021667;3.119167;95.0;-0.007812;0.027344;1.040039;0;0;73093;0;0;0
2024-11-05_10-08-28.327276;376978;-193.333374;23.3125;0.021667;3.119167;96.0;-0.009766;0.032227;1.051758;0;0;73253;0;0;0
2024-11-05_10-08-28.483543;377126;-193.333374;23.3125;0.021667;3.119167;95.0;-0.012695;0.02832;1.061523;0;0;73413;0;0;0
2024-11-05_10-08-28.672088;377264;-193.333374;23.3125;0.021667;3.119167;95.0;-0.015625;0.025391;1.061523;0;0;73582;0;0;0
2024-11-05_10-08-28.815228;377408;-197.333374;23.25;0.021667;3.119167;97.0;-0.007812;0.027344;1.063477;0;0;73734;0;0;0
2024-11-05_10-08-28.955957;377558;-197.333374;23.25;0.021667;3.119167;97.0;-0.010742;0.020508;1.070312;0;0;73883;0;0;0
2024-11-05_10-08-29.127553;377713;-196.0;23.3125;0.021667;3.119167;93.0;-0.010742;0.024414;1.064453;0;0;74044;0;0;0
2024-11-05_10-08-29.285298;377861;-193.333374;23.3125;0.021667;3.119167;95.0;-0.007812;0.027344;1.042969;0;0;74197;0;0;0
2024-11-05_10-08-29.428887;377994;-197.333374;23.25;0.021667;3.119167;96.0;-0.012695;0.019531;1.041016;0;0;74343;0;0;0
2024-11-05_10-08-29.600268;378131;-197.333374;23.3125;0.021667;3.119167;96.0;-0.008789;0.017578;1.056641;0;0;74512;0;0;0
2024-11-05_10-08-29.758192;378275;-193.333374;23.25;0.021667;3.119167;95.0;-0.007812;0.022461;1.070312;0;0;74671;0;0;0
2024-11-05_10-08-29.916300;378558;-202.666626;23.3125;0.021667;3.11375;93.0;-0.008789;0.023438;1.06543;0;0;74833;0;0;0
2024-11-05_10-08-30.074112;378704;-197.333374;23.3125;0.021667;3.11375;94.0;-0.008789;0.026367;1.077148;0;0;74993;0;0;0
2024-11-05_10-08-30.247907;378846;-197.333374;23.3125;0.021667;3.119167;96.0;-0.013672;0.029297;1.060547;0;0;75161;0;0;0
2024-11-05_10-08-30.469393;378986;-197.333374;23.3125;0.021667;3.119167;97.0;-0.009766;0.022461;1.05957;0;0;75349;0;0;0
2024-11-05_10-08-30.548818;379127;-197.333374;23.25;0.021667;3.11875;93.0;-0.011719;0.026367;1.070312;0;0;75466;0;0;0
2024-11-05_10-08-30.706349;379266;-197.333374;23.25;0.021667;3.1175;93.0;-0.005859;0.020508;1.054688;0;0;75611;0;0;0
2024-11-05_10-08-30.848070;379406;-193.333374;23.25;0.021667;3.115833;96.0;-0.008789;0.017578;1.060547;0;0;75763;0;0;0
2024-11-05_10-08-31.005737;379545;-193.333374;23.3125;0.021667;3.115417;94.0;-0.010742;0.016602;1.047852;0;0;75923;0;0;0
2024-11-05_10-08-31.147656;379686;-189.333374;23.3125;0.021667;3.114583;90.0;-0.010742;0.018555;1.045898;0;0;76065;0;0;0
2024-11-05_10-08-31.414807;379966;-193.333374;23.3125;0.021667;3.11375;96.0;-0.008789;0.018555;1.041992;0;0;76333;0;0;0
2024-11-05_10-08-31.493553;380106;-190.666626;23.3125;0.021667;3.11375;95.0;-0.012695;0.027344;1.042969;0;0;76403;0;0;0
2024-11-05_10-08-31.650485;380250;-190.666626;23.3125;0.021667;3.11375;96.0;-0.012695;0.025391;1.033203;0;0;76552;0;0;0
2024-11-05_10-08-31.791768;380382;-190.666626;23.3125;0.021667;3.11375;96.0;-0.005859;0.021484;1.045898;0;0;76713;0;0;0
2024-11-05_10-08-31.949181;380536;-188.0;23.3125;0.021667;3.11375;95.0;-0.011719;0.030273;1.035156;0;0;76873;0;0;0
2024-11-05_10-08-32.106893;380680;-189.333374;23.3125;0.021667;3.11375;98.0;-0.011719;0.030273;1.022461;0;0;77023;0;0;0
2024-11-05_10-08-32.280306;380817;-188.0;23.3125;0.022083;3.11375;97.0;-0.013672;0.030273;1.014648;0;0;77192;0;0;0
2024-11-05_10-08-32.422243;380966;-190.666626;23.3125;0.021667;3.11375;96.0;-0.008789;0.02832;1.020508;0;0;77333;0;0;0
2024-11-05_10-08-32.596069;381244;-190.666626;23.3125;0.021667;3.11375;97.0;-0.011719;0.019531;1.015625;0;0;77513;0;0;0
2024-11-05_10-08-32.737566;381244;-190.666626;23.3125;0.021667;3.11375;97.0;-0.011719;0.019531;1.015625;0;0;77653;0;0;0
2024-11-05_10-08-32.879343;381388;-190.666626;23.3125;0.021667;3.113333;94.0;-0.012695;0.029297;1.020508;0;0;77792;0;0;0
2024-11-05_10-08-33.022271;381676;-190.666626;23.3125;0.021667;3.11375;95.0;-0.010742;0.024414;1.015625;0;0;77943;0;0;0
2024-11-05_10-08-33.244696;381818;-190.666626;23.3125;0.021667;3.11375;96.0;-0.014648;0.021484;1.020508;0;0;78163;0;0;0
2024-11-05_10-08-33.354710;381964;-190.666626;23.3125;0.021667;3.11375;97.0;-0.009766;0.019531;1.024414;0;0;78272;0;0;0
2024-11-05_10-08-33.512471;382107;-190.666626;23.3125;0.021667;3.11375;96.0;-0.008789;0.015625;1.014648;0;0;78422;0;0;0
2024-11-05_10-08-33.733924;382386;-190.666626;23.3125;0.021667;3.11375;96.0;-0.011719;0.027344;1.03125;0;0;78653;0;0;0
2024-11-05_10-08-33.860365;382386;-190.666626;23.3125;0.021667;3.11375;96.0;-0.011719;0.027344;1.03125;0;0;78761;0;0;0
2024-11-05_10-08-34.003246;382526;-190.666626;23.3125;0.021667;3.11375;95.0;-0.012695;0.027344;1.013672;0;0;78903;0;0;0
2024-11-05_10-08-34.207891;382806;-188.0;23.3125;0.021667;3.11375;96.0;-0.012695;0.02832;1.008789;0;0;79123;0;0;0
2024-11-05_10-08-34.286458;382806;-188.0;23.3125;0.021667;3.11375;96.0;-0.012695;0.02832;1.008789;0;0;79203;0;0;0
2024-11-05_10-08-34.428684;383087;-188.0;23.3125;3.11375;3.11375;96.0;-0.012695;0.022461;1.023438;0;0;79353;0;0;0
2024-11-05_10-08-34.617683;383232;-185.333374;23.3125;0.021667;3.11375;96.0;-0.012695;0.037109;1.022461;0;0;79532;0;0;0
2024-11-05_10-08-34.775847;383382;-188.0;23.3125;0.021667;3.11375;98.0;-0.012695;0.035156;1.005859;0;0;79693;0;0;0
2024-11-05_10-08-34.933019;383527;-178.666626;23.3125;0.021667;3.11375;94.0;-0.010742;0.024414;1.008789;0;0;79853;0;0;0
2024-11-05_10-08-35.090645;383678;-193.333374;23.3125;0.021667;3.11375;94.0;-0.011719;0.016602;1.015625;0;0;79993;0;0;0
2024-11-05_10-08-35.310664;383829;-188.0;23.3125;0.021667;3.11375;97.0;-0.013672;0.023438;1.022461;0;0;80230;0;0;0
2024-11-05_10-08-35.405598;383976;-188.0;23.3125;0.021667;3.11375;95.0;-0.005859;0.019531;1.007812;0;0;80313;0;0;0
2024-11-05_10-08-35.547634;384114;-188.0;23.3125;0.021667;3.11375;97.0;-0.011719;0.024414;1.020508;0;0;80463;0;0;0
2024-11-05_10-08-35.710558;384258;-188.0;23.3125;0.021667;3.11375;97.0;-0.012695;0.024414;1.012695;0;0;80623;0;0;0
2024-11-05_10-08-35.862680;384406;-189.333374;23.3125;0.021667;3.11375;94.0;-0.013672;0.019531;1.016602;0;0;80773;0;0;0
2024-11-05_10-08-36.004382;384544;-189.333374;23.3125;0.021667;3.11375;94.0;-0.009766;0.015625;1.020508;0;0;80921;0;0;0
2024-11-05_10-08-36.193431;384837;-188.0;23.3125;0.021667;3.11375;97.0;-0.011719;0.022461;1.024414;0;0;81095;0;0;0
2024-11-05_10-08-36.339750;384974;-190.666626;23.3125;0.021667;3.11375;95.0;-0.010742;0.024414;1.037109;0;0;81240;0;0;0
2024-11-05_10-08-36.476524;385118;-189.333374;23.3125;0.021667;3.11375;96.0;-0.008789;0.018555;1.037109;0;0;81393;0;0;0
2024-11-05_10-08-36.635150;385264;-193.333374;23.3125;0.021667;3.11375;94.0;-0.014648;0.027344;1.036133;0;0;81553;0;0;0
2024-11-05_10-08-36.808407;385406;-189.333374;23.3125;0.021667;3.11375;94.0;-0.010742;0.023438;1.032227;0;0;81722;0;0;0
2024-11-05_10-08-36.949915;385546;-193.333374;23.3125;0.021667;3.11375;95.0;-0.006836;0.021484;1.03418;0;0;81863;0;0;0
2024-11-05_10-08-37.091996;385698;-189.333374;23.3125;0.021667;3.11375;96.0;-0.010742;0.023438;1.045898;0;0;82013;0;0;0
2024-11-05_10-08-37.250164;385853;-197.333374;23.3125;0.021667;3.11375;94.0;-0.006836;0.023438;1.057617;0;0;82175;0;0;0
2024-11-05_10-08-37.423204;386000;-189.333374;23.3125;0.021667;3.11375;95.0;-0.009766;0.018555;1.049805;0;0;82343;0;0;0
2024-11-05_10-08-37.596228;386147;-190.666626;23.3125;0.021667;3.11375;96.0;-0.010742;0.018555;1.032227;0;0;82512;0;0;0
2024-11-05_10-08-37.722462;386282;-193.333374;23.3125;0.021667;3.11375;95.0;-0.008789;0.021484;1.037109;0;0;82643;0;0;0
2024-11-05_10-08-37.880741;386425;-193.333374;23.3125;0.02125;3.113333;96.0;-0.013672;0.020508;1.039062;0;0;82793;0;0;0
2024-11-05_10-08-38.022149;386566;-193.333374;23.3125;0.021667;3.11125;94.0;-0.007812;0.030273;1.037109;0;0;82942;0;0;0
2024-11-05_10-08-38.195388;386708;-190.666626;23.3125;0.021667;3.111667;95.0;-0.010742;0.021484;1.032227;0;0;83102;0;0;0
2024-11-05_10-08-38.356690;386996;-190.666626;23.3125;0.021667;3.109167;98.0;-0.014648;0.022461;1.02832;0;0;83264;0;0;0
2024-11-05_10-08-38.528434;387136;-193.333374;23.3125;0.021667;3.10875;96.0;-0.007812;0.021484;1.035156;0;0;83431;0;0;0
2024-11-05_10-08-38.683821;387277;-190.666626;23.3125;0.021667;3.109584;97.0;-0.012695;0.017578;1.037109;0;0;83592;0;0;0
2024-11-05_10-08-38.841020;387416;-188.0;23.3125;0.021667;3.109584;94.0;-0.008789;0.021484;1.029297;0;0;83762;0;0;0
2024-11-05_10-08-38.998086;387556;-188.0;23.3125;0.021667;3.108334;94.0;-0.010742;0.021484;1.03418;0;0;83903;0;0;0
2024-11-05_10-08-39.124541;387696;-190.666626;23.3125;0.021667;3.108334;94.0;-0.010742;0.019531;1.043945;0;0;84043;0;0;0
2024-11-05_10-08-39.298014;387836;-193.333374;23.3125;0.021667;3.108334;95.0;-0.006836;0.02832;1.050781;0;0;84211;0;0;0
2024-11-05_10-08-39.487244;388116;-190.666626;23.3125;0.021667;3.108334;96.0;-0.013672;0.025391;1.041992;0;0;84385;0;0;0
2024-11-05_10-08-39.597537;388116;-190.666626;23.3125;0.021667;3.108334;96.0;-0.013672;0.025391;1.041992;0;0;84509;0;0;0
2024-11-05_10-08-39.850587;388404;-190.666626;23.3125;0.021667;3.107917;96.0;-0.011719;0.02832;1.018555;0;0;84773;0;0;0
2024-11-05_10-08-39.929757;388552;-190.666626;23.3125;0.021667;3.108334;95.0;-0.012695;0.03125;1.021484;0;0;84844;0;0;0
2024-11-05_10-08-40.086712;388704;-188.0;23.3125;0.021667;3.108334;96.0;-0.011719;0.022461;1.003906;0;0;84993;0;0;0
2024-11-05_10-08-40.306274;388847;-184.0;23.3125;3.108334;3.108334;96.0;-0.009766;0.025391;1.0;0;0;85213;0;0;0
2024-11-05_10-08-40.384534;388992;-184.0;23.3125;0.021667;3.108334;96.0;-0.012695;0.024414;1.0;0;0;85303;0;0;0
2024-11-05_10-08-40.587673;389138;-178.666626;23.3125;0.021667;3.108334;93.0;-0.009766;0.025391;0.99707;0;0;85474;0;0;0
2024-11-05_10-08-40.697052;389284;-178.666626;23.3125;0.021667;3.108334;96.0;-0.013672;0.021484;0.985352;0;0;85603;0;0;0
2024-11-05_10-08-40.853678;389429;-178.666626;23.3125;0.021667;3.108334;98.0;-0.011719;0.024414;0.980469;0;0;85772;0;0;0
2024-11-05_10-08-41.025553;389576;-184.0;23.3125;0.021667;3.108334;95.0;-0.013672;0.025391;0.981445;0;0;85931;0;0;0
2024-11-05_10-08-41.182153;389714;-188.0;23.3125;0.021667;3.108334;97.0;-0.011719;0.022461;0.989258;0;0;86091;0;0;0
2024-11-05_10-08-41.338401;389858;-178.666626;23.3125;0.021667;3.108334;96.0;-0.011719;0.020508;0.983398;0;0;86251;0;0;0
2024-11-05_10-08-41.604848;390144;-178.666626;23.3125;0.021667;3.108334;94.0;-0.009766;0.024414;0.985352;0;0;86528;0;0;0
2024-11-05_10-08-42.104848;390704;-184.0;23.3125;0.021667;3.108334;98.0;-0.010742;0.026367;1.000977;0;0;87027;0;0;0
2024-11-05_10-08-42.245473;390847;-188.0;23.3125;0.021667;3.108334;93.0;-0.010742;0.023438;1.011719;0;0;87163;0;0;0
2024-11-05_10-08-42.417707;390986;-188.0;23.3125;0.021667;3.108334;95.0;-0.010742;0.025391;1.005859;0;0;87333;0;0;0
2024-11-05_10-08-42.823967;391424;-178.666626;23.3125;0.021667;3.108334;96.0;-0.014648;0.020508;1.004883;0;0;87727;0;0;0
2024-11-05_10-08-42.917718;391424;-178.666626;23.3125;0.021667;3.108334;96.0;-0.014648;0.020508;1.004883;0;0;87842;0;0;0
2024-11-05_10-08-43.042716;391568;-188.0;23.3125;0.021667;3.108334;95.0;-0.011719;0.025391;1.006836;0;0;87963;0;0;0
2024-11-05_10-08-43.231011;391712;-188.0;23.3125;0.021667;3.108334;98.0;-0.011719;0.023438;0.989258;0;0;88125;0;0;0
2024-11-05_10-08-43.356020;392007;-177.333374;23.3125;0.021667;3.108334;95.0;-0.014648;0.022461;0.983398;0;0;88273;0;0;0
2024-11-05_10-08-43.512356;392144;-189.333374;23.3125;0.021667;3.108334;97.0;-0.011719;0.03125;0.987305;0;0;88433;0;0;0
2024-11-05_10-08-43.668605;392288;-184.0;23.375;0.021667;3.108334;94.0;-0.015625;0.024414;0.988281;0;0;88582;0;0;0
2024-11-05_10-08-43.840478;392437;-178.666626;23.3125;0.021667;3.108334;94.0;-0.012695;0.027344;0.996094;0;0;88747;0;0;0
2024-11-05_10-08-43.981107;392574;-188.0;23.375;0.021667;3.108334;93.0;-0.010742;0.02832;0.991211;0;0;88891;0;0;0
2024-11-05_10-08-44.309231;392866;-189.333374;23.3125;0.021667;3.108334;95.0;-0.007812;0.02832;1.006836;0;0;89191;0;0;0
2024-11-05_10-08-44.356105;393004;-184.0;23.3125;0.021667;3.108334;95.0;-0.00293;0.024414;1.006836;0;0;89273;0;0;0
2024-11-05_10-08-44.481374;393004;-184.0;23.3125;0.021667;3.108334;95.0;-0.00293;0.024414;1.006836;0;0;89381;0;0;0
2024-11-05_10-08-44.606743;393148;-185.333374;23.3125;0.021667;3.108334;96.0;-0.006836;0.022461;1.017578;0;0;89523;0;0;0
2024-11-05_10-08-44.763048;393294;-190.666626;23.3125;0.021667;3.108334;96.0;-0.004883;0.022461;1.015625;0;0;89683;0;0;0
2024-11-05_10-08-44.919837;393576;-193.333374;23.3125;0.021667;3.108334;97.0;-0.005859;0.025391;1.03125;0;0;89833;0;0;0
2024-11-05_10-08-45.076055;393722;-193.333374;23.375;0.021667;3.108334;96.0;-0.00293;0.020508;1.036133;0;0;89993;0;0;0
2024-11-05_10-08-45.232842;393873;-197.333374;23.3125;0.021667;3.108334;96.0;-0.007812;0.02832;1.049805;0;0;90143;0;0;0
2024-11-05_10-08-45.405240;394021;-197.333374;23.3125;0.021667;3.108334;95.0;-0.008789;0.026367;1.041992;0;0;90302;0;0;0
2024-11-05_10-08-45.561568;394171;-197.333374;23.3125;0.021667;3.108334;95.0;-0.006836;0.03125;1.055664;0;0;90482;0;0;0
2024-11-05_10-08-45.717816;394313;-197.333374;23.3125;0.021667;3.108334;97.0;-0.007812;0.030273;1.060547;0;0;90623;0;0;0
2024-11-05_10-08-45.906082;394458;-193.333374;23.3125;0.021667;3.108334;96.0;-0.009766;0.020508;1.049805;0;0;90823;0;0;0
2024-11-05_10-08-45.999846;394604;-193.333374;23.3125;0.021667;3.108334;94.0;-0.007812;0.026367;1.041992;0;0;90921;0;0;0
2024-11-05_10-08-46.187937;394749;-202.666626;23.3125;0.021667;3.108334;97.0;-0.007812;0.021484;1.058594;0;0;91092;0;0;0
2024-11-05_10-08-46.344200;394896;-197.333374;23.3125;0.021667;3.108334;97.0;-0.007812;0.024414;1.048828;0;0;91251;0;0;0
2024-11-05_10-08-46.500779;395034;-196.0;23.375;0.021667;3.108334;95.0;-0.007812;0.015625;1.045898;0;0;91411;0;0;0
2024-11-05_10-08-46.641486;395178;-193.333374;23.375;0.021667;3.108334;98.0;-0.007812;0.030273;1.050781;0;0;91553;0;0;0
2024-11-05_10-08-46.828991;395467;-197.333374;23.3125;0.021667;3.108334;96.0;-0.008789;0.019531;1.043945;0;0;91743;0;0;0
2024-11-05_10-08-46.953986;395605;-190.666626;23.3125;0.021667;3.108334;95.0;-0.012695;0.014648;1.023438;0;0;91873;0;0;0
2024-11-05_10-08-47.219614;395746;-190.666626;23.3125;0.021667;3.108334;94.0;-0.00293;0.021484;1.035156;0;0;92113;0;0;0
2024-11-05_10-08-47.282115;395884;-190.666626;23.375;0.021667;3.108334;96.0;-0.007812;0.024414;1.037109;0;0;92193;0;0;0
2024-11-05_10-08-47.469616;396028;-190.666626;23.3125;0.021667;3.108334;97.0;-0.007812;0.020508;1.018555;0;0;92382;0;0;0
2024-11-05_10-08-47.579437;396176;-190.666626;23.375;0.021667;3.108334;94.0;-0.007812;0.026367;1.022461;0;0;92491;0;0;0
2024-11-05_10-08-47.735685;396316;-190.666626;23.3125;0.021667;3.10875;95.0;-0.005859;0.03125;1.02832;0;0;92643;0;0;0
2024-11-05_10-08-47.907870;396455;-189.333374;23.375;0.021667;3.108334;96.0;-0.004883;0.024414;1.038086;0;0;92813;0;0;0
2024-11-05_10-08-48.048493;396600;-185.333374;23.375;0.021667;3.108334;95.0;-0.009766;0.026367;1.018555;0;0;92963;0;0;0
2024-11-05_10-08-48.205262;396754;-188.0;23.3125;0.021667;3.1075;93.0;-0.006836;0.03418;1.02832;0;0;93113;0;0;0
2024-11-05_10-08-48.565122;397184;-190.666626;23.3125;0.021667;3.104167;94.0;-0.008789;0.025391;1.036133;0;0;93483;0;0;0
2024-11-05_10-08-48.658875;397184;-190.666626;23.3125;0.021667;3.104167;94.0;-0.008789;0.025391;1.036133;0;0;93584;0;0;0
2024-11-05_10-08-48.846375;397466;-193.333374;23.375;0.021667;3.102917;94.0;-0.007812;0.022461;1.026367;0;0;93750;0;0;0
2024-11-05_10-08-48.986997;397607;-189.333374;23.3125;0.021667;3.102917;97.0;-0.008789;0.026367;1.030273;0;0;93903;0;0;0
2024-11-05_10-08-49.143367;397746;-189.333374;23.3125;0.021667;3.102917;95.0;-0.007812;0.027344;1.044922;0;0;94063;0;0;0
2024-11-05_10-08-49.283992;397887;-193.333374;23.375;0.021667;3.102917;95.0;-0.003906;0.027344;1.047852;0;0;94203;0;0;0
2024-11-05_10-08-49.456133;398026;-190.666626;23.375;0.021667;3.103333;95.0;-0.005859;0.021484;1.043945;0;0;94371;0;0;0
2024-11-05_10-08-49.628159;398166;-193.333374;23.3125;0.021667;3.102917;95.0;-0.006836;0.026367;1.056641;0;0;94541;0;0;0
2024-11-05_10-08-49.768824;398306;-190.666626;23.3125;0.021667;3.102917;97.0;-0.010742;0.029297;1.044922;0;0;94683;0;0;0
2024-11-05_10-08-49.941076;398446;-193.333374;23.3125;0.021667;3.102917;95.0;-0.006836;0.021484;1.053711;0;0;94845;0;0;0
2024-11-05_10-08-50.066076;398586;-193.333374;23.3125;0.021667;3.102917;96.0;-0.008789;0.021484;1.048828;0;0;94981;0;0;0
2024-11-05_10-08-50.222330;398866;-189.333374;23.375;0.021667;3.102917;95.0;-0.005859;0.020508;1.033203;0;0;95143;0;0;0
2024-11-05_10-08-50.378994;399006;-189.333374;23.3125;0.021667;3.102917;96.0;-0.008789;0.019531;1.035156;0;0;95293;0;0;0
2024-11-05_10-08-50.540435;399149;-190.666626;23.375;0.021667;3.102917;99.0;-0.005859;0.022461;1.025391;0;0;95453;0;0;0
2024-11-05_10-08-50.691615;399307;-190.666626;23.375;0.021667;3.102917;96.0;-0.001953;0.027344;1.027344;0;0;95603;0;0;0
2024-11-05_10-08-50.832209;399465;-189.333374;23.3125;0.021667;3.102917;96.0;-0.00293;0.023438;1.025391;0;0;95753;0;0;0
2024-11-05_10-08-51.004083;399618;-193.333374;23.375;0.021667;3.102917;95.0;0.000977;0.026367;1.035156;0;0;95909;0;0;0
2024-11-05_10-08-51.175956;399766;-190.666626;23.3125;0.022083;3.102917;94.0;0.006836;0.03125;1.029297;0;0;96082;0;0;0
2024-11-05_10-08-51.332205;399895;-193.333374;23.3125;0.021667;3.102917;94.0;0.003906;0.035156;1.020508;0;0;96242;0;0;0
2024-11-05_10-08-51.473092;400036;-193.333374;23.375;0.021667;3.102917;93.0;0.005859;0.03418;1.038086;0;0;96393;0;0;0
2024-11-05_10-08-51.770244;400317;-190.666626;23.3125;0.021667;3.102917;96.0;0.001953;0.029297;1.037109;0;0;96686;0;0;0
2024-11-05_10-08-51.942247;400596;-189.333374;23.375;0.021667;3.103333;91.0;-0.00293;0.025391;1.061523;0;0;96853;0;0;0
2024-11-05_10-08-52.255380;400876;-197.333374;23.375;0.021667;3.102917;96.0;0.0;0.029297;1.074219;0;0;97141;0;0;0
2024-11-05_10-08-52.646898;401154;-193.333374;23.3125;0.021667;3.102917;93.0;-0.000977;0.021484;1.060547;0;0;97550;0;0;0
2024-11-05_10-08-52.740650;401296;-189.333374;23.375;0.021667;3.102917;94.0;-0.00293;0.025391;1.045898;0;0;97651;0;0;0
2024-11-05_10-08-52.897075;401434;-196.0;23.375;0.021667;3.102917;97.0;-0.00293;0.027344;1.046875;0;0;97793;0;0;0
2024-11-05_10-08-53.037693;401578;-190.666626;23.375;0.021667;3.102917;96.0;-0.004883;0.025391;1.057617;0;0;97953;0;0;0
2024-11-05_10-08-53.194286;401724;-189.333374;23.375;0.021667;3.102917;95.0;-0.00293;0.026367;1.050781;0;0;98113;0;0;0
2024-11-05_10-08-53.335269;401873;-189.333374;23.375;0.021667;3.102917;95.0;0.000977;0.023438;1.041016;0;0;98257;0;0;0
2024-11-05_10-08-53.507573;402026;-190.666626;23.3125;0.021667;3.102917;97.0;-0.00293;0.018555;1.03418;0;0;98415;0;0;0
2024-11-05_10-08-53.663947;402303;-185.333374;23.375;0.021667;3.102917;98.0;-0.000977;0.022461;1.018555;0;0;98583;0;0;0
2024-11-05_10-08-53.851446;402452;-190.666626;23.375;0.021667;3.102917;97.0;-0.001953;0.018555;1.022461;0;0;98762;0;0;0
2024-11-05_10-08-54.054572;402602;-197.333374;23.375;0.022083;3.102917;96.0;-0.000977;0.021484;1.035156;0;0;98963;0;0;0
2024-11-05_10-08-54.164447;402746;-185.333374;23.375;0.021667;3.102917;93.0;0.000977;0.024414;1.032227;0;0;99061;0;0;0
2024-11-05_10-08-54.289447;402888;-188.0;23.375;0.021667;3.103333;95.0;-0.00293;0.019531;1.012695;0;0;99203;0;0;0
2024-11-05_10-08-54.446372;403034;-190.666626;23.375;0.021667;3.102917;94.0;-0.006836;0.023438;1.010742;0;0;99363;0;0;0
2024-11-05_10-08-54.634632;403176;-188.0;23.375;0.021667;3.103333;95.0;-0.00293;0.030273;1.024414;0;0;99521;0;0;0
2024-11-05_10-08-54.744006;403316;-190.666626;23.375;0.021667;3.102917;94.0;-0.00293;0.032227;1.02832;0;0;99663;0;0;0
2024-11-05_10-08-54.931505;403456;-190.666626;23.375;0.022083;3.102917;97.0;-0.001953;0.033203;1.008789;0;0;99831;0;0;0
2024-11-05_10-08-55.072130;403595;-189.333374;23.375;0.021667;3.102917;96.0;-0.004883;0.033203;1.035156;0;0;99991;0;0;0
2024-11-05_10-08-55.228378;403876;-190.666626;23.375;0.021667;3.103333;94.0;-0.004883;0.029297;1.044922;0;0;100143;0;0;0
2024-11-05_10-08-55.384626;404017;-189.333374;23.375;0.021667;3.102917;93.0;0.001953;0.029297;1.035156;0;0;100303;0;0;0
2024-11-05_10-08-55.728756;404296;-193.333374;23.375;0.021667;3.1025;96.0;-0.003906;0.021484;1.015625;0;0;100632;0;0;0
2024-11-05_10-08-55.838129;404438;-189.333374;23.375;0.021667;3.102917;94.0;-0.000977;0.014648;1.015625;0;0;100762;0;0;0
2024-11-05_10-08-56.025963;404586;-189.333374;23.375;0.021667;3.102917;95.0;-0.001953;0.018555;1.023438;0;0;100942;0;0;0
2024-11-05_10-08-56.197840;404730;-193.333374;23.375;0.021667;3.102917;95.0;0.000977;0.029297;1.043945;0;0;101103;0;0;0
2024-11-05_10-08-56.322839;404877;-188.0;23.375;0.021667;3.102917;95.0;-0.00293;0.020508;1.033203;0;0;101235;0;0;0
2024-11-05_10-08-56.479170;405024;-193.333374;23.375;0.021667;3.102917;95.0;-0.005859;0.025391;1.014648;0;0;101394;0;0;0
2024-11-05_10-08-56.640579;405170;-188.0;23.375;0.021667;3.102917;96.0;-0.001953;0.024414;1.017578;0;0;101553;0;0;0
2024-11-05_10-08-56.776098;405314;-189.333374;23.375;0.021667;3.099583;96.0;-0.001953;0.027344;1.026367;0;0;101694;0;0;0
2024-11-05_10-08-56.947973;405455;-190.666626;23.375;0.021667;3.0975;96.0;-0.001953;0.025391;1.043945;0;0;101853;0;0;0
2024-11-05_10-08-57.119851;405736;-184.0;23.375;0.021667;3.099583;96.0;0.000977;0.025391;1.021484;0;0;102031;0;0;0
2024-11-05_10-08-57.260474;405877;-193.333374;23.375;0.021667;3.0975;95.0;-0.006836;0.024414;1.009766;0;0;102173;0;0;0
2024-11-05_10-08-57.416726;406016;-190.666626;23.375;0.021667;3.0975;95.0;-0.003906;0.022461;1.016602;0;0;102333;0;0;0
2024-11-05_10-08-57.572973;406157;-190.666626;23.375;0.021667;3.097917;92.0;-0.003906;0.025391;1.022461;0;0;102493;0;0;0
2024-11-05_10-08-57.729379;406295;-193.333374;23.3125;0.021667;3.097917;97.0;-0.001953;0.023438;1.041992;0;0;102641;0;0;0
2024-11-05_10-08-58.026725;406576;-193.333374;23.3125;0.021667;3.097917;95.0;0.000977;0.036133;1.056641;0;0;102926;0;0;0
2024-11-05_10-08-58.198600;406856;-189.333374;23.375;0.021667;3.097917;99.0;-0.006836;0.02832;1.03418;0;0;103113;0;0;0
2024-11-05_10-08-58.354846;406996;-190.666626;23.375;0.021667;3.0975;94.0;-0.003906;0.035156;1.039062;0;0;103272;0;0;0
2024-11-05_10-08-58.699187;407276;-190.666626;23.375;0.021667;0.021667;99.0;0.00293;0.010742;1.021484;0;0;103603;0;0;0
2024-11-05_10-08-58.824186;407421;-193.333374;23.3125;0.021667;3.097917;98.0;-0.000977;0.015625;1.042969;0;0;103744;0;0;0
2024-11-05_10-08-58.964808;407572;-197.333374;23.375;0.021667;3.0975;98.0;0.0;0.021484;1.037109;0;0;103883;0;0;0
2024-11-05_10-08-59.136681;407725;-193.333374;23.375;0.021667;3.0975;96.0;0.000977;0.018555;1.052734;0;0;104052;0;0;0
2024-11-05_10-08-59.292968;407870;-197.333374;23.375;0.021667;3.097917;97.0;-0.00293;0.018555;1.060547;0;0;104202;0;0;0
2024-11-05_10-08-59.464806;408010;-201.333374;23.375;0.021667;3.0975;96.0;-0.000977;0.02832;1.060547;0;0;104371;0;0;0
2024-11-05_10-08-59.621116;408156;-190.666626;23.375;0.021667;3.0975;95.0;0.001953;0.021484;1.061523;0;0;104531;0;0;0
2024-11-05_10-08-59.793487;408298;-188.0;23.375;0.021667;3.0975;96.0;0.001953;0.020508;1.050781;0;0;104691;0;0;0
2024-11-05_10-08-59.918490;408444;-197.333374;23.375;0.021667;3.097917;96.0;-0.004883;0.02832;1.046875;0;0;104833;0;0;0
2024-11-05_10-09-00.074734;408726;-193.333374;23.375;0.021667;3.097917;95.0;-0.000977;0.025391;1.041992;0;0;104993;0;0;0
2024-11-05_10-09-00.230987;408866;-190.666626;23.375;0.021667;3.0975;95.0;-0.003906;0.03125;1.02832;0;0;105143;0;0;0
2024-11-05_10-09-00.418987;409006;-190.666626;23.375;0.021667;3.097917;95.0;-0.001953;0.02832;1.039062;0;0;105313;0;0;0
2024-11-05_10-09-00.544248;409147;-196.0;23.375;0.021667;3.097917;96.0;-0.000977;0.03125;1.054688;0;0;105461;0;0;0
2024-11-05_10-09-00.705950;409288;-193.333374;23.375;0.021667;3.097917;96.0;-0.007812;0.030273;1.049805;0;0;105613;0;0;0
2024-11-05_10-09-00.857091;409434;-189.333374;23.375;0.021667;3.097917;95.0;0.001953;0.027344;1.048828;0;0;105773;0;0;0
2024-11-05_10-09-01.013344;409576;-189.333374;23.375;0.021667;3.095834;95.0;0.0;0.017578;1.046875;0;0;105933;0;0;0
2024-11-05_10-09-01.169591;409716;-189.333374;23.375;0.021667;3.097917;94.0;0.001953;0.02832;1.040039;0;0;106083;0;0;0
2024-11-05_10-09-01.372716;409994;-193.333374;23.375;0.021667;0.021667;97.0;0.006836;0.023438;1.047852;0;0;106283;0;0;0
2024-11-05_10-09-01.700947;410292;-190.666626;23.375;0.021667;3.0975;96.0;0.009766;0.022461;1.039062;0;0;106624;0;0;0
2024-11-05_10-09-01.888717;410437;-196.0;23.375;0.021667;3.097917;94.0;0.011719;0.021484;1.039062;0;0;106793;0;0;0
2024-11-05_10-09-01.951222;410576;-190.666626;23.375;0.021667;3.097917;96.0;0.007812;0.032227;1.046875;0;0;106867;0;0;0
2024-11-05_10-09-02.154741;410720;-190.666626;23.375;0.021667;3.0975;97.0;0.008789;0.03418;1.038086;0;0;107073;0;0;0
2024-11-05_10-09-02.264120;410873;-197.333374;23.375;0.021667;3.097917;96.0;0.007812;0.037109;1.050781;0;0;107182;0;0;0
2024-11-05_10-09-02.420369;411017;-189.333374;23.375;0.021667;3.0975;96.0;0.005859;0.035156;1.040039;0;0;107331;0;0;0
2024-11-05_10-09-02.592281;411158;-193.333374;23.375;0.021667;3.0975;96.0;0.004883;0.03418;1.037109;0;0;107501;0;0;0
2024-11-05_10-09-02.748562;411304;-190.666626;23.375;0.021667;3.0975;95.0;0.006836;0.030273;1.026367;0;0;107661;0;0;0
2024-11-05_10-09-02.898586;411446;-189.333374;23.375;0.021667;3.097917;96.0;0.009766;0.022461;1.020508;0;0;107803;0;0;0
2024-11-05_10-09-03.076981;411586;-188.0;23.375;0.021667;3.097917;96.0;-0.000977;0.020508;1.018555;0;0;107971;0;0;0
2024-11-05_10-09-03.201985;411727;-193.333374;23.375;0.021667;3.0975;98.0;0.005859;0.032227;1.008789;0;0;108113;0;0;0
2024-11-05_10-09-03.452516;412007;-188.0;23.375;0.021667;3.097917;96.0;0.004883;0.037109;1.030273;0;0;108376;0;0;0
2024-11-05_10-09-03.515019;412144;-184.0;23.375;0.021667;3.097083;93.0;0.000977;0.019531;1.004883;0;0;108433;0;0;0
2024-11-05_10-09-03.905912;412427;-190.666626;23.375;0.021667;3.095417;93.0;0.0;0.014648;0.985352;0;0;108807;0;0;0
2024-11-05_10-09-03.999659;412564;-170.666626;23.375;0.021667;3.095417;94.0;0.000977;0.027344;0.977539;0;0;108912;0;0;0
2024-11-05_10-09-04.187158;412706;-189.333374;23.375;0.021667;3.0925;94.0;0.001953;0.027344;0.958008;0;0;109059;0;0;0
2024-11-05_10-09-04.296535;412846;-174.666626;23.375;0.021667;3.092917;95.0;0.000977;0.037109;1.012695;0;0;109214;0;0;0
2024-11-05_10-09-04.452779;412987;-188.0;23.375;0.021667;3.0925;94.0;-0.001953;0.033203;1.015625;0;0;109373;0;0;0
2024-11-05_10-09-04.609825;413134;-174.666626;23.375;3.0925;3.092917;93.0;0.0;0.024414;0.99707;0;0;109523;0;0;0
2024-11-05_10-09-04.770315;413280;-184.0;23.375;0.022083;3.092917;96.0;0.00293;0.018555;0.980469;0;0;109683;0;0;0
2024-11-05_10-09-04.922468;413432;-177.333374;23.375;0.021667;3.0925;95.0;0.001953;0.022461;0.988281;0;0;109841;0;0;0
2024-11-05_10-09-05.079018;413577;-193.333374;23.375;0.021667;3.0925;96.0;0.000977;0.020508;1.003906;0;0;109993;0;0;0
2024-11-05_10-09-05.266687;413876;-197.333374;23.375;0.021667;3.0925;95.0;0.00293;0.016602;1.012695;0;0;110153;0;0;0
2024-11-05_10-09-05.391690;414017;-193.333374;23.375;0.021667;3.0925;95.0;0.006836;0.022461;1.033203;0;0;110303;0;0;0
2024-11-05_10-09-05.547937;414155;-193.333374;23.375;0.021667;3.0925;97.0;0.000977;0.014648;1.046875;0;0;110463;0;0;0
2024-11-05_10-09-05.704190;414297;-188.0;23.375;0.021667;3.0925;95.0;0.00293;0.027344;1.047852;0;0;110612;0;0;0
2024-11-05_10-09-05.861212;414436;-197.333374;23.375;0.021667;3.0925;96.0;0.00293;0.02832;1.054688;0;0;110782;0;0;0
2024-11-05_10-09-06.017925;414576;-190.666626;23.375;0.021667;3.0925;96.0;-0.000977;0.026367;1.057617;0;0;110933;0;0;0
2024-11-05_10-09-06.174174;414715;-193.333374;23.375;0.021667;3.092084;96.0;0.005859;0.015625;1.045898;0;0;111093;0;0;0
2024-11-05_10-09-06.330428;414856;-190.666626;23.375;0.021667;3.0925;94.0;0.000977;0.020508;1.029297;0;0;111242;0;0;0
2024-11-05_10-09-06.487173;414996;-190.666626;23.375;0.021667;3.0925;98.0;0.001953;0.023438;1.045898;0;0;111393;0;0;0
2024-11-05_10-09-06.784050;415417;-190.666626;23.375;0.021667;3.108334;95.0;0.005859;0.026367;1.021484;0;0;111681;0;0;0
2024-11-05_10-09-06.956164;415556;-190.666626;23.375;0.021667;3.11375;94.0;0.001953;0.017578;1.013672;0;0;111874;0;0;0
2024-11-05_10-09-07.112416;415701;-188.0;23.375;0.021667;3.119167;95.0;0.003906;0.013672;1.014648;0;0;112033;0;0;0
2024-11-05_10-09-07.268663;415840;-190.666626;23.375;0.021667;3.124583;95.0;0.009766;0.022461;1.010742;0;0;112184;0;0;0
2024-11-05_10-09-07.425080;415994;-184.0;23.375;0.021667;3.129583;95.0;0.0;0.038086;1.007812;0;0;112343;0;0;0
2024-11-05_10-09-07.581334;416141;-193.333374;23.375;0.021667;3.135;96.0;0.005859;0.026367;1.0;0;0;112498;0;0;0
2024-11-05_10-09-07.737578;416279;-190.666626;23.375;0.021667;3.143333;95.0;0.009766;0.03418;1.003906;0;0;112653;0;0;0
2024-11-05_10-09-07.925391;416554;-190.666626;23.375;0.022083;3.15125;96.0;0.009766;0.027344;1.005859;0;0;112843;0;0;0
2024-11-05_10-09-08.050604;416697;-188.0;23.375;0.021667;3.15875;95.0;0.012695;0.025391;1.012695;0;0;112963;0;0;0
2024-11-05_10-09-08.206884;416834;-184.0;23.375;0.021667;3.16625;93.0;0.016602;0.027344;1.018555;0;0;113123;0;0;0
2024-11-05_10-09-08.363128;416978;-197.333374;23.375;0.021667;3.1725;97.0;0.021484;0.024414;1.024414;0;0;113273;0;0;0
2024-11-05_10-09-08.519383;417127;-193.333374;23.375;0.021667;3.177917;97.0;0.032227;0.02832;1.036133;0;0;113431;0;0;0
2024-11-05_10-09-08.706883;417264;-190.666626;23.375;0.021667;3.183333;96.0;0.032227;0.027344;1.032227;0;0;113603;0;0;0
2024-11-05_10-09-08.836969;417409;-190.666626;23.375;0.021667;3.18375;96.0;0.040039;0.032227;1.029297;0;0;113752;0;0;0
2024-11-05_10-09-09.005487;417556;-197.333374;23.375;0.022083;3.18875;93.0;0.044922;0.026367;1.049805;0;0;113911;0;0;0
2024-11-05_10-09-09.161751;417694;-205.333374;23.375;0.021667;3.19375;96.0;0.045898;0.030273;1.058594;0;0;114071;0;0;0
2024-11-05_10-09-09.318446;417838;-196.0;23.375;0.021667;3.202917;96.0;0.054688;0.023438;1.064453;0;0;114231;0;0;0
2024-11-05_10-09-09.460883;417984;-193.333374;23.375;0.021667;3.20625;96.0;0.053711;0.017578;1.061523;0;0;114373;0;0;0
2024-11-05_10-09-09.709285;418266;-189.333374;23.375;0.021667;3.220417;97.0;0.063477;0.024414;1.076172;0;0;114623;0;0;0
2024-11-05_10-09-09.787411;418411;-202.666626;23.375;0.021667;0.021667;96.0;0.063477;0.025391;1.073242;0;0;114703;0;0;0
2024-11-05_10-09-10.037594;418548;-189.333374;23.375;0.021667;3.23125;96.0;0.073242;0.017578;1.06543;0;0;114950;0;0;0
2024-11-05_10-09-10.109055;418703;-202.666626;23.375;0.021667;3.232084;97.0;0.071289;0.026367;1.081055;0;0;115015;0;0;0
2024-11-05_10-09-10.241862;418850;-197.333374;23.375;0.021667;3.236667;95.0;0.077148;0.024414;1.083984;0;0;115164;0;0;0
2024-11-05_10-09-10.399540;418991;-202.666626;23.375;0.021667;3.242083;92.0;0.083008;0.020508;1.088867;0;0;115322;0;0;0
2024-11-05_10-09-10.557616;419137;-202.666626;23.375;0.021667;3.249583;96.0;0.088867;0.018555;1.075195;0;0;115473;0;0;0
2024-11-05_10-09-10.714715;419286;-205.333374;23.375;0.021667;3.253333;96.0;0.089844;0.024414;1.069336;0;0;115633;0;0;0
2024-11-05_10-09-10.888123;419428;-197.333374;23.375;0.021667;3.258333;95.0;0.100586;0.022461;1.077148;0;0;115793;0;0;0
2024-11-05_10-09-11.030443;419574;-202.666626;23.375;0.021667;3.26375;96.0;0.09668;0.023438;1.061523;0;0;115943;0;0;0
2024-11-05_10-09-11.171868;419716;-197.333374;23.375;0.021667;3.26875;96.0;0.097656;0.029297;1.044922;0;0;116093;0;0;0
2024-11-05_10-09-11.346007;419856;-197.333374;23.375;0.021667;3.274167;96.0;0.09668;0.021484;1.041016;0;0;116253;0;0;0
2024-11-05_10-09-11.518284;420136;-190.666626;23.375;0.021667;3.284167;94.0;0.098633;0.029297;1.023438;0;0;116431;0;0;0
2024-11-05_10-09-11.644329;420277;-190.666626;23.375;0.021667;3.285;95.0;0.09668;0.027344;0.996094;0;0;116563;0;0;0
2024-11-05_10-09-11.802527;420416;-177.333374;23.375;0.021667;3.29;95.0;0.092773;0.029297;0.988281;0;0;116711;0;0;0
2024-11-05_10-09-12.008710;420557;-184.0;23.375;0.022083;3.295417;97.0;0.09375;0.03125;0.976562;0;0;116923;0;0;0
2024-11-05_10-09-12.103570;420696;-174.666626;23.375;0.021667;3.300833;97.0;0.09375;0.022461;0.97168;0;0;117023;0;0;0
2024-11-05_10-09-12.276962;420835;-184.0;23.375;0.021667;3.30625;97.0;0.092773;0.020508;0.952148;0;0;117181;0;0;0
2024-11-05_10-09-12.450180;420976;-178.666626;23.375;0.021667;3.30625;95.0;0.09082;0.02832;0.958984;0;0;117362;0;0;0
2024-11-05_10-09-12.591424;421116;-177.333374;23.375;3.314167;3.311667;96.0;0.088867;0.038086;0.948242;0;0;117514;0;0;0
2024-11-05_10-09-12.749923;421247;-174.666626;23.375;0.021667;3.316667;96.0;0.089844;0.022461;0.959961;0;0;117664;0;0;0
2024-11-05_10-09-12.907340;421553;-177.333374;23.375;0.021667;3.328334;94.0;0.091797;0.02832;0.942383;0;0;117824;0;0;0
2024-11-05_10-09-13.064987;421702;-177.333374;23.375;0.021667;3.335834;94.0;0.09375;0.030273;0.935547;0;0;117983;0;0;0
2024-11-05_10-09-13.222757;421842;-173.333374;23.375;0.021667;3.338333;95.0;0.09668;0.017578;0.928711;0;0;118143;0;0;0
2024-11-05_10-09-13.380028;421988;-170.666626;23.375;0.021667;3.342083;94.0;0.092773;0.024414;0.927734;0;0;118293;0;0;0
2024-11-05_10-09-13.569486;422137;-180.0;23.375;0.021667;3.344167;96.0;0.091797;0.017578;0.951172;0;0;118460;0;0;0
2024-11-05_10-09-13.694527;422274;-184.0;23.375;0.021667;3.34875;96.0;0.095703;0.022461;0.951172;0;0;118613;0;0;0
2024-11-05_10-09-13.837457;422418;-189.333374;23.375;0.021667;3.354167;94.0;0.09375;0.029297;0.975586;0;0;118763;0;0;0
2024-11-05_10-09-14.010975;422567;-189.333374;23.375;0.021667;3.359584;96.0;0.09668;0.027344;0.990234;0;0;118922;0;0;0
2024-11-05_10-09-14.168445;422704;-190.666626;23.375;0.021667;3.36375;95.0;0.09375;0.024414;1.005859;0;0;119081;0;0;0
2024-11-05_10-09-14.326702;422848;-193.333374;23.375;0.021667;3.367917;95.0;0.095703;0.017578;1.027344;0;0;119241;0;0;0
2024-11-05_10-09-14.483296;423136;-197.333374;23.375;0.021667;3.377917;96.0;0.094727;0.025391;1.058594;0;0;119402;0;0;0
2024-11-05_10-09-14.656657;423276;-193.333374;23.375;0.021667;3.380833;94.0;0.094727;0.032227;1.048828;0;0;119558;0;0;0
2024-11-05_10-09-14.798743;423417;-202.666626;23.375;0.021667;3.38625;96.0;0.099609;0.02832;1.051758;0;0;119713;0;0;0
2024-11-05_10-09-14.956430;423556;-197.333374;23.375;0.021667;3.39125;94.0;0.095703;0.022461;1.040039;0;0;119873;0;0;0
2024-11-05_10-09-15.209210;423842;-193.333374;23.375;0.021667;3.402917;96.0;0.09375;0.020508;1.033203;0;0;120133;0;0;0
2024-11-05_10-09-15.271934;423842;-193.333374;23.375;0.021667;3.402917;96.0;0.09375;0.020508;1.033203;0;0;120183;0;0;0
2024-11-05_10-09-15.429938;423986;-197.333374;23.375;0.021667;3.410834;95.0;0.095703;0.019531;1.038086;0;0;120352;0;0;0
2024-11-05_10-09-15.587841;424141;-196.0;23.375;0.021667;3.410834;99.0;0.094727;0.022461;1.045898;0;0;120503;0;0;0
2024-11-05_10-09-15.746082;424291;-202.666626;23.375;0.021667;3.410834;94.0;0.09375;0.022461;1.043945;0;0;120651;0;0;0
2024-11-05_10-09-15.889171;424438;-201.333374;23.375;0.021667;3.421667;93.0;0.09668;0.017578;1.086914;0;0;120803;0;0;0
2024-11-05_10-09-16.205296;424727;-197.333374;23.375;0.021667;3.427083;94.0;0.09668;0.017578;1.081055;0;0;121108;0;0;0
2024-11-05_10-09-16.348307;425006;-202.666626;23.375;0.021667;3.437917;96.0;0.092773;0.027344;1.09375;0;0;121265;0;0;0
2024-11-05_10-09-16.520051;425144;-197.333374;23.375;0.021667;3.441667;95.0;0.098633;0.029297;1.071289;0;0;121433;0;0;0
2024-11-05_10-09-16.677489;425287;-197.333374;23.375;0.021667;3.443333;96.0;0.091797;0.022461;1.063477;0;0;121590;0;0;0
2024-11-05_10-09-16.868571;425427;-197.333374;23.375;0.021667;3.448334;93.0;0.091797;0.025391;1.056641;0;0;121763;0;0;0
2024-11-05_10-09-16.977684;425566;-197.333374;23.375;0.021667;3.45375;96.0;0.09668;0.026367;1.036133;0;0;121893;0;0;0
2024-11-05_10-09-17.134853;425706;-197.333374;23.375;0.021667;3.458333;94.0;0.092773;0.027344;1.053711;0;0;122053;0;0;0
2024-11-05_10-09-17.292752;425845;-190.666626;23.375;0.021667;3.464584;94.0;0.086914;0.030273;1.033203;0;0;122213;0;0;0
2024-11-05_10-09-17.450451;425986;-188.0;23.375;0.021667;3.464584;97.0;0.09375;0.022461;1.025391;0;0;122361;0;0;0
2024-11-05_10-09-17.608058;426126;-188.0;23.375;0.021667;3.47;94.0;0.092773;0.019531;1.013672;0;0;122521;0;0;0
2024-11-05_10-09-17.765251;426406;-177.333374;23.375;0.02125;3.475417;94.0;0.09082;0.022461;0.961914;0;0;122683;0;0;0
2024-11-05_10-09-17.923245;426554;-177.333374;23.375;0.021667;3.480833;96.0;0.09082;0.027344;0.982422;0;0;122827;0;0;0
2024-11-05_10-09-18.222619;426842;-177.333374;23.375;0.021667;3.491667;92.0;0.083984;0.023438;0.958984;0;0;123139;0;0;0
2024-11-05_10-09-18.396129;426985;-173.333374;23.375;0.021667;3.496667;92.0;0.086914;0.025391;0.957031;0;0;123303;0;0;0
2024-11-05_10-09-18.538654;427131;-177.333374;23.375;0.021667;3.5025;92.0;0.083984;0.026367;0.97168;0;0;123454;0;0;0
2024-11-05_10-09-18.698321;427283;-184.0;23.375;0.021667;3.504583;97.0;0.089844;0.027344;0.988281;0;0;123613;0;0;0
2024-11-05_10-09-18.854682;427426;-190.666626;23.375;0.021667;3.508333;94.0;0.089844;0.023438;0.995117;0;0;123773;0;0;0
2024-11-05_10-09-19.058224;427707;-188.0;23.375;0.021667;3.518333;93.0;0.086914;0.026367;1.010742;0;0;123973;0;0;0
2024-11-05_10-09-19.171893;427707;-188.0;23.375;0.021667;3.518333;93.0;0.086914;0.026367;1.010742;0;0;124081;0;0;0
2024-11-05_10-09-19.326026;427846;-188.0;23.4375;0.021667;3.52375;96.0;0.087891;0.032227;1.03125;0;0;124241;0;0;0
2024-11-05_10-09-19.484046;428126;-193.333374;23.375;0.021667;3.529167;95.0;0.087891;0.027344;1.056641;0;0;124403;0;0;0
2024-11-05_10-09-19.641938;428266;-193.333374;23.375;0.021667;3.534584;93.0;0.092773;0.02832;1.045898;0;0;124563;0;0;0
2024-11-05_10-09-19.800117;428406;-193.333374;23.375;0.021667;3.54;95.0;0.084961;0.029297;1.055664;0;0;124701;0;0;0
2024-11-05_10-09-19.957872;428547;-197.333374;23.375;0.021667;3.542084;93.0;0.087891;0.023438;1.040039;0;0;124872;0;0;0
2024-11-05_10-09-20.098931;428688;-197.333374;23.375;0.021667;3.545417;96.0;0.088867;0.025391;1.032227;0;0;125013;0;0;0
2024-11-05_10-09-20.256494;428834;-190.666626;23.375;0.021667;3.550417;96.0;0.085938;0.024414;1.032227;0;0;125173;0;0;0
2024-11-05_10-09-20.415086;428976;-193.333374;23.375;0.021667;3.55625;95.0;0.086914;0.025391;1.039062;0;0;125333;0;0;0
2024-11-05_10-09-20.582112;429116;-197.333374;23.375;0.021667;3.56;95.0;0.086914;0.025391;1.047852;0;0;125492;0;0;0
2024-11-05_10-09-20.728747;429257;-193.333374;23.375;0.021667;3.56125;97.0;0.088867;0.022461;1.036133;0;0;125643;0;0;0
2024-11-05_10-09-20.887524;429401;-190.666626;23.375;0.021667;3.565;95.0;0.088867;0.018555;1.023438;0;0;125803;0;0;0
2024-11-05_10-09-21.044957;429695;-196.0;23.375;0.021667;3.5725;94.0;0.086914;0.023438;1.03125;0;0;125963;0;0;0
2024-11-05_10-09-21.202359;429838;-193.333374;23.375;0.021667;3.573334;96.0;0.085938;0.024414;1.035156;0;0;126113;0;0;0
2024-11-05_10-09-21.374635;429991;-190.666626;23.375;0.021667;3.5775;98.0;0.086914;0.023438;1.041016;0;0;126281;0;0;0
2024-11-05_10-09-21.537617;430137;-190.666626;23.375;0.021667;3.582916;93.0;0.085938;0.022461;1.038086;0;0;126441;0;0;0
2024-11-05_10-09-21.705611;430277;-189.333374;23.375;0.021667;3.582916;96.0;0.086914;0.024414;1.029297;0;0;126602;0;0;0
2024-11-05_10-09-21.846598;430416;-190.666626;23.375;0.021667;3.588333;93.0;0.085938;0.023438;1.015625;0;0;126762;0;0;0
2024-11-05_10-09-21.972620;430556;-190.666626;23.375;0.021667;3.59375;95.0;0.084961;0.022461;1.014648;0;0;126897;0;0;0
2024-11-05_10-09-22.133443;430695;-190.666626;23.375;0.021667;3.599167;94.0;0.083008;0.025391;1.021484;0;0;127042;0;0;0
2024-11-05_10-09-22.305903;430836;-190.666626;23.375;0.021667;3.604167;93.0;0.082031;0.021484;1.025391;0;0;127211;0;0;0
2024-11-05_10-09-22.462859;430975;-190.666626;23.375;0.022083;3.605833;98.0;0.083984;0.025391;1.041992;0;0;127371;0;0;0
2024-11-05_10-09-22.604214;431256;-196.0;23.375;0.021667;3.615417;96.0;0.087891;0.020508;1.016602;0;0;127523;0;0;0
2024-11-05_10-09-22.793318;431396;-190.666626;23.375;0.021667;3.62;95.0;0.087891;0.026367;1.036133;0;0;127679;0;0;0
2024-11-05_10-09-23.139933;431676;-190.666626;23.375;0.021667;3.63125;95.0;0.083008;0.018555;1.037109;0;0;128062;0;0;0
2024-11-05_10-09-23.298415;431814;-197.333374;23.4375;0.022083;3.63125;96.0;0.084961;0.027344;1.051758;0;0;128213;0;0;0
2024-11-05_10-09-23.582446;432096;-193.333374;23.375;0.021667;3.642083;98.0;0.083984;0.019531;1.012695;0;0;128493;0;0;0
2024-11-05_10-09-23.709079;432251;-190.666626;23.375;0.021667;3.64625;96.0;0.080078;0.023438;1.027344;0;0;128624;0;0;0
2024-11-05_10-09-23.852749;432402;-189.333374;23.375;0.021667;3.6475;98.0;0.079102;0.021484;1.03418;0;0;128771;0;0;0
2024-11-05_10-09-24.024087;432547;-193.333374;23.375;0.021667;3.652917;95.0;0.083008;0.021484;1.041016;0;0;128943;0;0;0
2024-11-05_10-09-24.167301;432690;-190.666626;23.375;0.021667;3.652917;97.0;0.081055;0.019531;1.03125;0;0;129084;0;0;0
2024-11-05_10-09-24.327895;432974;-193.333374;23.375;0.021667;3.66375;96.0;0.080078;0.023438;1.029297;0;0;129243;0;0;0
2024-11-05_10-09-24.497408;433118;-193.333374;23.375;0.021667;3.66375;96.0;0.081055;0.024414;1.021484;0;0;129412;0;0;0
2024-11-05_10-09-24.654287;433267;-197.333374;23.375;0.021667;3.669167;96.0;0.080078;0.025391;1.040039;0;0;129572;0;0;0
2024-11-05_10-09-24.795816;433404;-189.333374;23.375;0.021667;3.674167;94.0;0.079102;0.022461;1.035156;0;0;129721;0;0;0
2024-11-05_10-09-25.000956;433548;-189.333374;23.375;0.021667;3.68;96.0;0.083008;0.022461;1.046875;0;0;129901;0;0;0
2024-11-05_10-09-25.142833;433696;-193.333374;23.375;0.021667;3.68;94.0;0.084961;0.020508;1.040039;0;0;130051;0;0;0
2024-11-05_10-09-25.300000;433834;-190.666626;23.375;0.021667;3.68625;97.0;0.083984;0.018555;1.007812;0;0;130211;0;0;0
2024-11-05_10-09-25.425928;433978;-193.333374;23.375;0.021667;3.690417;94.0;0.082031;0.024414;1.022461;0;0;130343;0;0;0
2024-11-05_10-09-25.583270;434124;-193.333374;23.375;0.022083;3.695834;95.0;0.078125;0.019531;1.022461;0;0;130503;0;0;0
2024-11-05_10-09-25.741004;434266;-190.666626;23.375;0.021667;3.695834;94.0;0.080078;0.017578;1.036133;0;0;130653;0;0;0
2024-11-05_10-09-25.898828;434406;-193.333374;23.4375;0.021667;3.701667;95.0;0.083984;0.019531;1.038086;0;0;130802;0;0;0
2024-11-05_10-09-26.072026;434686;-193.333374;23.375;0.021667;3.712084;99.0;0.078125;0.020508;1.032227;0;0;130992;0;0;0
2024-11-05_10-09-26.198414;434832;-193.333374;23.375;0.021667;3.716666;97.0;0.079102;0.021484;1.058594;0;0;131124;0;0;0
2024-11-05_10-09-26.372311;434968;-190.666626;23.375;3.716666;3.719584;98.0;0.081055;0.021484;1.045898;0;0;131293;0;0;0
2024-11-05_10-09-26.529979;435100;-193.333374;23.4375;0.021667;3.7225;95.0;0.083984;0.024414;1.03125;0;0;131443;0;0;0
2024-11-05_10-09-26.688075;435247;-190.666626;23.4375;0.021667;3.72375;97.0;0.079102;0.023438;1.015625;0;0;131603;0;0;0
2024-11-05_10-09-26.845752;435394;-193.333374;23.375;0.021667;3.729584;96.0;0.081055;0.024414;1.041992;0;0;131763;0;0;0
2024-11-05_10-09-27.008171;435536;-193.333374;23.375;0.021667;3.73375;96.0;0.079102;0.022461;1.056641;0;0;131923;0;0;0
2024-11-05_10-09-27.130172;435674;-190.666626;23.375;0.021667;3.73875;96.0;0.077148;0.019531;1.045898;0;0;132052;0;0;0
2024-11-05_10-09-27.319366;435818;-190.666626;23.375;0.021667;3.740417;94.0;0.079102;0.021484;1.033203;0;0;132213;0;0;0
2024-11-05_10-09-27.460736;436104;-193.333374;23.375;0.022083;3.7525;93.0;0.079102;0.021484;1.019531;0;0;132372;0;0;0
2024-11-05_10-09-27.635202;436248;-193.333374;23.375;0.022083;3.7525;96.0;0.075195;0.019531;1.049805;0;0;132541;0;0;0
2024-11-05_10-09-27.792486;436394;-202.666626;23.4375;0.021667;3.757917;95.0;0.076172;0.025391;1.058594;0;0;132701;0;0;0
2024-11-05_10-09-27.934717;436537;-206.666626;23.375;0.021667;3.763334;96.0;0.081055;0.017578;1.086914;0;0;132851;0;0;0
2024-11-05_10-09-28.108187;436676;-218.666626;23.375;0.021667;3.768333;97.0;0.081055;0.023438;1.168945;0;0;133022;0;0;0
2024-11-05_10-09-28.251495;436816;-233.333374;23.375;0.021667;3.77375;96.0;0.080078;0.017578;1.233398;0;0;133163;0;0;0
2024-11-05_10-09-28.408060;436959;-246.666626;23.4375;0.021667;3.775833;94.0;0.09082;0.019531;1.362305;0;0;133323;0;0;0
2024-11-05_10-09-28.737688;437384;-294.666626;23.375;0.021667;3.79;96.0;0.108398;0.015625;1.671875;0;0;133653;0;0;0
2024-11-05_10-09-29.052198;437682;-324.0;23.375;0.021667;3.795;96.0;0.121094;0.013672;1.804688;0;0;133963;0;0;0
2024-11-05_10-09-29.189517;437833;-329.333374;23.375;0.021667;3.800417;95.0;0.123047;0.012695;1.858398;0;0;134093;0;0;0
2024-11-05_10-09-29.336094;437976;-333.333374;23.375;3.800417;3.805834;95.0;0.130859;0.014648;1.878906;0;0;134253;0;0;0
2024-11-05_10-09-29.493795;438127;-333.333374;23.375;0.021667;3.805834;95.0;0.131836;0.009766;1.893555;0;0;134412;0;0;0
2024-11-05_10-09-29.917946;438547;-332.0;23.4375;0.021667;3.818334;95.0;0.128906;0.014648;1.878906;0;0;134809;0;0;0
2024-11-05_10-09-29.997002;438547;-332.0;23.4375;0.021667;3.818334;95.0;0.128906;0.014648;1.878906;0;0;134904;0;0;0
2024-11-05_10-09-30.313656;438964;-313.333374;23.375;0.021667;3.827084;94.0;0.125977;0.019531;1.805664;0;0;135233;0;0;0
2024-11-05_10-09-30.438538;438964;-313.333374;23.375;0.021667;3.827084;94.0;0.125977;0.019531;1.805664;0;0;135353;0;0;0
2024-11-05_10-09-30.596038;439246;-309.333374;23.375;0.021667;3.835834;96.0;0.12207;0.017578;1.789062;0;0;135513;0;0;0
2024-11-05_10-09-30.753643;439386;-309.333374;23.375;0.021667;3.840834;97.0;0.118164;0.016602;1.758789;0;0;135673;0;0;0
2024-11-05_10-09-30.911570;439526;-312.0;23.4375;0.021667;3.847084;95.0;0.119141;0.017578;1.757812;0;0;135822;0;0;0
2024-11-05_10-09-31.100955;439667;-309.333374;23.375;0.021667;3.847917;97.0;0.118164;0.011719;1.766602;0;0;136001;0;0;0
2024-11-05_10-09-31.227132;439806;-312.0;23.375;0.021667;3.849167;96.0;0.115234;0.017578;1.78418;0;0;136152;0;0;0
2024-11-05_10-09-31.384983;439946;-324.0;23.375;0.021667;3.853333;97.0;0.118164;0.013672;1.8125;0;0;136303;0;0;0
2024-11-05_10-09-31.542600;440086;-329.333374;23.375;0.021667;3.854167;96.0;0.12207;0.015625;1.841797;0;0;136464;0;0;0
2024-11-05_10-09-31.700163;440231;-329.333374;23.4375;0.021667;3.85875;96.0;0.124023;0.015625;1.842773;0;0;136614;0;0;0
2024-11-05_10-09-31.857689;440377;-333.333374;23.4375;3.869584;3.864167;95.0;0.128906;0.013672;1.871094;0;0;136773;0;0;0
2024-11-05_10-09-32.015033;440525;-336.0;23.375;0.022083;3.869584;94.0;0.129883;0.018555;1.884766;0;0;136934;0;0;0
2024-11-05_10-09-32.189303;440817;-340.0;23.4375;0.021667;3.875;96.0;0.129883;0.009766;1.90625;0;0;137091;0;0;0
2024-11-05_10-09-32.463003;441097;-334.666626;23.375;0.021667;3.885;96.0;0.131836;0.012695;1.884766;0;0;137376;0;0;0
2024-11-05_10-09-32.630068;441236;-329.333374;23.4375;0.021667;3.890417;97.0;0.128906;0.011719;1.875;0;0;137532;0;0;0
2024-11-05_10-09-32.786780;441377;-324.0;23.375;0.022083;3.8925;95.0;0.131836;0.014648;1.859375;0;0;137692;0;0;0
2024-11-05_10-09-32.960616;441516;-322.666626;23.375;0.021667;3.895833;95.0;0.126953;0.012695;1.837891;0;0;137861;0;0;0
2024-11-05_10-09-33.102871;441656;-313.333374;23.375;0.021667;3.899167;97.0;0.125;0.011719;1.813477;0;0;138013;0;0;0
2024-11-05_10-09-33.296811;441796;-313.333374;23.375;0.021667;3.90125;96.0;0.12793;0.017578;1.793945;0;0;138194;0;0;0
2024-11-05_10-09-33.417614;442076;-313.333374;23.4375;0.021667;3.90625;94.0;0.121094;0.013672;1.78418;0;0;138333;0;0;0
2024-11-05_10-09-33.574764;442217;-313.333374;23.4375;0.021667;3.911667;97.0;0.124023;0.014648;1.789062;0;0;138493;0;0;0
2024-11-05_10-09-33.897099;442496;-312.0;23.375;0.021667;3.9225;96.0;0.126953;0.015625;1.795898;0;0;138809;0;0;0
2024-11-05_10-09-34.068828;442635;-312.0;23.375;0.021667;3.925417;96.0;0.129883;0.018555;1.810547;0;0;138971;0;0;0
2024-11-05_10-09-34.222429;442776;-313.333374;23.375;0.021667;3.927917;94.0;0.125;0.018555;1.808594;0;0;139133;0;0;0
2024-11-05_10-09-34.348036;442916;-328.0;23.4375;0.021667;3.929167;95.0;0.129883;0.022461;1.834961;0;0;139263;0;0;0
2024-11-05_10-09-34.505188;443068;-329.333374;23.375;3.932917;3.932917;96.0;0.128906;0.011719;1.833984;0;0;139425;0;0;0
2024-11-05_10-09-34.677036;443192;-329.333374;23.4375;0.021667;3.933334;95.0;0.134766;0.017578;1.839844;0;0;139584;0;0;0
2024-11-05_10-09-34.819259;443332;-326.666626;23.375;0.021667;3.94375;95.0;0.134766;0.020508;1.835938;0;0;139743;0;0;0
2024-11-05_10-09-34.975785;443628;-326.666626;23.375;0.021667;3.94375;96.0;0.132812;0.011719;1.855469;0;0;139893;0;0;0
2024-11-05_10-09-35.118798;443776;-333.333374;23.375;0.021667;3.949583;95.0;0.137695;0.015625;1.867188;0;0;140043;0;0;0
2024-11-05_10-09-35.352935;443918;-324.0;23.4375;0.021667;3.954167;96.0;0.135742;0.012695;1.862305;0;0;140263;0;0;0
2024-11-05_10-09-35.467161;444064;-316.0;23.375;0.021667;3.959583;94.0;0.132812;0.006836;1.837891;0;0;140370;0;0;0
2024-11-05_10-09-35.605208;444207;-328.0;23.375;0.021667;3.965;95.0;0.139648;0.014648;1.822266;0;0;140529;0;0;0
2024-11-05_10-09-35.887309;444486;-326.666626;23.375;0.021667;3.970417;97.0;0.137695;0.015625;1.833984;0;0;140799;0;0;0
2024-11-05_10-09-36.080565;444625;-333.333374;23.4375;0.021667;3.970417;94.0;0.137695;0.018555;1.839844;0;0;140993;0;0;0
2024-11-05_10-09-36.232463;444766;-333.333374;23.375;0.021667;3.975417;94.0;0.136719;0.012695;1.817383;0;0;141153;0;0;0
2024-11-05_10-09-36.389185;444904;-326.666626;23.4375;0.021667;3.977083;95.0;0.140625;0.006836;1.850586;0;0;141303;0;0;0
2024-11-05_10-09-36.549783;445048;-326.666626;23.4375;0.021667;3.980834;95.0;0.139648;0.009766;1.830078;0;0;141451;0;0;0
2024-11-05_10-09-36.720199;445334;-324.0;23.375;0.021667;3.99;94.0;0.144531;0.02832;1.819336;0;0;141621;0;0;0
2024-11-05_10-09-36.864295;445478;-329.333374;23.4375;0.021667;3.991667;95.0;0.141602;0.026367;1.838867;0;0;141771;0;0;0
2024-11-05_10-09-37.019852;445633;-326.666626;23.4375;0.021667;3.996667;97.0;0.143555;0.029297;1.833984;0;0;141942;0;0;0
2024-11-05_10-09-37.160995;445776;-326.666626;23.4375;0.021667;3.998334;97.0;0.145508;0.021484;1.835938;0;0;142073;0;0;0
2024-11-05_10-09-37.348876;445930;-333.333374;23.375;0.021667;4.003334;97.0;0.147461;0.020508;1.861328;0;0;142263;0;0;0
2024-11-05_10-09-37.493415;446085;-332.0;23.375;0.021667;4.007083;98.0;0.147461;0.017578;1.844727;0;0;142393;0;0;0
2024-11-05_10-09-37.632395;446234;-324.0;23.4375;0.021667;4.008334;96.0;0.147461;0.019531;1.842773;0;0;142553;0;0;0
2024-11-05_10-09-37.804728;446374;-324.0;23.375;0.021667;4.012917;96.0;0.146484;0.017578;1.839844;0;0;142713;0;0;0
2024-11-05_10-09-37.946015;446519;-332.0;23.4375;0.022083;4.017917;95.0;0.150391;0.024414;1.84082;0;0;142862;0;0;0
2024-11-05_10-09-38.103809;446666;-324.0;23.4375;0.021667;4.018333;97.0;0.149414;0.020508;1.860352;0;0;143022;0;0;0
2024-11-05_10-09-38.276812;446804;-324.0;23.4375;0.021667;4.023333;96.0;0.146484;0.03125;1.827148;0;0;143181;0;0;0
2024-11-05_10-09-38.418494;446948;-317.333374;23.4375;0.021667;4.025;95.0;0.15332;0.019531;1.810547;0;0;143341;0;0;0
2024-11-05_10-09-38.606744;447234;-333.333374;23.4375;0.021667;4.034167;96.0;0.154297;0.014648;1.878906;0;0;143500;0;0;0
2024-11-05_10-09-38.732426;447378;-324.0;23.4375;0.022083;4.039167;96.0;0.161133;0.014648;1.868164;0;0;143653;0;0;0
2024-11-05_10-09-38.906845;447524;-336.0;23.4375;0.021667;4.044584;97.0;0.157227;0.005859;1.848633;0;0;143808;0;0;0
2024-11-05_10-09-39.047764;447666;-333.333374;23.4375;0.021667;4.045;94.0;0.157227;0.009766;1.84668;0;0;143963;0;0;0
2024-11-05_10-09-39.205020;447806;-336.0;23.375;0.021667;4.0475;96.0;0.160156;0.011719;1.838867;0;0;144123;0;0;0
2024-11-05_10-09-39.362250;447947;-329.333374;23.375;0.021667;4.05;96.0;0.157227;0.004883;1.867188;0;0;144283;0;0;0
2024-11-05_10-09-39.520339;448086;-333.333374;23.4375;0.021667;4.05125;95.0;0.161133;0.003906;1.844727;0;0;144442;0;0;0
2024-11-05_10-09-39.722304;448226;-332.0;23.375;0.021667;4.055;98.0;0.162109;0.012695;1.84082;0;0;144632;0;0;0
2024-11-05_10-09-39.847835;448383;-313.333374;23.375;0.021667;4.060417;97.0;0.158203;0.011719;1.835938;0;0;144762;0;0;0
2024-11-05_10-09-40.004600;448529;-316.0;23.375;0.022083;4.06;94.0;0.160156;0.006836;1.824219;0;0;144899;0;0;0
2024-11-05_10-09-40.129825;448679;-324.0;23.375;0.021667;4.065417;96.0;0.161133;0.013672;1.818359;0;0;145044;0;0;0
2024-11-05_10-09-40.303436;448820;-324.0;23.4375;0.021667;4.069583;96.0;0.162109;0.013672;1.826172;0;0;145212;0;0;0
2024-11-05_10-09-40.444773;448967;-326.666626;23.375;0.022083;4.070834;95.0;0.161133;0.012695;1.821289;0;0;145363;0;0;0
2024-11-05_10-09-40.602058;449108;-316.0;23.4375;0.021667;4.069583;96.0;0.166992;0.016602;1.821289;0;0;145511;0;0;0
2024-11-05_10-09-40.743517;449394;-313.333374;23.4375;0.021667;4.065417;97.0;0.165039;0.008789;1.814453;0;0;145663;0;0;0
2024-11-05_10-09-40.963433;449538;-314.666626;23.4375;0.021667;4.065417;97.0;0.167969;0.018555;1.8125;0;0;145883;0;0;0
2024-11-05_10-09-41.124150;449686;-316.0;23.4375;0.021667;4.060833;96.0;0.167969;0.013672;1.807617;0;0;146011;0;0;0
2024-11-05_10-09-41.231061;449824;-313.333374;23.4375;0.021667;4.060417;94.0;0.164062;0.011719;1.820312;0;0;146142;0;0;0
2024-11-05_10-09-41.466561;449969;-313.333374;23.4375;0.021667;4.060417;96.0;0.168945;0.016602;1.796875;0;0;146370;0;0;0
2024-11-05_10-09-41.561136;450116;-324.0;23.4375;0.021667;4.06;95.0;0.166992;0.013672;1.787109;0;0;146471;0;0;0
2024-11-05_10-09-41.719201;450254;-309.333374;23.4375;0.022083;4.060417;97.0;0.169922;0.008789;1.793945;0;0;146631;0;0;0
2024-11-05_10-09-41.860670;450399;-313.333374;23.4375;0.021667;4.06;95.0;0.169922;0.008789;1.786133;0;0;146773;0;0;0
2024-11-05_10-09-42.018015;450544;-326.666626;23.4375;0.021667;4.060417;97.0;0.175781;0.007812;1.793945;0;0;146933;0;0;0
2024-11-05_10-09-42.180941;450826;-324.0;23.4375;0.021667;4.055;93.0;0.175781;0.008789;1.80957;0;0;147093;0;0;0
2024-11-05_10-09-42.457669;450967;-322.666626;23.4375;0.021667;4.055;97.0;0.178711;0.007812;1.798828;0;0;147353;0;0;0
2024-11-05_10-09-42.662781;451255;-324.0;23.4375;0.021667;4.055;93.0;0.181641;0.013672;1.821289;0;0;147573;0;0;0
2024-11-05_10-09-42.819464;451389;-326.666626;23.4375;0.021667;4.055;99.0;0.183594;0.014648;1.835938;0;0;147733;0;0;0
2024-11-05_10-09-42.992888;451540;-336.0;23.4375;0.021667;4.055;94.0;0.185547;0.018555;1.848633;0;0;147902;0;0;0
2024-11-05_10-09-43.118112;451680;-332.0;23.4375;0.022083;4.05375;97.0;0.189453;0.020508;1.862305;0;0;148033;0;0;0
2024-11-05_10-09-43.322623;451828;-333.333374;23.375;0.021667;4.05;94.0;0.1875;0.017578;1.861328;0;0;148230;0;0;0
2024-11-05_10-09-43.432506;451974;-333.333374;23.375;0.021667;4.049584;95.0;0.189453;0.020508;1.861328;0;0;148353;0;0;0
2024-11-05_10-09-43.590150;452116;-333.333374;23.375;0.021667;4.049584;94.0;0.191406;0.020508;1.839844;0;0;148502;0;0;0
2024-11-05_10-09-43.746537;452397;-326.666626;23.4375;0.021667;4.049584;95.0;0.189453;0.017578;1.816406;0;0;148663;0;0;0
2024-11-05_10-09-43.919209;452536;-326.666626;23.4375;0.021667;4.05;96.0;0.185547;0.022461;1.825195;0;0;148831;0;0;0
2024-11-05_10-09-44.122768;452677;-316.0;23.4375;0.021667;4.049584;95.0;0.19043;0.024414;1.842773;0;0;149043;0;0;0
2024-11-05_10-09-44.232529;452814;-313.333374;23.375;0.021667;4.049584;96.0;0.193359;0.015625;1.84375;0;0;149142;0;0;0
2024-11-05_10-09-44.452670;453106;-308.0;23.4375;0.021667;4.044584;95.0;0.185547;0.019531;1.737305;0;0;149373;0;0;0
2024-11-05_10-09-44.530999;453106;-308.0;23.4375;0.021667;4.044584;95.0;0.185547;0.019531;1.737305;0;0;149453;0;0;0
2024-11-05_10-09-44.688908;453246;-312.0;23.4375;0.021667;4.044167;96.0;0.1875;0.0;1.726562;0;0;149602;0;0;0
2024-11-05_10-09-44.940600;453524;-308.0;23.4375;0.021667;4.044584;93.0;0.188477;0.011719;1.726562;0;0;149825;0;0;0
2024-11-05_10-09-45.003681;453524;-308.0;23.4375;0.021667;4.044584;93.0;0.188477;0.011719;1.726562;0;0;149911;0;0;0
2024-11-05_10-09-45.161181;453667;-300.0;23.4375;0.022083;4.044584;96.0;0.194336;0.015625;1.720703;0;0;150073;0;0;0
2024-11-05_10-09-45.302249;453806;-298.666626;23.4375;0.021667;4.044167;95.0;0.1875;0.011719;1.68457;0;0;150223;0;0;0
2024-11-05_10-09-45.631748;454263;-309.333374;23.4375;0.021667;4.044584;94.0;0.201172;0.029297;1.72168;0;0;150553;0;0;0
2024-11-05_10-09-45.757321;454407;-305.333374;23.4375;0.021667;4.044167;96.0;0.197266;0.018555;1.705078;0;0;150679;0;0;0
2024-11-05_10-09-45.929584;454556;-302.666626;23.4375;0.021667;4.039167;93.0;0.202148;0.013672;1.706055;0;0;150843;0;0;0
2024-11-05_10-09-46.103119;454698;-302.666626;23.4375;0.022083;4.039167;97.0;0.198242;0.008789;1.701172;0;0;151006;0;0;0
2024-11-05_10-09-46.229064;454847;-300.0;23.4375;0.021667;4.039167;96.0;0.208984;0.014648;1.717773;0;0;151153;0;0;0
2024-11-05_10-09-46.402714;454984;-298.666626;23.4375;0.021667;4.039167;96.0;0.199219;0.012695;1.688477;0;0;151323;0;0;0
2024-11-05_10-09-46.559997;455128;-293.333374;23.4375;0.021667;4.039167;96.0;0.202148;0.030273;1.668945;0;0;151472;0;0;0
2024-11-05_10-09-46.905659;455417;-290.666626;23.4375;0.021667;4.039167;95.0;0.196289;0.03418;1.634766;0;0;151813;0;0;0
2024-11-05_10-09-47.190030;455697;-293.333374;23.4375;0.021667;4.039167;96.0;0.197266;0.022461;1.580078;0;0;152087;0;0;0
2024-11-05_10-09-47.346772;455977;-274.666626;23.4375;0.021667;4.039167;95.0;0.191406;0.022461;1.522461;0;0;152263;0;0;0
2024-11-05_10-09-47.480538;456114;-270.666626;23.4375;0.021667;4.038333;97.0;0.185547;0.017578;1.511719;0;0;152393;0;0;0
2024-11-05_10-09-47.644910;456258;-264.0;23.4375;0.021667;4.034584;95.0;0.175781;0.018555;1.487305;0;0;152562;0;0;0
2024-11-05_10-09-47.801397;456407;-264.0;23.4375;0.021667;4.03375;95.0;0.169922;0.015625;1.489258;0;0;152723;0;0;0
2024-11-05_10-09-47.975046;456558;-270.666626;23.4375;0.021667;4.03375;96.0;0.166992;0.010742;1.479492;0;0;152893;0;0;0
2024-11-05_10-09-48.116012;456716;-262.666626;23.4375;0.021667;4.03375;97.0;0.163086;0.015625;1.485352;0;0;153033;0;0;0
2024-11-05_10-09-48.273354;456865;-245.333374;23.4375;0.021667;4.03375;98.0;0.151367;0.014648;1.451172;0;0;153178;0;0;0
2024-11-05_10-09-48.414394;457008;-241.333374;23.4375;0.021667;4.034167;98.0;0.141602;0.012695;1.400391;0;0;153337;0;0;0
2024-11-05_10-09-48.575381;457141;-229.333374;23.4375;0.021667;4.03375;95.0;0.12793;0.011719;1.314453;0;0;153493;0;0;0
2024-11-05_10-09-48.760672;457286;-210.666626;23.4375;0.021667;4.03375;96.0;0.116211;0.013672;1.246094;0;0;153661;0;0;0
2024-11-05_10-09-48.932539;457566;-202.666626;23.4375;0.021667;4.034167;94.0;0.083984;0.016602;1.068359;0;0;153840;0;0;0
2024-11-05_10-09-49.058073;457706;-170.666626;23.4375;0.021667;4.03375;95.0;0.067383;0.013672;0.950195;0;0;153973;0;0;0
2024-11-05_10-09-49.215749;457846;-154.666626;23.4375;0.021667;4.03375;94.0;0.054688;0.019531;0.861328;0;0;154133;0;0;0
2024-11-05_10-09-49.481882;457986;-137.333374;23.4375;0.021667;4.03375;95.0;0.041992;0.022461;0.768555;-60000;-60000;154364;0;0;0
2024-11-05_10-09-49.591285;458126;-133.333374;23.4375;0.02625;4.034167;94.0;0.033203;0.015625;0.652344;-60000;-60000;154480;0;0;0
2024-11-05_10-09-49.701276;458266;-116.0;23.4375;0.051667;4.032917;88.0;0.025391;0.019531;0.545898;20000;20000;154603;1;0;0
2024-11-05_10-09-49.857591;458406;-96.0;23.4375;0.14375;4.030417;94.0;0.014648;0.027344;0.4375;20000;20000;154763;1;0;0
2024-11-05_10-09-50.014471;458546;-84.0;23.4375;0.149583;4.030834;95.0;0.011719;0.020508;0.395508;20000;20000;154921;0;0;0
2024-11-05_10-09-50.182650;458686;-76.0;23.375;0.312083;4.032917;96.0;0.007812;0.024414;0.310547;20000;20000;155081;0;0;0
2024-11-05_10-09-50.313535;458966;-58.666626;23.4375;0.1025;4.043334;97.0;0.00293;0.019531;0.214844;20000;20000;155233;0;0;0
2024-11-05_10-09-50.487127;459106;-53.333374;23.375;0.12;4.030417;94.0;0.001953;0.015625;0.1875;20000;20000;155393;0;0;0
2024-11-05_10-09-50.628344;459248;-50.666626;23.4375;0.051667;4.02875;94.0;0.001953;0.018555;0.173828;20000;20000;155540;0;0;0
2024-11-05_10-09-50.774505;459396;-50.666626;23.4375;4.028333;4.02875;96.0;0.000977;0.019531;0.15625;20000;20000;155683;0;0;0
2024-11-05_10-09-50.941704;459528;-50.666626;23.4375;0.021667;4.02875;97.0;0.001953;0.024414;0.116211;20000;20000;155843;0;0;0
2024-11-05_10-09-51.099062;459682;-34.666626;23.4375;0.021667;4.02875;97.0;-0.000977;0.025391;0.09375;20000;20000;156003;0;0;0
2024-11-05_10-09-51.260930;459835;-41.333374;23.4375;0.021667;4.02875;96.0;0.0;0.021484;0.106445;20000;20000;156163;0;0;0
2024-11-05_10-09-51.397871;459976;-38.666626;23.4375;0.021667;4.02875;96.0;-0.001953;0.023438;0.079102;20000;20000;156313;0;0;0
2024-11-05_10-09-51.558019;460115;-34.666626;23.4375;0.021667;4.028333;96.0;0.0;0.019531;0.085938;60000;60000;160;0;0;0
2024-11-05_10-09-51.726784;460256;-18.666626;23.4375;0.021667;4.029167;97.0;-0.00293;0.024414;0.074219;60000;60000;329;0;0;0
2024-11-05_10-09-51.884063;460396;-18.666626;23.4375;0.04625;4.028333;108.0;-0.000977;0.020508;0.083984;60000;60000;489;0;0;0
2024-11-05_10-09-52.025575;460676;-25.333374;23.4375;0.085417;4.035417;125.0;-0.005859;0.021484;0.071289;60000;60000;641;0;0;0
2024-11-05_10-09-52.198667;460816;-22.666626;23.4375;0.117917;4.02875;136.0;-0.005859;0.021484;0.070312;60000;60000;801;0;0;0
2024-11-05_10-09-52.339778;460956;-22.666626;23.4375;0.109167;4.029583;147.0;-0.004883;0.017578;0.079102;60000;60000;950;0;0;0
2024-11-05_10-09-52.497736;461097;-17.333374;23.4375;0.089583;4.03875;156.0;-0.004883;0.024414;0.067383;60000;60000;1109;0;0;0
2024-11-05_10-09-52.669106;461236;-22.666626;23.4375;0.13375;4.035417;165.0;-0.001953;0.020508;0.067383;60000;60000;1280;0;0;0
2024-11-05_10-09-52.810469;461376;-22.666626;23.4375;0.08625;4.02625;173.0;-0.004883;0.021484;0.063477;60000;60000;1421;0;0;0
2024-11-05_10-09-53.014418;461515;-20.0;23.4375;0.125833;4.02625;187.0;-0.004883;0.019531;0.068359;60000;60000;1591;0;0;0
2024-11-05_10-09-53.186638;461794;-20.0;23.4375;0.108333;4.0225;207.0;-0.005859;0.026367;0.042969;50000;50000;1788;0;0;0
2024-11-05_10-09-53.296640;461934;-17.333374;23.4375;0.145833;4.032917;211.0;-0.008789;0.026367;0.041016;39999;39999;1901;0;0;0
2024-11-05_10-09-53.454064;462075;-21.333374;23.4375;4.102084;4.094584;217.0;-0.006836;0.026367;0.038086;20000;20000;2071;0;0;0
2024-11-05_10-09-53.626746;462224;-18.666626;23.4375;0.590417;4.01375;221.0;-0.007812;0.026367;0.029297;0;0;2231;0;0;0
2024-11-05_10-09-53.768442;462383;-16.0;23.4375;0.857917;4.020417;223.0;-0.008789;0.02832;0.03125;-19999;-19999;2371;0;0;0
2024-11-05_10-09-53.910022;462533;-13.333374;23.4375;0.8025;3.893334;216.0;-0.005859;0.025391;0.033203;-40000;-40000;2521;0;2;0
2024-11-05_10-09-54.052605;462683;8.0;23.4375;0.75875;3.837917;211.0;-0.009766;0.030273;0.023438;-60000;-60000;2656;0;0;0
2024-11-05_10-09-54.254731;462816;21.333374;23.4375;0.814583;3.832083;203.0;-0.005859;0.030273;0.018555;-60000;-60000;2850;0;0;0
2024-11-05_10-09-54.380148;462954;65.333252;23.4375;0.880833;3.833334;190.0;-0.007812;0.03125;0.014648;-60000;-60000;2981;0;0;0
2024-11-05_10-09-54.537347;463097;100.0;23.4375;0.917917;3.827084;182.0;-0.004883;0.033203;0.007812;-60000;-60000;3141;0;0;0
2024-11-05_10-09-54.694975;463241;156.0;23.4375;0.961667;3.827917;170.0;-0.008789;0.032227;0.009766;-60000;-60000;3301;0;0;0
2024-11-05_10-09-54.883321;463527;237.333252;23.4375;0.969167;3.82125;148.0;-0.009766;0.033203;0.0;-60000;-60000;3491;0;0;0
2024-11-05_10-09-55.008848;463527;237.333252;23.4375;0.969167;3.82125;148.0;-0.009766;0.033203;0.0;-60000;-60000;3599;0;0;0
2024-11-05_10-09-55.260506;463807;153.333252;23.4375;0.970417;3.819584;128.0;-0.008789;0.030273;0.001953;-60000;-60000;3873;0;0;0
2024-11-05_10-09-55.495784;464087;186.666748;23.4375;0.7725;3.821667;112.0;-0.009766;0.03125;0.013672;-60000;-60000;4088;0;0;0
2024-11-05_10-09-55.636895;464224;130.666748;23.4375;0.673333;3.818334;102.0;-0.013672;0.03125;0.016602;-60000;-60000;4239;0;0;0
2024-11-05_10-09-55.777483;464358;4.0;23.4375;0.632083;3.825;95.0;-0.011719;0.032227;0.019531;20000;20000;4391;1;0;0
2024-11-05_10-09-55.952976;464504;-4.0;23.4375;0.790417;4.060417;93.0;-0.013672;0.032227;0.022461;20000;20000;4553;0;0;0
2024-11-05_10-09-56.092242;464652;-1.333374;23.4375;0.690833;4.03875;95.0;-0.014648;0.032227;0.016602;20000;20000;4697;0;0;0
2024-11-05_10-09-56.248538;464802;-5.333374;23.4375;0.265833;3.825417;95.0;-0.009766;0.02832;0.030273;20000;20000;4862;0;0;0
2024-11-05_10-09-56.640291;465244;-13.333374;23.4375;0.040833;3.82125;96.0;-0.012695;0.029297;0.026367;20000;20000;5230;0;0;0
2024-11-05_10-09-56.750156;465388;-5.333374;23.4375;0.02125;3.821667;96.0;-0.012695;0.030273;0.036133;20000;20000;5361;0;0;0
2024-11-05_10-09-57.000339;465534;-13.333374;23.4375;0.021667;3.821667;95.0;-0.011719;0.030273;0.036133;20000;20000;5604;0;0;0
2024-11-05_10-09-57.200603;465814;-10.666626;23.4375;0.021667;3.821667;94.0;-0.012695;0.03125;0.041016;60000;60000;50;0;2;0
2024-11-05_10-09-57.408881;465956;-5.333374;23.4375;0.04;3.822083;100.0;-0.014648;0.032227;0.036133;60000;60000;274;0;0;0
2024-11-05_10-09-57.518262;466094;-13.333374;23.4375;0.04625;3.821667;113.0;-0.010742;0.035156;0.025391;60000;60000;379;0;0;0
2024-11-05_10-09-57.691308;466236;-4.0;23.4375;0.041667;3.825;121.0;-0.015625;0.036133;0.023438;60000;60000;538;0;0;0
2024-11-05_10-09-57.832691;466372;-16.0;23.4375;0.083333;3.832917;127.0;-0.018555;0.038086;0.038086;60000;60000;680;0;0;0
2024-11-05_10-09-57.989400;466519;-13.333374;23.4375;0.101667;3.834583;140.0;-0.014648;0.03418;0.036133;60000;60000;840;0;0;0
2024-11-05_10-09-58.133267;466666;-13.333374;23.4375;0.122083;3.82875;150.0;-0.013672;0.03418;0.029297;60000;60000;990;0;0;0
2024-11-05_10-09-58.302886;466946;-16.0;23.4375;0.07;3.8275;169.0;-0.009766;0.029297;0.042969;60000;60000;1150;0;0;0
2024-11-05_10-09-58.466223;467084;-17.333374;23.4375;0.054167;3.832917;179.0;-0.009766;0.030273;0.040039;60000;60000;1310;0;0;0
2024-11-05_10-09-58.601284;467226;-18.666626;23.4375;0.051667;3.82875;191.0;-0.009766;0.029297;0.036133;60000;60000;1470;0;0;0
2024-11-05_10-09-58.758229;467369;-20.0;23.4375;0.0575;3.827084;198.0;-0.013672;0.029297;0.035156;60000;60000;1613;0;0;0
2024-11-05_10-09-59.056808;467665;-25.333374;23.4375;3.828334;3.828334;224.0;-0.010742;0.026367;0.038086;39999;39999;1902;0;0;0
2024-11-05_10-09-59.229973;467793;-30.666626;23.4375;0.18375;3.832917;226.0;-0.011719;0.035156;0.023438;20000;20000;2101;0;2;0
2024-11-05_10-09-59.387098;467931;-32.0;23.4375;0.29875;3.699584;230.0;-0.010742;0.03125;0.009766;0;0;2250;0;0;0
2024-11-05_10-09-59.669875;468228;-30.666626;23.4375;0.820833;3.680417;228.0;-0.011719;0.035156;0.017578;-30000;-30000;2519;0;0;0
2024-11-05_10-09-59.899932;468514;1.333374;23.4375;0.779583;3.642083;223.0;-0.012695;0.02832;0.013672;-49999;-49999;2739;0;0;0
2024-11-05_10-10-00.030910;468658;36.0;23.4375;0.837917;3.636667;208.0;-0.012695;0.029297;0.024414;-60000;-60000;2880;0;0;0
2024-11-05_10-10-00.252291;468806;86.666748;23.4375;0.875417;3.63125;200.0;-0.011719;0.025391;0.021484;-60000;-60000;3086;0;0;0
2024-11-05_10-10-00.378292;468945;169.333252;23.4375;0.937083;3.63;190.0;-0.011719;0.027344;0.022461;-60000;-60000;3229;0;0;0
2024-11-05_10-10-00.504161;469087;264.0;23.4375;3.63;3.627084;178.0;-0.009766;0.029297;0.023438;-60000;-60000;3360;0;0;0
2024-11-05_10-10-00.646159;469224;330.666748;23.4375;0.96125;3.625417;169.0;-0.010742;0.032227;0.008789;-60000;-60000;3499;0;0;0
2024-11-05_10-10-00.865259;469367;444.0;23.4375;0.970417;3.62625;160.0;-0.012695;0.03418;0.005859;-60000;-60000;3717;0;0;0
2024-11-05_10-10-01.069373;469656;497.333252;23.4375;0.9875;3.65;139.0;-0.008789;0.029297;-0.017578;0;0;3929;0;2;0
2024-11-05_10-10-01.257281;469797;473.333252;23.4375;0.955417;3.629167;135.0;-0.012695;0.03418;-0.013672;-60000;-60000;4120;0;0;0
2024-11-05_10-10-01.493926;470087;466.666748;23.4375;0.791667;3.631667;118.0;-0.014648;0.02832;-0.012695;-60000;-60000;4362;0;0;0
2024-11-05_10-10-01.587446;470224;358.666748;23.4375;0.6975;3.634583;110.0;-0.012695;0.033203;-0.00293;-60000;-60000;4450;0;0;0
2024-11-05_10-10-01.730007;470355;38.666626;23.4375;0.619583;3.64;102.0;-0.010742;0.033203;-0.00293;-60000;-60000;4600;0;0;0
2024-11-05_10-10-01.886510;470499;-4.0;23.4375;0.515833;3.632917;91.0;-0.017578;0.026367;0.011719;20000;20000;4740;1;0;0
2024-11-05_10-10-02.058382;470653;-2.666626;23.5;0.745;3.855834;92.0;-0.012695;0.026367;0.013672;20000;20000;4911;1;0;0
2024-11-05_10-10-02.199542;470802;-5.333374;23.4375;0.652083;3.717084;97.0;-0.013672;0.030273;0.004883;20000;20000;5061;0;0;0
2024-11-05_10-10-02.514629;471096;-4.0;23.4375;0.112917;3.637083;94.0;-0.014648;0.022461;0.029297;20000;20000;5380;0;0;0
2024-11-05_10-10-02.781098;471374;-5.333374;23.4375;0.087083;3.642083;94.0;-0.014648;0.027344;0.022461;20000;20000;5614;0;0;0
2024-11-05_10-10-03.141466;471667;-8.0;23.4375;0.02625;3.637083;94.0;-0.016602;0.022461;0.036133;20000;20000;5995;0;0;0
2024-11-05_10-10-03.398429;471947;-13.333374;23.5;0.02125;3.642083;93.0;-0.015625;0.029297;0.038086;60000;60000;10;0;0;0
2024-11-05_10-10-03.534768;472084;-18.666626;23.5;0.021667;3.642083;95.0;-0.017578;0.020508;0.036133;60000;60000;140;0;0;0
2024-11-05_10-10-03.647872;472227;-20.0;23.5;0.062083;3.642083;107.0;-0.013672;0.017578;0.033203;60000;60000;250;0;0;0
2024-11-05_10-10-03.802152;472374;-22.666626;23.5;0.045;3.6425;117.0;-0.011719;0.015625;0.045898;60000;60000;401;0;0;0
2024-11-05_10-10-03.943935;472518;-18.666626;23.5;0.132083;3.645833;127.0;-0.013672;0.018555;0.039062;60000;60000;538;0;0;0
2024-11-05_10-10-04.100605;472668;-22.666626;23.5;0.101667;3.647083;137.0;-0.012695;0.014648;0.033203;60000;60000;710;0;0;0
2024-11-05_10-10-04.321301;472957;-22.666626;23.5;0.059167;3.651667;154.0;-0.014648;0.024414;0.017578;60000;60000;933;0;0;0
2024-11-05_10-10-04.416023;472957;-22.666626;23.5;0.059167;3.651667;154.0;-0.014648;0.024414;0.017578;60000;60000;1021;0;0;0
2024-11-05_10-10-04.542029;473092;-22.666626;23.5;0.065833;3.6425;165.0;-0.014648;0.023438;0.013672;60000;60000;1152;0;0;0
2024-11-05_10-10-04.698844;473243;-29.333374;23.5;0.10875;3.6425;178.0;-0.020508;0.018555;0.009766;60000;60000;1310;0;0;0
2024-11-05_10-10-04.934238;473536;-29.333374;23.5;0.042917;3.65;198.0;-0.018555;0.014648;0.00293;60000;60000;1532;0;0;0
2024-11-05_10-10-05.028563;473673;-29.333374;23.5;3.645417;3.647083;207.0;-0.015625;0.016602;0.0;50000;50000;1640;0;0;0
2024-11-05_10-10-05.169849;473673;-29.333374;23.5;3.645417;3.647083;207.0;-0.015625;0.016602;0.0;30000;30000;1781;0;0;0
2024-11-05_10-10-05.477336;473983;-36.0;23.5;0.292083;3.477083;218.0;-0.018555;0.009766;0.006836;10000;10000;2043;0;0;0
2024-11-05_10-10-05.657505;474269;-61.333374;23.5;0.791667;3.57125;222.0;-0.014648;0.007812;-0.005859;-19999;-19999;2260;0;0;0
2024-11-05_10-10-05.814085;474417;-36.0;23.5;0.719167;3.537917;220.0;-0.016602;0.010742;-0.016602;-30000;-30000;2418;0;0;0
2024-11-05_10-10-05.955196;474554;-13.333374;23.5;0.78375;3.473333;214.0;-0.015625;0.010742;-0.019531;-49999;-49999;2569;0;0;0
2024-11-05_10-10-06.127511;474698;8.0;23.5;0.827917;3.466667;206.0;-0.015625;0.010742;-0.020508;-60000;-60000;2738;0;0;0
2024-11-05_10-10-06.253581;474846;48.0;23.5;0.893333;3.465417;193.0;-0.020508;0.014648;-0.024414;-60000;-60000;2870;0;0;0
2024-11-05_10-10-06.414052;474984;89.333252;23.5;0.921667;3.459584;184.0;-0.020508;0.012695;-0.026367;-60000;-60000;3020;0;0;0
2024-11-05_10-10-06.895809;475416;260.0;23.5;0.96;3.455833;155.0;-0.021484;0.014648;-0.03125;-60000;-60000;3490;0;0;0
2024-11-05_10-10-07.093640;475697;245.333252;23.5;1.046667;3.80125;136.0;-0.021484;0.017578;-0.032227;-60000;-60000;3699;0;2;0
2024-11-05_10-10-07.255602;475834;112.0;23.5;0.970833;3.457083;131.0;-0.019531;0.017578;-0.025391;-60000;-60000;3864;0;0;0
2024-11-05_10-10-07.434212;475990;65.333252;23.5;0.890417;3.459584;124.0;-0.019531;0.017578;-0.024414;-60000;-60000;4040;0;0;0
2024-11-05_10-10-07.554151;476144;68.0;23.5;0.757917;3.459584;113.0;-0.021484;0.018555;-0.018555;-60000;-60000;4159;0;0;0
2024-11-05_10-10-07.679113;476293;8.0;23.5;0.677917;3.459584;102.0;-0.022461;0.018555;-0.014648;-60000;-60000;4280;0;0;0
2024-11-05_10-10-07.836096;476443;-13.333374;23.5;0.597917;3.464167;92.0;-0.024414;0.018555;-0.015625;-60000;-60000;4440;0;0;0
2024-11-05_10-10-08.024538;476593;-17.333374;23.5;0.659583;3.585;89.0;-0.026367;0.015625;-0.005859;20000;20000;4601;1;0;0
2024-11-05_10-10-08.135232;476737;-21.333374;23.5;0.666667;3.539167;92.0;-0.024414;0.019531;-0.009766;20000;20000;4750;1;0;0
2024-11-05_10-10-08.291896;476877;-20.0;23.5;0.53875;3.618333;95.0;-0.022461;0.016602;0.00293;20000;20000;4910;0;1;0
2024-11-05_10-10-08.457885;477014;-16.0;23.5;0.130833;3.470834;96.0;-0.024414;0.018555;0.007812;20000;20000;5060;0;0;0
2024-11-05_10-10-08.605096;477157;-22.666626;23.5;0.071667;3.465;95.0;-0.022461;0.020508;0.016602;20000;20000;5220;0;0;0
2024-11-05_10-10-08.776977;477304;-18.666626;23.5625;0.051667;3.465834;97.0;-0.024414;0.020508;0.020508;20000;20000;5380;0;0;0
2024-11-05_10-10-08.933224;477586;-18.666626;23.5;0.034583;3.464584;96.0;-0.025391;0.020508;0.021484;20000;20000;5540;0;0;0
2024-11-05_10-10-09.121310;477727;-21.333374;23.5625;0.021667;3.464584;95.0;-0.023438;0.019531;0.026367;20000;20000;5706;0;0;0
2024-11-05_10-10-09.358202;477869;-21.333374;23.5625;0.021667;3.47;96.0;-0.026367;0.017578;0.02832;60000;60000;171;0;0;0
2024-11-05_10-10-09.547132;478157;-21.333374;23.5625;0.084583;3.47;115.0;-0.026367;0.014648;0.033203;60000;60000;363;0;0;0
2024-11-05_10-10-09.703821;478295;-22.666626;23.5625;0.119583;3.469167;124.0;-0.02832;0.019531;0.035156;60000;60000;523;0;0;0
2024-11-05_10-10-09.875705;478436;-25.333374;23.5625;0.104583;3.469167;134.0;-0.024414;0.022461;0.037109;60000;60000;683;0;0;0
2024-11-05_10-10-10.081825;478576;-22.666626;23.5625;0.060417;3.469584;143.0;-0.026367;0.019531;0.038086;60000;60000;887;0;0;0
2024-11-05_10-10-10.253444;478874;-25.333374;23.5625;0.115833;3.470834;162.0;-0.026367;0.018555;0.03418;60000;60000;1065;0;0;0
2024-11-05_10-10-10.362315;478874;-25.333374;23.5625;0.115833;3.470834;162.0;-0.026367;0.018555;0.03418;60000;60000;1168;0;0;0
2024-11-05_10-10-10.492678;479010;-22.666626;23.5625;0.119167;3.4725;172.0;-0.02832;0.016602;0.021484;60000;60000;1294;0;0;0
2024-11-05_10-10-10.645679;479150;-34.666626;23.5625;0.04125;3.469584;183.0;-0.02832;0.016602;0.020508;60000;60000;1464;0;0;0
2024-11-05_10-10-10.786867;479297;-22.666626;23.5625;0.095417;3.469584;193.0;-0.027344;0.018555;0.030273;0;0;1593;0;0;0
2024-11-05_10-10-11.039160;479586;-29.333374;23.5625;0.110417;3.48125;198.0;-0.029297;0.017578;0.016602;0;0;1857;0;0;0
2024-11-05_10-10-11.117554;479724;-26.666626;23.5625;0.04875;3.4825;200.0;-0.030273;0.015625;0.019531;0;0;1912;0;0;0
2024-11-05_10-10-11.259549;479867;-25.333374;23.5625;0.091667;3.4825;199.0;-0.032227;0.014648;0.016602;0;0;2073;0;0;0
2024-11-05_10-10-11.417195;480004;-22.666626;23.5625;0.059583;3.475417;196.0;-0.033203;0.019531;0.016602;0;0;2232;0;0;0
2024-11-05_10-10-11.765187;480297;-32.0;23.5625;0.021667;3.475417;199.0;-0.03418;0.019531;0.011719;0;0;2581;0;0;0
2024-11-05_10-10-11.953848;480577;-29.333374;23.5625;0.021667;3.475417;198.0;-0.033203;0.021484;0.010742;0;0;2773;0;0;0
2024-11-05_10-10-12.050159;480577;-29.333374;23.5625;0.021667;3.475417;198.0;-0.033203;0.021484;0.010742;0;0;2871;0;0;0
2024-11-05_10-10-12.205923;480859;-22.666626;23.625;0.021667;3.475417;198.0;-0.035156;0.025391;-0.000977;0;0;3023;0;0;0
2024-11-05_10-10-12.332308;480859;-22.666626;23.625;0.021667;3.475417;198.0;-0.035156;0.025391;-0.000977;0;0;3153;0;0;0
2024-11-05_10-10-12.493254;481146;-26.666626;23.5625;0.021667;3.475417;198.0;-0.036133;0.029297;0.001953;0;0;3313;0;0;0
2024-11-05_10-10-12.711470;481288;-25.333374;23.5625;0.021667;3.475417;200.0;-0.038086;0.027344;0.001953;0;0;3533;0;0;0
2024-11-05_10-10-12.837368;481443;-22.666626;23.5625;3.475417;3.475417;197.0;-0.037109;0.03125;0.000977;0;0;3643;0;0;0
2024-11-05_10-10-12.964041;481587;-30.666626;23.5625;0.021667;3.475417;197.0;-0.039062;0.025391;0.005859;0;0;3785;0;0;0
2024-11-05_10-10-13.215754;481871;-30.666626;23.625;0.021667;3.475417;198.0;-0.041016;0.027344;0.032227;0;0;4037;0;0;0
2024-11-05_10-10-13.310316;481871;-30.666626;23.625;0.021667;3.475417;198.0;-0.041016;0.027344;0.032227;0;0;4133;0;0;0
2024-11-05_10-10-13.482268;482022;-38.666626;23.625;0.021667;3.475833;194.0;-0.043945;0.029297;0.061523;0;0;4293;0;0;0
2024-11-05_10-10-13.607974;482170;-48.0;23.625;0.021667;3.475417;198.0;-0.044922;0.029297;0.095703;0;0;4423;0;0;0
2024-11-05_10-10-13.764181;482315;-58.666626;23.5625;0.021667;3.475417;195.0;-0.046875;0.030273;0.157227;0;0;4583;0;0;0
2024-11-05_10-10-13.920757;482456;-70.666626;23.625;0.021667;3.475417;197.0;-0.045898;0.03125;0.21582;0;0;4732;0;0;0
2024-11-05_10-10-14.234328;482737;-97.333374;23.625;0.021667;3.475417;199.0;-0.037109;0.03125;0.397461;0;0;5027;0;0;0
2024-11-05_10-10-14.406206;483014;-133.333374;23.625;0.021667;3.475417;195.0;-0.029297;0.033203;0.616211;0;0;5221;0;0;0
2024-11-05_10-10-14.579373;483157;-145.333374;23.625;0.021667;3.475417;197.0;-0.025391;0.03418;0.686523;0;0;5380;0;0;0
2024-11-05_10-10-14.704120;483294;-164.0;23.625;0.021667;3.475417;196.0;-0.017578;0.037109;0.791992;0;0;5523;0;0;0
2024-11-05_10-10-14.939778;483574;-193.333374;23.625;0.021667;3.4775;196.0;-0.004883;0.038086;0.982422;0;0;5763;0;0;0
2024-11-05_10-10-15.033669;483574;-193.333374;23.625;0.021667;3.4775;196.0;-0.004883;0.038086;0.982422;0;0;5843;0;0;0
2024-11-05_10-10-15.206831;483854;-225.333374;23.625;0.02125;3.480833;198.0;0.010742;0.03125;1.158203;0;0;6033;0;0;0
2024-11-05_10-10-15.412010;483998;-238.666626;23.625;0.021667;3.480833;200.0;0.021484;0.027344;1.22168;0;0;6203;0;0;0
2024-11-05_10-10-15.488765;484134;-246.666626;23.625;0.02125;3.480833;198.0;0.03125;0.02832;1.303711;0;0;6305;0;0;0
2024-11-05_10-10-15.693419;484276;-262.666626;23.625;3.480833;3.480833;197.0;0.039062;0.027344;1.37207;0;0;6513;0;0;0
2024-11-05_10-10-15.802648;484415;-266.666626;23.625;0.021667;3.480833;199.0;0.045898;0.02832;1.428711;0;0;6623;0;0;0
2024-11-05_10-10-15.975308;484571;-274.666626;23.625;0.02125;3.480833;197.0;0.053711;0.030273;1.461914;0;0;6793;0;0;0
2024-11-05_10-10-16.288101;484867;-281.333374;23.625;0.021667;3.480833;198.0;0.055664;0.036133;1.549805;0;0;7103;0;0;0
2024-11-05_10-10-16.428690;485016;-296.0;23.625;0.02125;3.48625;198.0;0.055664;0.033203;1.567383;0;0;7243;0;0;0
2024-11-05_10-10-16.963614;485596;-326.666626;23.6875;0.02125;3.48625;200.0;0.060547;0.019531;1.709961;0;0;7773;0;0;0
2024-11-05_10-10-17.057875;485596;-326.666626;23.6875;0.02125;3.48625;200.0;0.060547;0.019531;1.709961;0;0;7871;0;0;0
2024-11-05_10-10-17.214733;485735;-305.333374;23.6875;0.021667;3.48625;200.0;0.0625;0.016602;1.719727;0;0;8031;0;0;0
2024-11-05_10-10-17.371584;486016;-302.666626;23.6875;0.021667;3.4875;199.0;0.053711;0.016602;1.733398;0;0;8193;0;0;0
2024-11-05_10-10-17.527965;486157;-338.666626;23.6875;0.02125;3.489583;195.0;0.044922;0.010742;1.729492;0;0;8343;0;0;0
2024-11-05_10-10-17.684728;486298;-332.0;23.6875;0.021667;3.491667;202.0;0.048828;0.001953;1.730469;0;0;8493;0;0;0
2024-11-05_10-10-17.877708;486444;-328.0;23.6875;0.02125;3.491667;199.0;0.061523;-0.009766;1.780273;0;0;8671;0;0;0
2024-11-05_10-10-17.998930;486587;-326.666626;23.6875;0.021667;3.491667;199.0;0.054688;-0.00293;1.793945;0;0;8812;0;0;0
2024-11-05_10-10-18.280188;486866;-332.0;23.6875;0.02125;0.021667;202.0;0.046875;0.004883;1.820312;0;0;9084;0;0;0
2024-11-05_10-10-18.467841;487012;-329.333374;23.6875;0.021667;3.491667;196.0;0.051758;-0.010742;1.786133;0;0;9283;0;0;0
2024-11-05_10-10-18.640856;487164;-333.333374;23.6875;0.021667;3.491667;199.0;0.042969;-0.007812;1.756836;0;0;9463;0;0;0
2024-11-05_10-10-18.797963;487313;-340.0;23.6875;0.021667;3.491667;200.0;0.045898;0.012695;1.810547;0;0;9612;0;0;0
2024-11-05_10-10-18.969384;487604;-329.333374;23.6875;0.02125;3.494167;200.0;0.050781;0.022461;1.810547;0;0;9773;0;0;0
2024-11-05_10-10-19.094442;487748;-333.333374;23.6875;0.021667;3.495417;198.0;0.037109;0.021484;1.772461;0;0;9913;0;0;0
2024-11-05_10-10-19.250940;487896;-326.666626;23.6875;0.02125;3.497084;196.0;0.041016;0.03125;1.770508;0;0;10063;0;0;0
2024-11-05_10-10-19.422566;488036;-326.666626;23.75;0.021667;3.497084;199.0;0.037109;0.02832;1.762695;0;0;10231;0;0;0
2024-11-05_10-10-19.594528;488177;-329.333374;23.6875;0.021667;3.496667;198.0;0.03418;0.03125;1.759766;0;0;10392;0;0;0
2024-11-05_10-10-19.720079;488316;-332.0;23.75;0.021667;3.497084;197.0;0.037109;0.019531;1.771484;0;0;10543;0;0;0
2024-11-05_10-10-19.892766;488456;-333.333374;23.75;0.021667;3.497084;199.0;0.038086;0.03125;1.780273;0;0;10703;0;0;0
2024-11-05_10-10-20.080355;488596;-333.333374;23.75;0.021667;3.497084;200.0;0.037109;0.021484;1.796875;0;0;10854;0;0;0
2024-11-05_10-10-20.237013;488874;-336.0;23.75;0.021667;3.497084;200.0;0.040039;0.030273;1.817383;0;0;11063;0;0;0
2024-11-05_10-10-20.346707;488874;-336.0;23.75;0.021667;3.497084;200.0;0.040039;0.030273;1.817383;0;0;11161;0;0;0
2024-11-05_10-10-20.503228;489154;-342.666626;23.75;0.021667;3.497084;198.0;0.038086;0.021484;1.827148;0;0;11322;0;0;0
2024-11-05_10-10-20.645104;489154;-342.666626;23.75;0.021667;3.497084;198.0;0.038086;0.021484;1.827148;0;0;11463;0;0;0
2024-11-05_10-10-20.833274;489446;-344.0;23.75;0.02125;3.499583;196.0;0.033203;0.027344;1.854492;0;0;11653;0;0;0
2024-11-05_10-10-21.052507;489587;-348.0;23.75;0.021667;3.499583;198.0;0.032227;0.025391;1.848633;0;0;11876;0;0;0
2024-11-05_10-10-21.146720;489742;-342.666626;23.75;0.021667;3.5025;198.0;0.035156;0.022461;1.867188;0;0;11947;0;0;0
2024-11-05_10-10-21.288544;489885;-348.0;23.75;0.02125;3.5025;200.0;0.037109;0.030273;1.883789;0;0;12099;0;0;0
2024-11-05_10-10-21.444835;490023;-342.666626;23.75;0.021667;3.502084;196.0;0.027344;0.03418;1.844727;0;0;12257;0;0;0
2024-11-05_10-10-21.586826;490176;-342.666626;23.75;0.021667;3.5025;196.0;0.024414;0.030273;1.845703;0;0;12403;0;0;0
2024-11-05_10-10-21.744374;490306;-333.333374;23.75;0.02125;3.5025;194.0;0.025391;0.029297;1.795898;0;0;12563;0;0;0
2024-11-05_10-10-21.901085;490448;-333.333374;23.75;0.021667;3.5025;202.0;0.019531;0.023438;1.78125;0;0;12723;0;0;0
2024-11-05_10-10-22.088687;490734;-324.0;23.8125;0.021667;3.5025;202.0;0.011719;0.014648;1.762695;0;0;12913;0;0;0
2024-11-05_10-10-22.198413;490734;-324.0;23.8125;0.021667;3.5025;202.0;0.011719;0.014648;1.762695;0;0;13023;0;0;0
2024-11-05_10-10-22.402359;491027;-324.0;23.75;0.02125;3.502084;199.0;0.012695;0.008789;1.765625;0;0;13200;0;0;0
2024-11-05_10-10-22.527694;491166;-316.0;23.8125;0.021667;3.5025;196.0;0.008789;0.012695;1.754883;0;0;13343;0;0;0
2024-11-05_10-10-22.684255;491306;-313.333374;23.75;0.021667;3.5025;199.0;0.009766;0.014648;1.732422;0;0;13503;0;0;0
2024-11-05_10-10-22.840763;491446;-309.333374;23.8125;0.021667;3.5025;201.0;0.001953;0.013672;1.702148;0;0;13663;0;0;0
2024-11-05_10-10-22.997084;491587;-308.0;23.8125;0.021667;3.502084;198.0;0.001953;0.017578;1.712891;0;0;13802;0;0;0
2024-11-05_10-10-23.153911;491726;-310.666626;23.8125;0.021667;3.5025;199.0;0.003906;0.026367;1.723633;0;0;13972;0;0;0
2024-11-05_10-10-23.326496;491866;-309.333374;23.8125;0.02125;3.502084;198.0;-0.004883;0.023438;1.722656;0;0;14141;0;0;0
2024-11-05_10-10-23.498576;492005;-312.0;23.8125;0.02125;3.5025;194.0;0.0;0.027344;1.731445;0;0;14303;0;0;0
2024-11-05_10-10-23.608712;492147;-313.333374;23.8125;0.021667;3.5025;200.0;-0.004883;0.02832;1.725586;0;0;14433;0;0;0
2024-11-05_10-10-23.939264;492577;-324.0;23.8125;0.021667;3.50625;199.0;-0.006836;0.032227;1.745117;0;0;14763;0;0;0
2024-11-05_10-10-24.111674;492736;-324.0;23.8125;0.021667;3.507084;199.0;-0.003906;0.023438;1.750977;0;0;14932;0;0;0
2024-11-05_10-10-24.252219;492885;-326.666626;23.8125;0.021667;3.5075;198.0;-0.001953;0.020508;1.763672;0;0;15073;0;0;0
2024-11-05_10-10-24.408547;493026;-326.666626;23.8125;0.021667;3.5075;199.0;-0.005859;0.017578;1.768555;0;0;15223;0;0;0
2024-11-05_10-10-24.596024;493166;-332.0;23.8125;0.021667;3.507917;201.0;-0.000977;0.014648;1.787109;0;0;15388;0;0;0
2024-11-05_10-10-24.815876;493444;-333.333374;23.8125;0.021667;3.507917;198.0;-0.00293;0.015625;1.806641;0;0;15633;0;0;0
2024-11-05_10-10-24.894587;493444;-333.333374;23.8125;0.021667;3.507917;198.0;-0.00293;0.015625;1.806641;0;0;15703;0;0;0
2024-11-05_10-10-25.019510;493587;-336.0;23.8125;0.02125;3.507917;199.0;-0.004883;0.017578;1.807617;0;0;15842;0;0;0
2024-11-05_10-10-25.192065;493724;-332.0;23.875;0.02125;3.507917;200.0;-0.003906;0.024414;1.820312;0;0;16001;0;0;0
2024-11-05_10-10-25.349304;493868;-340.0;23.875;0.02125;3.5075;198.0;-0.00293;0.019531;1.822266;0;0;16161;0;0;0
2024-11-05_10-10-25.505995;494154;-334.666626;23.875;0.021667;3.5075;199.0;-0.005859;0.021484;1.837891;0;0;16320;0;0;0
2024-11-05_10-10-25.772334;494298;-340.0;23.875;0.02125;3.5075;201.0;-0.004883;0.017578;1.837891;0;0;16557;0;0;0
2024-11-05_10-10-25.960750;494584;-340.0;23.875;0.021667;3.507917;198.0;-0.007812;0.009766;1.838867;0;0;16782;0;0;0
2024-11-05_10-10-26.163470;494728;-342.666626;23.875;0.021667;3.5075;196.0;-0.005859;0.008789;1.839844;0;0;16980;0;0;0
2024-11-05_10-10-26.288527;494874;-340.0;23.875;0.021667;3.507917;198.0;-0.007812;0.009766;1.837891;0;0;17103;0;0;0
2024-11-05_10-10-26.617428;495183;-344.0;23.875;0.02125;3.5075;198.0;-0.007812;0.005859;1.832031;0;0;17434;0;0;0
2024-11-05_10-10-26.742251;495331;-336.0;23.875;0.02125;3.507917;198.0;-0.008789;0.011719;1.833008;0;0;17563;0;0;0
2024-11-05_10-10-26.898559;495469;-332.0;23.875;0.02125;3.5075;195.0;-0.011719;0.012695;1.816406;0;0;17713;0;0;0
2024-11-05_10-10-27.164762;495754;-329.333374;23.875;0.021667;3.507917;199.0;-0.019531;0.014648;1.759766;0;0;17986;0;0;0
2024-11-05_10-10-27.242941;495754;-329.333374;23.875;0.021667;3.507917;199.0;-0.019531;0.014648;1.759766;0;0;18053;0;0;0
2024-11-05_10-10-27.383799;495897;-312.0;23.875;0.021667;3.507917;201.0;-0.020508;0.015625;1.74707;0;0;18191;0;0;0
2024-11-05_10-10-27.540520;496184;-308.0;23.875;0.021667;3.507917;196.0;-0.030273;0.019531;1.689453;0;0;18350;0;0;0
2024-11-05_10-10-27.696772;496328;-301.333374;23.875;0.02125;3.5075;201.0;-0.030273;0.018555;1.675781;0;0;18503;0;0;0
2024-11-05_10-10-27.838252;496476;-305.333374;23.875;0.021667;3.5075;198.0;-0.033203;0.022461;1.662109;0;0;18653;0;0;0
2024-11-05_10-10-27.995206;496614;-298.666626;23.875;0.02125;3.507917;200.0;-0.035156;0.018555;1.639648;0;0;18813;0;0;0
2024-11-05_10-10-28.151503;496758;-301.333374;23.9375;0.02125;3.507917;200.0;-0.035156;0.018555;1.638672;0;0;18973;0;0;0
2024-11-05_10-10-28.292229;496904;-298.666626;23.9375;0.02125;3.5075;197.0;-0.033203;0.015625;1.643555;0;0;19113;0;0;0
2024-11-05_10-10-28.464864;497047;-302.666626;23.9375;0.021667;3.507917;199.0;-0.032227;0.017578;1.658203;0;0;19283;0;0;0
2024-11-05_10-10-28.621290;497186;-309.333374;23.875;0.021667;3.5075;197.0;-0.03418;0.011719;1.675781;0;0;19431;0;0;0
2024-11-05_10-10-28.793555;497326;-309.333374;23.9375;0.021667;3.507917;199.0;-0.032227;0.015625;1.693359;0;0;19600;0;0;0
2024-11-05_10-10-29.168711;497770;-333.333374;23.9375;0.021667;3.5075;201.0;-0.02832;0.014648;1.764648;0;0;19983;0;0;0
2024-11-05_10-10-29.247299;497770;-333.333374;23.9375;0.021667;3.5075;201.0;-0.02832;0.014648;1.764648;0;0;20064;0;0;0
2024-11-05_10-10-29.389035;497923;-332.0;23.9375;0.02125;3.507917;200.0;-0.024414;0.012695;1.780273;0;0;20212;0;0;0
2024-11-05_10-10-29.654710;498207;-332.0;23.9375;0.021667;3.507917;199.0;-0.024414;0.018555;1.794922;0;0;20471;0;0;0
2024-11-05_10-10-29.732917;498346;-333.333374;23.9375;0.02125;3.5075;198.0;-0.025391;0.012695;1.797852;0;0;20553;0;0;0
2024-11-05_10-10-29.921815;498492;-333.333374;23.9375;3.507917;3.507917;199.0;-0.025391;0.019531;1.792969;0;0;20743;0;0;0
2024-11-05_10-10-30.047722;498641;-333.333374;23.9375;0.021667;3.507917;198.0;-0.026367;0.014648;1.773438;0;0;20861;0;0;0
2024-11-05_10-10-30.188454;498788;-313.333374;23.9375;0.021667;3.507917;200.0;-0.030273;0.018555;1.757812;0;0;21003;0;0;0
2024-11-05_10-10-30.344788;498934;-313.333374;23.9375;0.02125;3.507917;199.0;-0.03125;0.012695;1.734375;0;0;21163;0;0;0
2024-11-05_10-10-30.500997;499076;-308.0;23.9375;0.02125;3.507917;199.0;-0.030273;0.015625;1.717773;0;0;21323;0;0;0
2024-11-05_10-10-30.643064;499218;-309.333374;23.9375;0.021667;3.5075;196.0;-0.036133;0.016602;1.698242;0;0;21463;0;0;0
2024-11-05_10-10-30.846348;499364;-309.333374;23.9375;0.021667;3.5075;197.0;-0.038086;0.014648;1.694336;0;0;21640;0;0;0
2024-11-05_10-10-30.987738;499507;-310.666626;23.9375;0.02125;3.507917;196.0;-0.037109;0.019531;1.670898;0;0;21781;0;0;0
2024-11-05_10-10-31.222344;499786;-296.0;24.0;0.021667;3.507917;197.0;-0.042969;0.020508;1.630859;0;0;22046;0;0;0
2024-11-05_10-10-31.331693;499924;-293.333374;24.0;0.02125;3.507917;198.0;-0.046875;0.015625;1.606445;0;0;22150;0;0;0
2024-11-05_10-10-31.425475;500067;-293.333374;24.0;0.02125;3.507917;195.0;-0.045898;0.019531;1.625977;0;0;22243;0;0;0
2024-11-05_10-10-31.582434;500216;-293.333374;24.0;0.021667;3.507917;199.0;-0.045898;0.022461;1.604492;0;0;22403;0;0;0
2024-11-05_10-10-31.879962;500496;-293.333374;24.0;0.021667;3.507917;198.0;-0.050781;0.02832;1.578125;0;0;22676;0;0;0
2024-11-05_10-10-32.098801;500636;-292.0;24.0;3.507917;3.5075;202.0;-0.049805;0.025391;1.577148;0;0;22891;0;0;0
2024-11-05_10-10-32.208244;500767;-288.0;24.0;0.02125;3.5075;199.0;-0.049805;0.024414;1.578125;0;0;23023;0;0;0
2024-11-05_10-10-32.364645;500916;-281.333374;24.0;0.021667;3.507917;196.0;-0.051758;0.024414;1.570312;0;0;23183;0;0;0
2024-11-05_10-10-32.536834;501064;-288.0;24.0;0.021667;3.507917;198.0;-0.052734;0.025391;1.563477;0;0;23353;0;0;0
2024-11-05_10-10-32.678162;501210;-286.666626;24.0;0.02125;3.5075;198.0;-0.052734;0.017578;1.556641;0;0;23501;0;0;0
2024-11-05_10-10-32.850990;501497;-284.0;24.0;0.021667;3.507917;196.0;-0.053711;0.007812;1.55957;0;0;23673;0;0;0
2024-11-05_10-10-32.992407;501635;-290.666626;24.0;0.021667;3.507917;198.0;-0.054688;0.019531;1.560547;0;0;23813;0;0;0
2024-11-05_10-10-33.180156;501776;-290.666626;24.0;0.021667;3.507917;196.0;-0.052734;0.016602;1.563477;0;0;23968;0;0;0
2024-11-05_10-10-33.351972;501916;-286.666626;24.0;0.02125;3.5075;198.0;-0.049805;0.016602;1.555664;0;0;24173;0;0;0
2024-11-05_10-10-33.461572;502057;-281.333374;24.0;0.021667;3.5075;199.0;-0.054688;0.010742;1.561523;0;0;24272;0;0;0
2024-11-05_10-10-33.618815;502196;-288.0;24.0;0.021667;3.507917;200.0;-0.051758;0.015625;1.550781;0;0;24442;0;0;0
2024-11-05_10-10-33.963998;502616;-277.333374;24.0;0.021667;3.507917;200.0;-0.057617;0.024414;1.485352;0;0;24783;0;0;0
2024-11-05_10-10-34.088533;502616;-277.333374;24.0;0.021667;3.507917;200.0;-0.057617;0.024414;1.485352;0;0;24903;0;0;0
2024-11-05_10-10-34.245130;502896;-260.0;24.0625;0.021667;3.507917;197.0;-0.060547;0.017578;1.427734;0;0;25063;0;0;0
2024-11-05_10-10-34.527037;503036;-258.666626;24.0625;0.021667;3.507917;199.0;-0.064453;0.017578;1.393555;0;0;25318;0;0;0
2024-11-05_10-10-34.824706;503467;-245.333374;24.0625;0.021667;3.5075;197.0;-0.071289;0.03418;1.325195;0;0;25643;0;0;0
2024-11-05_10-10-34.934636;503467;-245.333374;24.0625;0.021667;3.5075;197.0;-0.071289;0.03418;1.325195;0;0;25754;0;0;0
2024-11-05_10-10-35.029204;503627;-240.0;24.0625;0.021667;3.507917;200.0;-0.071289;0.024414;1.319336;0;0;25844;0;0;0
2024-11-05_10-10-35.201806;503775;-236.0;24.0625;0.021667;3.507917;198.0;-0.075195;0.022461;1.286133;0;0;26023;0;0;0
2024-11-05_10-10-35.342720;503924;-236.0;24.0625;0.021667;3.507917;203.0;-0.076172;0.016602;1.264648;0;0;26163;0;0;0
2024-11-05_10-10-35.498982;504064;-240.0;24.0625;0.021667;3.507917;197.0;-0.068359;0.019531;1.279297;0;0;26313;0;0;0
2024-11-05_10-10-35.702505;504208;-233.333374;24.0625;0.021667;3.507917;200.0;-0.079102;0.021484;1.265625;0;0;26473;0;0;0
2024-11-05_10-10-35.812402;504357;-236.0;24.0625;0.021667;3.507917;197.0;-0.071289;0.027344;1.269531;0;0;26633;0;0;0
2024-11-05_10-10-35.969121;504494;-236.0;24.0625;0.02125;3.507917;196.0;-0.070312;0.016602;1.25293;0;0;26782;0;0;0
2024-11-05_10-10-36.188463;504786;-233.333374;24.0625;0.021667;3.507917;200.0;-0.077148;0.019531;1.25;0;0;26993;0;0;0
2024-11-05_10-10-36.266986;504924;-238.666626;24.0625;0.02125;3.507917;199.0;-0.070312;0.023438;1.273438;0;0;27092;0;0;0
2024-11-05_10-10-36.564398;505068;-241.333374;24.0625;0.021667;3.507917;199.0;-0.078125;0.018555;1.27832;0;0;27369;0;0;0
2024-11-05_10-10-36.784006;505356;-238.666626;24.0625;0.021667;3.507917;196.0;-0.072266;0.012695;1.260742;0;0;27585;0;0;0
2024-11-05_10-10-36.913953;505496;-238.666626;24.0625;0.02125;3.507917;200.0;-0.072266;0.020508;1.264648;0;0;27723;0;0;0
2024-11-05_10-10-37.065678;505636;-236.0;24.0625;0.021667;3.507917;197.0;-0.073242;0.024414;1.253906;0;0;27883;0;0;0
2024-11-05_10-10-37.253543;505778;-236.0;24.0625;0.021667;3.507917;200.0;-0.073242;0.02832;1.261719;0;0;28057;0;0;0
2024-11-05_10-10-37.472822;506072;-232.0;24.0625;0.02125;3.507917;201.0;-0.070312;0.033203;1.237305;0;0;28283;0;0;0
2024-11-05_10-10-37.629162;506218;-226.666626;24.0625;0.021667;3.507917;200.0;-0.074219;0.026367;1.223633;0;0;28453;0;0;0
2024-11-05_10-10-37.707598;506218;-226.666626;24.0625;0.021667;3.507917;200.0;-0.074219;0.026367;1.223633;0;0;28524;0;0;0
2024-11-05_10-10-37.864469;506375;-233.333374;24.0625;0.021667;3.507917;198.0;-0.073242;0.027344;1.227539;0;0;28680;0;0;0
2024-11-05_10-10-38.021401;506523;-232.0;24.0625;0.02125;3.507917;198.0;-0.069336;0.025391;1.224609;0;0;28817;0;0;0
2024-11-05_10-10-38.146679;506795;-229.333374;24.0625;0.021667;3.5075;196.0;-0.070312;0.02832;1.238281;0;0;28963;0;0;0
2024-11-05_10-10-38.381597;506936;-229.333374;24.0625;0.021667;3.507917;199.0;-0.06543;0.024414;1.228516;0;0;29203;0;0;0
2024-11-05_10-10-38.475599;507074;-225.333374;24.125;0.021667;3.507917;196.0;-0.067383;0.020508;1.223633;0;0;29283;0;0;0
2024-11-05_10-10-38.647541;507218;-225.333374;24.0625;0.021667;3.507917;199.0;-0.060547;0.02832;1.223633;0;0;29470;0;0;0
2024-11-05_10-10-38.773402;507364;-226.666626;24.0625;0.02125;3.507917;196.0;-0.060547;0.020508;1.194336;0;0;29582;0;0;0
2024-11-05_10-10-39.009419;507509;-221.333374;24.0625;0.021667;3.507917;200.0;-0.060547;0.012695;1.195312;0;0;29810;0;0;0
2024-11-05_10-10-39.135449;507656;-222.666626;24.125;0.021667;3.507917;197.0;-0.055664;0.018555;1.166992;0;0;29919;0;0;0
2024-11-05_10-10-39.262002;507794;-216.0;24.125;0.021667;3.507917;197.0;-0.05957;0.018555;1.141602;0;0;30069;0;0;0
2024-11-05_10-10-39.512402;508074;-216.0;24.125;0.02125;3.507917;196.0;-0.049805;0.018555;1.128906;0;0;30332;0;0;0
2024-11-05_10-10-39.590469;508216;-214.666626;24.125;0.021667;3.5075;201.0;-0.046875;0.013672;1.133789;0;0;30403;0;0;0
2024-11-05_10-10-39.793972;508356;-218.666626;24.125;0.021667;3.507917;199.0;-0.037109;0.022461;1.139648;0;0;30602;0;0;0
2024-11-05_10-10-39.887884;508496;-210.666626;24.125;0.021667;3.507917;197.0;-0.035156;0.024414;1.116211;0;0;30693;0;0;0
2024-11-05_10-10-40.031222;508634;-221.333374;24.125;0.021667;3.507917;199.0;-0.030273;0.017578;1.128906;0;0;30854;0;0;0
2024-11-05_10-10-40.186822;508782;-213.333374;24.125;0.021667;3.507917;197.0;-0.023438;0.012695;1.146484;0;0;30996;0;0;0
2024-11-05_10-10-40.344014;508928;-213.333374;24.125;0.021667;3.507917;195.0;-0.024414;0.017578;1.125977;0;0;31163;0;0;0
2024-11-05_10-10-40.517720;509060;-210.666626;24.125;0.021667;3.507917;197.0;-0.017578;0.026367;1.143555;0;0;31322;0;0;0
2024-11-05_10-10-40.738235;509358;-213.333374;24.125;0.02125;3.5075;198.0;-0.018555;0.026367;1.132812;0;0;31553;0;0;0
2024-11-05_10-10-40.800871;509358;-213.333374;24.125;0.02125;3.5075;198.0;-0.018555;0.026367;1.132812;0;0;31623;0;0;0
2024-11-05_10-10-40.942666;509505;-210.666626;24.125;0.021667;3.507917;199.0;-0.018555;0.027344;1.12793;0;0;31763;0;0;0
2024-11-05_10-10-41.226395;509786;-213.333374;24.1875;0.021667;3.507917;195.0;-0.019531;0.03125;1.112305;0;0;32033;0;0;0
2024-11-05_10-10-41.384075;509926;-209.333374;24.125;0.021667;3.507917;199.0;-0.021484;0.03418;1.107422;0;0;32193;0;0;0
2024-11-05_10-10-41.462779;510064;-210.666626;24.1875;0.02125;3.507917;197.0;-0.024414;0.035156;1.104492;0;0;32273;0;0;0
2024-11-05_10-10-41.698187;510208;-202.666626;24.125;0.021667;3.507917;200.0;-0.025391;0.029297;1.098633;0;0;32477;0;0;0
2024-11-05_10-10-41.777850;510357;-210.666626;24.125;0.021667;3.507917;197.0;-0.019531;0.024414;1.100586;0;0;32593;0;0;0
2024-11-05_10-10-41.903045;510496;-216.0;24.125;0.021667;3.507917;201.0;-0.022461;0.020508;1.089844;0;0;32723;0;0;0
2024-11-05_10-10-42.281432;510916;-202.666626;24.125;0.021667;3.507917;198.0;-0.025391;0.025391;1.052734;0;0;33092;0;0;0
2024-11-05_10-10-42.376096;510916;-202.666626;24.125;0.021667;3.507917;198.0;-0.025391;0.025391;1.052734;0;0;33193;0;0;0
2024-11-05_10-10-42.535205;511054;-206.666626;24.125;0.021667;3.507917;198.0;-0.024414;0.030273;1.053711;0;0;33353;0;0;0
2024-11-05_10-10-42.789450;511346;-202.666626;24.125;0.021667;3.507917;195.0;-0.023438;0.026367;1.038086;0;0;33602;0;0;0
2024-11-05_10-10-42.850010;511484;-197.333374;24.1875;0.021667;3.507917;198.0;-0.027344;0.02832;1.02832;0;0;33671;0;0;0
2024-11-05_10-10-42.993521;511632;-202.666626;24.1875;0.021667;3.507917;198.0;-0.02832;0.029297;1.023438;0;0;33803;0;0;0
2024-11-05_10-10-43.227424;511765;-197.333374;24.1875;0.021667;3.507917;201.0;-0.024414;0.03125;1.018555;0;0;34053;0;0;0
2024-11-05_10-10-43.306756;511912;-202.666626;24.1875;0.02125;3.507917;199.0;-0.025391;0.033203;1.003906;0;0;34117;0;0;0
2024-11-05_10-10-43.448682;512057;-190.666626;24.125;0.021667;3.507917;197.0;-0.026367;0.029297;1.00293;0;0;34273;0;0;0
2024-11-05_10-10-43.621541;512213;-190.666626;24.1875;0.021667;3.507917;197.0;-0.027344;0.02832;0.989258;0;0;34433;0;0;0
2024-11-05_10-10-43.795098;512347;-189.333374;24.1875;0.021667;3.506667;194.0;-0.026367;0.026367;0.978516;0;0;34602;0;0;0
2024-11-05_10-10-44.140521;512776;-202.666626;24.1875;0.021667;3.504583;198.0;-0.024414;0.029297;1.021484;0;0;34944;0;0;0
2024-11-05_10-10-44.266043;512914;-209.333374;24.1875;0.021667;3.504583;196.0;-0.024414;0.027344;1.064453;0;0;35080;0;0;0
2024-11-05_10-10-44.408827;512914;-209.333374;24.1875;0.021667;3.504583;196.0;-0.024414;0.027344;1.064453;0;0;35223;0;0;0
2024-11-05_10-10-44.565230;513204;-216.0;24.1875;0.021667;3.505834;198.0;-0.018555;0.02832;1.123047;0;0;35383;0;0;0
2024-11-05_10-10-44.707668;513347;-216.0;24.1875;0.02125;3.502917;197.0;-0.022461;0.025391;1.136719;0;0;35523;0;0;0
2024-11-05_10-10-44.864454;513485;-221.333374;24.1875;0.02125;3.502917;196.0;-0.019531;0.027344;1.146484;0;0;35682;0;0;0
2024-11-05_10-10-45.022990;513627;-220.0;24.1875;0.021667;3.5025;199.0;-0.018555;0.030273;1.163086;0;0;35842;0;0;0
2024-11-05_10-10-45.277143;513907;-229.333374;24.1875;0.02125;3.5025;197.0;-0.016602;0.020508;1.205078;0;0;36076;0;0;0
2024-11-05_10-10-45.383507;513907;-229.333374;24.1875;0.02125;3.5025;197.0;-0.016602;0.020508;1.205078;0;0;36178;0;0;0
2024-11-05_10-10-45.493876;514044;-232.0;24.1875;0.02125;3.5025;196.0;-0.013672;0.015625;1.197266;0;0;36313;0;0;0
2024-11-05_10-10-45.651807;514187;-229.333374;24.1875;0.021667;3.502084;198.0;-0.016602;0.013672;1.207031;0;0;36474;0;0;0
2024-11-05_10-10-45.817678;514342;-232.0;24.1875;0.021667;3.502084;198.0;-0.017578;0.013672;1.200195;0;0;36624;0;0;0
2024-11-05_10-10-46.003149;514486;-225.333374;24.1875;0.021667;3.5025;196.0;-0.012695;0.009766;1.194336;0;0;36783;0;0;0
2024-11-05_10-10-46.124538;514766;-232.0;24.1875;0.021667;3.5025;196.0;-0.015625;0.015625;1.185547;0;0;36943;0;0;0
2024-11-05_10-10-46.297176;514922;-225.333374;24.1875;0.021667;3.502084;198.0;-0.017578;0.018555;1.186523;0;0;37093;0;0;0
2024-11-05_10-10-46.485542;515067;-225.333374;24.1875;0.021667;3.502084;197.0;-0.015625;0.018555;1.178711;0;0;37267;0;0;0
2024-11-05_10-10-46.659072;515207;-225.333374;24.25;0.021667;3.5025;197.0;-0.015625;0.030273;1.188477;0;0;37472;0;0;0
2024-11-05_10-10-46.769742;515344;-225.333374;24.1875;0.02125;3.502084;198.0;-0.018555;0.027344;1.169922;0;0;37572;0;0;0
2024-11-05_10-10-46.994255;515634;-218.666626;24.1875;0.021667;3.5025;199.0;-0.015625;0.02832;1.162109;0;0;37803;0;0;0
2024-11-05_10-10-47.053811;515634;-218.666626;24.1875;0.021667;3.5025;199.0;-0.015625;0.02832;1.162109;0;0;37873;0;0;0
2024-11-05_10-10-47.258840;515778;-213.333374;24.1875;0.021667;3.502084;195.0;-0.021484;0.029297;1.135742;0;0;38081;0;0;0
2024-11-05_10-10-47.369390;515927;-209.333374;24.1875;0.021667;3.502084;198.0;-0.018555;0.026367;1.142578;0;0;38182;0;0;0
2024-11-05_10-10-47.527070;516064;-210.666626;24.1875;0.021667;3.5025;198.0;-0.018555;0.033203;1.108398;0;0;38341;0;0;0
2024-11-05_10-10-47.715281;516356;-210.666626;24.1875;0.021667;3.502084;198.0;-0.021484;0.023438;1.076172;0;0;38520;0;0;0
2024-11-05_10-10-47.999967;516637;-197.333374;24.25;0.021667;3.502084;196.0;-0.024414;0.030273;1.043945;0;0;38800;0;0;0
2024-11-05_10-10-48.157301;516774;-202.666626;24.1875;0.021667;3.502084;198.0;-0.026367;0.02832;1.014648;0;0;38973;0;0;0
2024-11-05_10-10-48.409028;516917;-197.333374;24.25;0.021667;3.5025;199.0;-0.025391;0.024414;1.010742;0;0;39223;0;0;0
2024-11-05_10-10-48.502784;517056;-197.333374;24.25;0.021667;3.5025;201.0;-0.022461;0.030273;1.014648;0;0;39297;0;0;0
2024-11-05_10-10-48.675707;517214;-202.666626;24.25;0.021667;3.5025;197.0;-0.026367;0.026367;1.008789;0;0;39486;0;0;0
2024-11-05_10-10-48.895893;517508;-197.333374;24.25;0.021667;3.502084;193.0;-0.026367;0.025391;1.013672;0;0;39712;0;0;0
2024-11-05_10-10-49.117362;517657;-197.333374;24.25;0.021667;3.5025;198.0;-0.023438;0.026367;1.007812;0;0;39902;0;0;0
2024-11-05_10-10-49.399437;517947;-197.333374;24.25;0.021667;3.5025;197.0;-0.022461;0.022461;1.016602;0;0;40213;0;0;0
2024-11-05_10-10-49.556977;518084;-193.333374;24.25;0.021667;3.5025;199.0;-0.022461;0.022461;1.015625;0;0;40372;0;0;0
2024-11-05_10-10-49.776808;518374;-197.333374;24.25;0.021667;3.5025;198.0;-0.024414;0.021484;1.022461;0;0;40592;0;0;0
2024-11-05_10-10-49.997561;518518;-198.666626;24.25;0.021667;3.502084;202.0;-0.026367;0.023438;1.022461;0;0;40809;0;0;0
2024-11-05_10-10-50.217609;518797;-198.666626;24.25;0.021667;3.502084;201.0;-0.027344;0.024414;1.03125;0;0;41003;0;0;0
2024-11-05_10-10-50.343304;518935;-202.666626;24.25;0.021667;3.5025;198.0;-0.025391;0.022461;1.014648;0;0;41163;0;0;0
2024-11-05_10-10-50.705802;519354;-197.333374;24.25;0.021667;3.5025;198.0;-0.024414;0.032227;1.032227;0;0;41524;0;0;0
2024-11-05_10-10-50.815986;519354;-197.333374;24.25;0.021667;3.5025;198.0;-0.024414;0.032227;1.032227;0;0;41633;0;0;0
2024-11-05_10-10-50.957256;519496;-202.666626;24.25;0.021667;3.502084;195.0;-0.025391;0.024414;1.032227;0;0;41773;0;0;0
2024-11-05_10-10-51.114848;519639;-202.666626;24.25;0.021667;3.5025;198.0;-0.023438;0.027344;1.042969;0;0;41935;0;0;0
2024-11-05_10-10-51.351340;519940;-197.333374;24.25;0.021667;3.5025;198.0;-0.022461;0.027344;1.035156;0;0;42162;0;0;0
2024-11-05_10-10-51.540051;520084;-202.666626;24.25;0.021667;3.5025;198.0;-0.025391;0.023438;1.030273;0;0;42332;0;0;0
2024-11-05_10-10-51.634006;520216;-197.333374;24.25;0.021667;3.502084;196.0;-0.021484;0.023438;1.03418;0;0;42412;0;0;0
2024-11-05_10-10-51.807180;520344;-202.666626;24.25;0.021667;3.502084;197.0;-0.023438;0.017578;1.009766;0;0;42612;0;0;0
2024-11-05_10-10-51.901419;520486;-197.333374;24.25;0.02125;3.500417;199.0;-0.021484;0.023438;1.022461;0;0;42722;0;0;0
2024-11-05_10-10-52.184671;520777;-202.666626;24.25;0.02125;3.499167;200.0;-0.022461;0.023438;1.016602;0;0;42989;0;0;0
2024-11-05_10-10-52.405547;520915;-202.666626;24.25;0.021667;3.501667;198.0;-0.024414;0.022461;1.013672;0;0;43210;0;0;0
2024-11-05_10-10-52.562847;521194;-193.333374;24.25;0.021667;3.497084;199.0;-0.025391;0.019531;1.015625;0;0;43373;0;0;0
2024-11-05_10-10-52.751721;521338;-193.333374;24.25;0.021667;3.497084;194.0;-0.024414;0.019531;1.027344;0;0;43545;0;0;0
2024-11-05_10-10-53.113760;521617;-197.333374;24.25;0.021667;3.497084;199.0;-0.023438;0.022461;1.033203;0;0;43911;0;0;0
2024-11-05_10-10-53.302434;521897;-197.333374;24.25;0.021667;3.497084;199.0;-0.024414;0.029297;1.03418;0;0;44122;0;0;0
2024-11-05_10-10-53.475334;522035;-197.333374;24.25;0.021667;3.497084;198.0;-0.022461;0.023438;1.046875;0;0;44282;0;0;0
2024-11-05_10-10-53.616813;522176;-202.666626;24.25;0.021667;3.497084;197.0;-0.023438;0.021484;1.038086;0;0;44443;0;0;0
2024-11-05_10-10-53.790650;522314;-202.666626;24.25;0.021667;3.497084;198.0;-0.022461;0.021484;1.042969;0;0;44601;0;0;0
2024-11-05_10-10-53.963579;522611;-197.333374;24.25;0.021667;3.497084;196.0;-0.023438;0.02832;1.045898;0;0;44783;0;0;0
2024-11-05_10-10-54.089442;522611;-197.333374;24.25;0.021667;3.497084;196.0;-0.023438;0.02832;1.045898;0;0;44897;0;0;0
2024-11-05_10-10-54.310536;522906;-197.333374;24.25;3.496667;3.496667;200.0;-0.022461;0.022461;1.052734;0;0;45123;0;0;0
2024-11-05_10-10-54.419969;523039;-202.666626;24.25;0.021667;3.497084;200.0;-0.022461;0.021484;1.055664;0;0;45242;0;0;0
2024-11-05_10-10-54.624416;523190;-202.666626;24.25;0.021667;3.497084;197.0;-0.021484;0.024414;1.041992;0;0;45444;0;0;0
2024-11-05_10-10-54.718800;523334;-193.333374;24.25;0.021667;3.497084;198.0;-0.021484;0.021484;1.037109;0;0;45533;0;0;0
2024-11-05_10-10-54.891277;523478;-197.333374;24.3125;0.021667;3.497084;197.0;-0.026367;0.017578;1.027344;0;0;45703;0;0;0
2024-11-05_10-10-55.034011;523624;-196.0;24.25;0.021667;3.497084;196.0;-0.021484;0.029297;1.017578;0;0;45853;0;0;0
2024-11-05_10-10-55.221042;523766;-197.333374;24.3125;0.021667;3.497084;199.0;-0.023438;0.025391;1.003906;0;0;46008;0;0;0
2024-11-05_10-10-55.346964;523906;-193.333374;24.3125;0.021667;3.497084;196.0;-0.02832;0.022461;0.99707;0;0;46162;0;0;0
2024-11-05_10-10-55.488737;524046;-193.333374;24.3125;0.021667;3.497084;201.0;-0.025391;0.023438;0.992188;0;0;46303;0;0;0
2024-11-05_10-10-55.646096;524188;-193.333374;24.25;0.02125;3.497084;198.0;-0.023438;0.022461;1.003906;0;0;46463;0;0;0
2024-11-05_10-10-55.803673;524334;-190.666626;24.25;0.021667;3.496667;196.0;-0.027344;0.022461;0.999023;0;0;46623;0;0;0
2024-11-05_10-10-56.057009;524616;-197.333374;24.25;0.021667;3.497084;197.0;-0.023438;0.021484;1.003906;0;0;46874;0;0;0
2024-11-05_10-10-56.134384;524756;-189.333374;24.3125;0.021667;3.497084;195.0;-0.022461;0.019531;1.000977;0;0;46953;0;0;0
2024-11-05_10-10-56.280997;524896;-193.333374;24.3125;0.021667;3.497084;198.0;-0.024414;0.023438;1.009766;0;0;47092;0;0;0
2024-11-05_10-10-56.542108;525174;-193.333374;24.25;0.021667;3.497084;199.0;-0.024414;0.025391;0.996094;0;0;47362;0;0;0
2024-11-05_10-10-56.621229;525174;-193.333374;24.25;0.021667;3.497084;199.0;-0.024414;0.025391;0.996094;0;0;47434;0;0;0
2024-11-05_10-10-56.824803;525456;-190.666626;24.25;0.02125;3.497084;199.0;-0.024414;0.026367;0.991211;0;0;47643;0;0;0
2024-11-05_10-10-56.903108;525456;-190.666626;24.25;0.02125;3.497084;199.0;-0.024414;0.026367;0.991211;0;0;47724;0;0;0
2024-11-05_10-10-57.051296;525616;-190.666626;24.3125;0.021667;3.497084;195.0;-0.027344;0.026367;0.991211;0;0;47863;0;0;0
2024-11-05_10-10-57.218964;525764;-197.333374;24.25;0.021667;3.497084;202.0;-0.023438;0.029297;1.007812;0;0;48033;0;0;0
2024-11-05_10-10-57.485682;526056;-196.0;24.3125;0.021667;3.497084;200.0;-0.024414;0.030273;1.022461;0;0;48261;0;0;0
2024-11-05_10-10-57.533069;526056;-196.0;24.3125;0.021667;3.497084;200.0;-0.024414;0.030273;1.022461;0;0;48353;0;0;0
2024-11-05_10-10-57.753296;526336;-201.333374;24.3125;0.021667;3.497084;199.0;-0.026367;0.032227;1.027344;0;0;48560;0;0;0
2024-11-05_10-10-57.832070;526474;-201.333374;24.3125;0.021667;3.497084;200.0;-0.024414;0.02832;1.032227;0;0;48653;0;0;0
2024-11-05_10-10-57.991499;526616;-202.666626;24.3125;0.021667;3.497084;198.0;-0.022461;0.024414;1.033203;0;0;48803;0;0;0
2024-11-05_10-10-58.146756;526754;-197.333374;24.3125;0.021667;3.497084;199.0;-0.021484;0.022461;1.049805;0;0;48963;0;0;0
2024-11-05_10-10-58.335521;526897;-202.666626;24.3125;0.021667;3.497084;198.0;-0.018555;0.025391;1.046875;0;0;49153;0;0;0
2024-11-05_10-10-58.592615;527177;-201.333374;24.3125;0.021667;3.497084;200.0;-0.022461;0.02832;1.041016;0;0;49379;0;0;0
2024-11-05_10-10-58.792320;527314;-198.666626;24.3125;0.021667;3.497084;199.0;-0.022461;0.024414;1.040039;0;0;49593;0;0;0
2024-11-05_10-10-58.937090;527596;-202.666626;24.3125;0.021667;3.496667;197.0;-0.022461;0.018555;1.046875;0;0;49753;0;0;0
2024-11-05_10-10-59.203123;527736;-197.333374;24.3125;0.021667;3.497084;199.0;-0.023438;0.020508;1.037109;0;0;50012;0;0;0
2024-11-05_10-10-59.266235;527874;-202.666626;24.3125;0.021667;3.495417;197.0;-0.020508;0.021484;1.039062;0;0;50083;0;0;0
2024-11-05_10-10-59.407897;528028;-197.333374;24.3125;0.02125;3.495833;199.0;-0.022461;0.023438;1.042969;0;0;50223;0;0;0
2024-11-05_10-10-59.691625;528332;-209.333374;24.3125;0.021667;3.492917;198.0;-0.018555;0.024414;1.06543;0;0;50502;0;0;0
2024-11-05_10-10-59.862192;528478;-205.333374;24.3125;0.02125;3.495417;199.0;-0.022461;0.030273;1.068359;0;0;50676;0;0;0
2024-11-05_10-11-00.087895;528625;-212.0;24.3125;0.021667;3.4925;194.0;-0.020508;0.024414;1.072266;0;0;50893;0;0;0
2024-11-05_10-11-00.199042;528754;-209.333374;24.3125;0.021667;3.491667;197.0;-0.018555;0.022461;1.078125;0;0;51017;0;0;0
2024-11-05_10-11-00.324842;528897;-209.333374;24.3125;0.021667;3.491667;197.0;-0.020508;0.02832;1.099609;0;0;51152;0;0;0
2024-11-05_10-11-00.514027;529046;-210.666626;24.3125;0.021667;3.491667;198.0;-0.022461;0.032227;1.092773;0;0;51321;0;0;0
2024-11-05_10-11-00.764343;529326;-210.666626;24.3125;0.021667;3.491667;199.0;-0.020508;0.02832;1.114258;0;0;51586;0;0;0
2024-11-05_10-11-00.827623;529464;-221.333374;24.3125;0.021667;3.491667;201.0;-0.018555;0.029297;1.126953;0;0;51641;0;0;0
2024-11-05_10-11-01.048105;529608;-218.666626;24.3125;0.021667;3.491667;197.0;-0.015625;0.025391;1.137695;0;0;51862;0;0;0
2024-11-05_10-11-01.474057;530037;-213.333374;24.3125;0.021667;3.491667;202.0;-0.015625;0.026367;1.116211;0;0;52293;0;0;0
2024-11-05_10-11-01.693330;530316;-209.333374;24.3125;0.021667;3.491667;197.0;-0.018555;0.018555;1.089844;0;0;52503;0;0;0
2024-11-05_10-11-01.740902;530316;-209.333374;24.3125;0.021667;3.491667;197.0;-0.018555;0.018555;1.089844;0;0;52563;0;0;0
2024-11-05_10-11-01.898480;530454;-206.666626;24.3125;0.02125;3.491667;200.0;-0.018555;0.022461;1.082031;0;0;52712;0;0;0
2024-11-05_10-11-02.295267;530894;-202.666626;24.3125;0.021667;3.491667;199.0;-0.022461;0.022461;1.037109;0;0;53109;0;0;0
2024-11-05_10-11-02.356810;530894;-202.666626;24.3125;0.021667;3.491667;199.0;-0.022461;0.022461;1.037109;0;0;53177;0;0;0
2024-11-05_10-11-02.608806;531163;-197.333374;24.3125;0.021667;3.491667;200.0;-0.022461;0.022461;1.022461;0;0;53423;0;0;0
2024-11-05_10-11-02.692129;531307;-202.666626;24.3125;0.021667;0.021667;195.0;-0.020508;0.024414;1.020508;0;0;53493;0;0;0
2024-11-05_10-11-02.986550;531592;-198.666626;24.3125;0.021667;0.021667;198.0;-0.022461;0.026367;1.00293;0;0;53807;0;0;0
2024-11-05_10-11-03.160762;531726;-197.333374;24.3125;0.021667;3.491667;198.0;-0.022461;0.022461;1.003906;0;0;53972;0;0;0
2024-11-05_10-11-03.335061;531866;-193.333374;24.3125;0.021667;3.491667;198.0;-0.023438;0.023438;1.003906;0;0;54141;0;0;0
2024-11-05_10-11-03.491755;532004;-193.333374;24.3125;0.02125;3.491667;200.0;-0.022461;0.023438;0.99707;0;0;54291;0;0;0
2024-11-05_10-11-03.617522;532147;-197.333374;24.3125;0.021667;3.491667;199.0;-0.023438;0.022461;1.00293;0;0;54433;0;0;0
2024-11-05_10-11-03.775160;532436;-193.333374;24.3125;0.021667;3.491667;197.0;-0.025391;0.03125;1.012695;0;0;54593;0;0;0
2024-11-05_10-11-03.981525;532576;-197.333374;24.3125;0.021667;3.49125;195.0;-0.024414;0.033203;1.000977;0;0;54792;0;0;0
2024-11-05_10-11-04.139897;532715;-197.333374;24.3125;0.021667;3.491667;197.0;-0.024414;0.03125;1.00293;0;0;54953;0;0;0
2024-11-05_10-11-04.295637;532856;-197.333374;24.3125;0.02125;3.491667;197.0;-0.025391;0.033203;1.0;0;0;55113;0;0;0
2024-11-05_10-11-04.500702;533137;-193.333374;24.3125;0.021667;3.491667;197.0;-0.024414;0.026367;0.993164;0;0;55323;0;0;0
2024-11-05_10-11-04.674194;533274;-189.333374;24.3125;0.021667;3.491667;199.0;-0.023438;0.03125;0.994141;0;0;55483;0;0;0
2024-11-05_10-11-04.736366;533274;-189.333374;24.3125;0.021667;3.491667;199.0;-0.023438;0.03125;0.994141;0;0;55553;0;0;0
2024-11-05_10-11-04.895239;533417;-190.666626;24.3125;0.021667;3.491667;198.0;-0.026367;0.023438;0.995117;0;0;55700;0;0;0
2024-11-05_10-11-05.256311;533864;-197.333374;24.375;0.021667;3.491667;197.0;-0.022461;0.022461;0.991211;0;0;56078;0;0;0
2024-11-05_10-11-05.541359;534162;-193.333374;24.3125;0.021667;3.491667;199.0;-0.024414;0.022461;0.982422;0;0;56363;0;0;0
2024-11-05_10-11-05.667503;534304;-193.333374;24.3125;0.02125;3.491667;196.0;-0.023438;0.021484;0.986328;0;0;56483;0;0;0
2024-11-05_10-11-05.965831;534594;-189.333374;24.3125;0.021667;3.490833;196.0;-0.024414;0.025391;0.998047;0;0;56764;0;0;0
2024-11-05_10-11-06.123602;534737;-190.666626;24.3125;0.021667;3.490833;201.0;-0.021484;0.022461;0.992188;0;0;56952;0;0;0
2024-11-05_10-11-06.312544;534876;-189.333374;24.3125;0.021667;3.490833;198.0;-0.022461;0.018555;0.991211;0;0;57121;0;0;0
2024-11-05_10-11-06.470096;535017;-193.333374;24.3125;0.021667;3.4875;199.0;-0.022461;0.020508;0.998047;0;0;57283;0;0;0
2024-11-05_10-11-06.848107;535446;-189.333374;24.3125;0.021667;3.488334;202.0;-0.025391;0.021484;0.981445;0;0;57658;0;0;0
2024-11-05_10-11-07.004977;535585;-193.333374;24.3125;0.02125;3.48625;198.0;-0.022461;0.030273;0.984375;0;0;57823;0;0;0
2024-11-05_10-11-08.186040;536723;-197.333374;24.375;0.021667;3.48625;199.0;-0.020508;0.025391;1.024414;0;0;58993;0;0;0
2024-11-05_10-11-08.311623;536866;-206.666626;24.3125;0.021667;3.48625;195.0;-0.024414;0.027344;1.039062;0;0;59133;0;0;0
2024-11-05_10-11-08.485326;537017;-202.666626;24.3125;0.021667;3.48625;198.0;-0.020508;0.026367;1.053711;0;0;59302;0;0;0
2024-11-05_10-11-08.752183;537306;-209.333374;24.3125;0.021667;3.48625;197.0;-0.018555;0.026367;1.086914;0;0;59572;0;0;0
2024-11-05_10-11-08.830721;537444;-209.333374;24.375;0.021667;3.48625;200.0;-0.020508;0.023438;1.083008;0;0;59643;0;0;0
2024-11-05_10-11-09.019516;537588;-209.333374;24.3125;0.021667;3.48625;195.0;-0.020508;0.018555;1.089844;0;0;59833;0;0;0
2024-11-05_10-11-09.097968;537734;-210.666626;24.3125;0.021667;3.48625;196.0;-0.016602;0.016602;1.099609;0;0;59913;0;0;0
2024-11-05_10-11-09.255994;537876;-206.666626;24.3125;0.021667;3.48625;197.0;-0.018555;0.015625;1.097656;0;0;60073;0;0;0
2024-11-05_10-11-09.587703;538156;-210.666626;24.375;0.021667;3.48625;201.0;-0.018555;0.022461;1.097656;0;0;60388;0;0;0
2024-11-05_10-11-09.730802;538295;-209.333374;24.3125;0.021667;3.48625;200.0;-0.017578;0.024414;1.087891;0;0;60543;0;0;0
2024-11-05_10-11-09.887000;538437;-206.666626;24.375;0.021667;3.48625;197.0;-0.019531;0.029297;1.098633;0;0;60693;0;0;0
2024-11-05_10-11-10.090631;538717;-209.333374;24.3125;0.021667;3.48625;200.0;-0.017578;0.03125;1.095703;0;0;60903;0;0;0
2024-11-05_10-11-10.247282;538854;-208.0;24.375;0.021667;3.48625;197.0;-0.021484;0.027344;1.072266;0;0;61063;0;0;0
2024-11-05_10-11-10.481719;539002;-206.666626;24.3125;0.021667;3.48625;198.0;-0.020508;0.032227;1.073242;0;0;61292;0;0;0
2024-11-05_10-11-10.684959;539297;-209.333374;24.3125;0.021667;3.48625;195.0;-0.019531;0.039062;1.09082;0;0;61483;0;0;0
2024-11-05_10-11-10.951660;539564;-206.666626;24.375;0.021667;3.48625;198.0;-0.018555;0.033203;1.078125;0;0;61745;0;0;0
2024-11-05_10-11-11.155244;539707;-206.666626;24.3125;0.021667;3.486667;195.0;-0.018555;0.026367;1.085938;0;0;61964;0;0;0
2024-11-05_10-11-11.359106;539991;-209.333374;24.3125;3.48625;3.48625;196.0;-0.015625;0.021484;1.083984;0;0;62173;0;0;0
2024-11-05_10-11-11.468548;539991;-209.333374;24.3125;3.48625;3.48625;196.0;-0.015625;0.021484;1.083984;0;0;62273;0;0;0
2024-11-05_10-11-11.687234;540266;-206.666626;24.3125;0.021667;3.48625;198.0;-0.016602;0.021484;1.103516;0;0;62490;0;0;0
2024-11-05_10-11-11.765367;540404;-213.333374;24.3125;0.021667;3.48625;195.0;-0.015625;0.020508;1.104492;0;0;62583;0;0;0
2024-11-05_10-11-12.015415;540546;-202.666626;24.375;0.021667;3.48625;199.0;-0.017578;0.021484;1.104492;0;0;62832;0;0;0
2024-11-05_10-11-12.109741;540686;-210.666626;24.375;0.021667;3.48625;199.0;-0.014648;0.020508;1.114258;0;0;62911;0;0;0
2024-11-05_10-11-12.422896;540825;-210.666626;24.375;0.021667;3.48625;200.0;-0.015625;0.023438;1.103516;0;0;63086;0;0;0
2024-11-05_10-11-12.547913;541104;-213.333374;24.375;0.021667;3.48625;198.0;-0.015625;0.026367;1.115234;0;0;63363;0;0;0
2024-11-05_10-11-12.798076;541394;-209.333374;24.3125;0.021667;3.48625;198.0;-0.016602;0.024414;1.109375;0;0;63612;0;0;0
2024-11-05_10-11-12.876361;541394;-209.333374;24.3125;0.021667;3.48625;198.0;-0.016602;0.024414;1.109375;0;0;63683;0;0;0
2024-11-05_10-11-13.032647;541674;-213.333374;24.3125;0.021667;3.48625;195.0;-0.017578;0.023438;1.097656;0;0;63843;0;0;0
2024-11-05_10-11-13.173347;541816;-210.666626;24.375;0.021667;3.48625;200.0;-0.013672;0.02832;1.099609;0;0;63983;0;0;0
2024-11-05_10-11-13.454879;542103;-209.333374;24.375;0.021667;3.485417;200.0;-0.014648;0.026367;1.109375;0;0;64275;0;0;0
2024-11-05_10-11-13.642394;542245;-213.333374;24.3125;3.485;3.481667;200.0;-0.015625;0.025391;1.102539;0;0;64463;0;0;0
2024-11-05_10-11-13.954953;542517;-209.333374;24.3125;0.021667;3.481667;200.0;-0.013672;0.021484;1.097656;0;0;64773;0;0;0
2024-11-05_10-11-14.126954;542672;-210.666626;24.3125;0.021667;3.481667;201.0;-0.015625;0.027344;1.099609;0;0;64931;0;0;0
2024-11-05_10-11-14.457208;542966;-209.333374;24.3125;0.021667;3.480833;198.0;-0.017578;0.019531;1.074219;0;0;65260;0;0;0
2024-11-05_10-11-14.582299;543104;-205.333374;24.3125;0.021667;3.48125;199.0;-0.014648;0.021484;1.064453;0;0;65393;0;0;0
2024-11-05_10-11-14.801395;543384;-202.666626;24.3125;0.021667;3.480833;200.0;-0.014648;0.024414;1.052734;0;0;65585;0;0;0
2024-11-05_10-11-14.895494;543527;-205.333374;24.3125;0.021667;3.48125;198.0;-0.016602;0.023438;1.041992;0;0;65702;0;0;0
2024-11-05_10-11-15.051749;543664;-197.333374;24.3125;0.021667;3.480833;199.0;-0.019531;0.026367;1.037109;0;0;65853;0;0;0
2024-11-05_10-11-15.239240;543808;-202.666626;24.3125;0.021667;3.480833;197.0;-0.020508;0.03125;1.027344;0;0;66053;0;0;0
2024-11-05_10-11-15.349167;543956;-197.333374;24.3125;0.021667;3.480833;200.0;-0.019531;0.03125;1.009766;0;0;66162;0;0;0
2024-11-05_10-11-15.505422;544094;-197.333374;24.375;0.021667;3.480833;198.0;-0.021484;0.027344;1.012695;0;0;66311;0;0;0
2024-11-05_10-11-15.677298;544238;-190.666626;24.375;0.02125;3.480833;197.0;-0.021484;0.02832;0.99707;0;0;66482;0;0;0
2024-11-05_10-11-15.849551;544386;-190.666626;24.375;0.021667;3.480833;200.0;-0.022461;0.027344;0.974609;0;0;66641;0;0;0
2024-11-05_10-11-16.083919;544667;-190.666626;24.375;0.021667;3.480833;195.0;-0.022461;0.02832;0.963867;0;0;66867;0;0;0
2024-11-05_10-11-16.255798;544804;-190.666626;24.3125;0.021667;3.480833;199.0;-0.019531;0.02832;0.959961;0;0;67073;0;0;0
2024-11-05_10-11-16.443651;544952;-188.0;24.3125;0.021667;3.480833;200.0;-0.020508;0.023438;0.950195;0;0;67263;0;0;0
2024-11-05_10-11-16.615528;545254;-188.0;24.3125;3.480833;3.480833;196.0;-0.026367;0.02832;0.944336;0;0;67423;0;0;0
2024-11-05_10-11-16.756663;545402;-188.0;24.3125;0.021667;3.480833;198.0;-0.019531;0.027344;0.948242;0;0;67573;0;0;0
2024-11-05_10-11-16.975415;545548;-184.0;24.375;0.021667;3.48125;197.0;-0.020508;0.037109;0.960938;0;0;67793;0;0;0
2024-11-05_10-11-17.335334;545976;-184.0;24.375;0.021667;3.480833;197.0;-0.021484;0.022461;0.94043;0;0;68137;0;0;0
2024-11-05_10-11-17.539045;546114;-184.0;24.3125;0.021667;3.480833;195.0;-0.024414;0.019531;0.9375;0;0;68353;0;0;0
2024-11-05_10-11-17.695302;546258;-178.666626;24.375;0.021667;3.48125;197.0;-0.020508;0.011719;0.936523;0;0;68503;0;0;0
