datetime;time;load_cell;board_temperature;pressure_macki;pressure_tank;distance;acc_x;acc_y;acc_z;motor1_speed;motor2_speed;procedure_time;mechanical_state;motor1_temperature;motor2_temperature
2024-11-05_10-04-03.994273;112775;-2000.0;22.8125;0.021667;3.927917;92.0;0.017578;0.030273;1.030273;0;0;112870;0;0;0
2024-11-05_10-04-04.119566;112914;-2000.0;22.8125;0.021667;3.927917;92.0;0.016602;0.025391;1.021484;0;0;113000;0;0;0
2024-11-05_10-04-04.262298;112914;-2000.0;22.8125;0.021667;3.927917;92.0;0.016602;0.025391;1.021484;0;0;113145;0;0;0
2024-11-05_10-04-04.429579;113213;-2000.0;22.8125;3.927917;3.927917;94.0;0.012695;0.026367;1.016602;0;0;113310;0;0;0
2024-11-05_10-04-04.590622;113357;-2000.0;22.8125;0.021667;3.927917;93.0;0.013672;0.026367;1.010742;0;0;113480;0;0;0
2024-11-05_10-04-04.773882;113512;-2000.0;22.8125;0.021667;3.927917;94.0;0.014648;0.023438;1.014648;0;0;113649;0;0;0
2024-11-05_10-04-04.907344;113655;-2000.0;22.8125;0.021667;3.927917;94.0;0.014648;0.025391;1.003906;0;0;113788;0;0;0
2024-11-05_10-04-05.158003;113942;-2000.0;22.8125;0.021667;3.9275;93.0;0.010742;0.030273;0.993164;0;0;114035;0;0;0
2024-11-05_10-04-05.243365;113942;-2000.0;22.8125;0.021667;3.9275;93.0;0.010742;0.030273;0.993164;0;0;114117;0;0;0
2024-11-05_10-04-05.375606;114085;-2000.0;22.8125;0.021667;3.927917;94.0;0.010742;0.027344;1.0;0;0;114260;0;0;0
2024-11-05_10-04-05.532474;114224;-2000.0;22.8125;0.021667;3.927917;93.0;0.012695;0.030273;0.999023;0;0;114420;0;0;0
2024-11-05_10-04-05.695234;114502;-2000.0;22.8125;0.021667;3.927917;95.0;0.012695;0.029297;0.990234;0;0;114580;0;0;0
2024-11-05_10-04-05.864219;114646;-2000.0;22.8125;0.021667;3.927917;93.0;0.010742;0.025391;0.998047;0;0;114740;0;0;0
2024-11-05_10-04-06.065046;114795;-2000.0;22.75;0.021667;3.927917;90.0;0.014648;0.027344;1.005859;0;0;114949;0;0;0
2024-11-05_10-04-06.222259;114934;-2000.0;22.8125;0.021667;3.927917;93.0;0.014648;0.026367;1.008789;0;0;115067;0;0;0
2024-11-05_10-04-06.316669;115076;-2000.0;22.8125;0.021667;3.927917;96.0;0.012695;0.032227;1.009766;0;0;115199;0;0;0
2024-11-05_10-04-06.472919;115212;-2000.0;22.8125;0.021667;3.927917;95.0;0.011719;0.029297;1.011719;0;0;115360;0;0;0
2024-11-05_10-04-06.629638;115357;-2000.0;22.75;0.021667;3.927917;94.0;0.013672;0.02832;1.023438;0;0;115519;0;0;0
2024-11-05_10-04-06.805662;115505;-2000.0;22.8125;0.021667;3.927917;94.0;0.014648;0.027344;1.03125;0;0;115679;0;0;0
2024-11-05_10-04-06.956400;115646;-2000.0;22.75;0.021667;3.927917;92.0;0.014648;0.027344;1.026367;0;0;115830;0;0;0
2024-11-05_10-04-07.116276;115806;-2000.0;22.8125;0.021667;3.927917;95.0;0.014648;0.02832;1.017578;0;0;116000;0;0;0
2024-11-05_10-04-07.476856;116250;-2000.0;22.75;0.021667;3.9225;94.0;0.016602;0.025391;1.032227;0;0;116331;0;0;0
2024-11-05_10-04-07.585278;116250;-2000.0;22.75;0.021667;3.9225;94.0;0.016602;0.025391;1.032227;0;0;116458;0;0;0
2024-11-05_10-04-07.743276;116535;-2000.0;22.75;0.02125;3.927917;93.0;0.014648;0.027344;1.020508;0;0;116629;0;0;0
2024-11-05_10-04-07.910034;116673;-2000.0;22.75;0.021667;3.927917;93.0;0.014648;0.024414;1.016602;0;0;116787;0;0;0
2024-11-05_10-04-08.043448;116815;-2000.0;22.75;0.021667;3.927917;94.0;0.011719;0.025391;1.013672;0;0;116930;0;0;0
2024-11-05_10-04-08.350092;117095;-2000.0;22.75;0.021667;3.927917;94.0;0.012695;0.024414;1.008789;0;0;117230;0;0;0
2024-11-05_10-04-08.600854;117375;-2000.0;22.75;0.021667;3.927917;94.0;0.012695;0.025391;0.996094;0;0;117465;0;0;0
2024-11-05_10-04-08.679219;117375;-2000.0;22.75;0.021667;3.927917;94.0;0.012695;0.025391;0.996094;0;0;117549;0;0;0
2024-11-05_10-04-08.883248;117655;-2000.0;22.75;0.021667;3.9275;93.0;0.014648;0.022461;0.996094;0;0;117759;0;0;0
2024-11-05_10-04-08.977056;117655;-2000.0;22.75;0.021667;3.9275;93.0;0.014648;0.022461;0.996094;0;0;117859;0;0;0
2024-11-05_10-04-09.148930;117935;-2000.0;22.75;0.021667;3.92625;91.0;0.010742;0.032227;1.001953;0;0;118018;0;0;0
2024-11-05_10-04-09.320893;118074;-2000.0;22.75;0.021667;3.92625;93.0;0.008789;0.02832;1.007812;0;0;118187;0;0;0
2024-11-05_10-04-09.477573;118215;-2000.0;22.75;0.021667;3.92375;93.0;0.014648;0.025391;1.008789;0;0;118350;0;0;0
2024-11-05_10-04-09.633878;118360;-2000.0;22.75;0.021667;3.92375;94.0;0.016602;0.026367;1.001953;0;0;118514;0;0;0
2024-11-05_10-04-09.842113;118516;-2000.0;22.75;0.021667;3.9225;91.0;0.010742;0.025391;1.015625;0;0;118707;0;0;0
2024-11-05_10-04-10.035546;118789;-2000.0;22.75;0.316667;3.772917;94.0;0.012695;0.025391;1.022461;0;0;118906;0;0;0
2024-11-05_10-04-10.067413;118789;-2000.0;22.75;0.316667;3.772917;94.0;0.012695;0.025391;1.022461;0;0;118950;0;0;0
2024-11-05_10-04-10.395439;119092;-2000.0;22.75;0.6825;3.7525;92.0;0.013672;0.03125;1.026367;0;0;119280;0;0;0
2024-11-05_10-04-10.584773;119236;-2000.0;22.75;0.766667;3.73875;93.0;0.012695;0.03125;1.02832;0;0;119459;0;0;0
2024-11-05_10-04-10.762225;119525;-2000.0;22.75;0.868333;3.727917;92.0;0.013672;0.029297;1.033203;0;0;119649;0;0;0
2024-11-05_10-04-10.978836;119662;-2000.0;22.75;0.906667;3.722917;94.0;0.015625;0.024414;1.032227;0;0;119853;0;0;0
2024-11-05_10-04-11.045600;119805;-2000.0;22.75;0.933333;3.7225;94.0;0.012695;0.027344;1.025391;0;0;119907;0;0;0
2024-11-05_10-04-11.414646;119943;-2000.0;22.75;0.953333;3.7225;94.0;0.012695;0.023438;1.027344;0;0;120058;0;0;0
2024-11-05_10-04-11.493564;120222;-2000.0;22.75;0.964583;3.721667;91.0;0.015625;0.022461;1.03125;0;0;120370;0;0;0
2024-11-05_10-04-11.646301;120365;-2000.0;22.6875;0.965417;3.7225;93.0;0.012695;0.025391;1.022461;0;0;120520;0;0;0
2024-11-05_10-04-11.964088;120645;-2000.0;22.6875;0.970833;3.722917;94.0;0.009766;0.030273;1.016602;0;0;120832;0;0;0
2024-11-05_10-04-12.121688;120782;-2000.0;22.75;0.970833;3.722917;94.0;0.012695;0.024414;1.016602;0;0;120998;0;0;0
2024-11-05_10-04-12.294194;121063;-2000.0;22.6875;0.97125;3.722917;97.0;0.013672;0.023438;1.001953;0;0;121158;0;0;0
2024-11-05_10-04-12.451046;121207;-2000.0;22.6875;0.970833;3.722917;94.0;0.011719;0.024414;1.017578;0;0;121317;0;0;0
2024-11-05_10-04-12.655585;121355;-2000.0;22.6875;0.970833;3.722917;89.0;0.011719;0.02832;1.020508;0;0;121536;0;0;0
2024-11-05_10-04-12.984981;121498;-2000.0;22.6875;0.969583;3.722917;92.0;0.013672;0.02832;1.036133;0;0;121630;0;0;0
2024-11-05_10-04-13.063803;121786;-2000.0;22.6875;0.965417;3.724583;92.0;0.012695;0.03125;1.040039;0;0;121940;0;0;0
2024-11-05_10-04-13.846973;122507;-2000.0;22.6875;0.970833;3.7275;94.0;0.016602;0.032227;1.055664;0;0;122720;0;0;0
2024-11-05_10-04-13.999054;122795;-2000.0;22.6875;0.750417;3.727917;94.0;0.014648;0.035156;1.073242;0;0;122879;0;0;0
2024-11-05_10-04-14.218542;122937;-2000.0;22.6875;0.6475;3.727917;92.0;0.012695;0.027344;1.079102;0;0;123099;0;0;0
2024-11-05_10-04-14.326520;123082;-2000.0;22.6875;0.555417;3.727917;94.0;0.018555;0.02832;1.080078;0;0;123207;0;0;0
2024-11-05_10-04-14.476150;123225;-2000.0;22.6875;0.462083;3.728333;94.0;0.013672;0.035156;1.075195;0;0;123358;0;0;0
2024-11-05_10-04-14.709550;123364;-2000.0;22.6875;0.3475;3.72875;95.0;0.013672;0.032227;1.078125;0;0;123544;0;0;0
2024-11-05_10-04-14.792929;123505;-2000.0;22.6875;0.205;3.730834;93.0;0.019531;0.026367;1.083984;0;0;123674;0;0;0
2024-11-05_10-04-14.942834;123644;-2000.0;22.6875;0.0875;3.732917;97.0;0.017578;0.02832;1.073242;0;0;123830;0;0;0
2024-11-05_10-04-15.126020;123785;-2000.0;22.6875;0.03;3.73375;96.0;0.016602;0.027344;1.068359;0;0;124000;0;0;0
2024-11-05_10-04-15.377346;124073;-2000.0;22.6875;0.021667;3.733333;94.0;0.015625;0.027344;1.058594;0;0;124250;0;0;0
2024-11-05_10-04-15.533886;124231;-2000.0;22.6875;0.021667;3.73375;93.0;0.015625;0.024414;1.055664;0;0;124420;0;0;0
2024-11-05_10-04-15.596403;124382;-2000.0;22.6875;0.021667;3.733333;93.0;0.013672;0.021484;1.050781;0;0;124471;0;0;0
2024-11-05_10-04-15.752996;124529;-2000.0;22.6875;0.021667;3.73375;95.0;0.014648;0.020508;1.040039;0;0;124630;0;0;0
2024-11-05_10-04-16.035323;124815;-2000.0;22.6875;0.021667;3.733333;92.0;0.010742;0.027344;1.029297;0;0;124899;0;0;0
2024-11-05_10-04-16.208375;124952;-2000.0;22.6875;0.021667;3.733333;93.0;0.010742;0.023438;1.015625;0;0;125080;0;0;0
2024-11-05_10-04-16.475719;125232;-2000.0;22.6875;0.021667;3.733333;93.0;0.012695;0.025391;1.007812;0;0;125350;0;0;0
2024-11-05_10-04-16.632874;125380;-2000.0;22.6875;0.021667;3.733333;94.0;0.011719;0.02832;1.014648;0;0;125509;0;0;0
2024-11-05_10-04-16.696012;125380;-2000.0;22.6875;0.021667;3.733333;94.0;0.011719;0.02832;1.014648;0;0;125569;0;0;0
2024-11-05_10-04-16.837155;125525;-2000.0;22.6875;0.021667;3.733333;93.0;0.009766;0.030273;1.014648;0;0;125710;0;0;0
2024-11-05_10-04-16.994221;125662;-2000.0;22.6875;0.021667;3.733333;93.0;0.010742;0.02832;1.016602;0;0;125870;0;0;0
2024-11-05_10-04-17.152386;125940;-2000.0;22.6875;0.021667;3.734167;94.0;0.008789;0.029297;1.010742;0;0;126024;0;0;0
2024-11-05_10-04-17.324438;126076;-2000.0;22.6875;0.021667;3.734167;93.0;0.009766;0.035156;1.02832;0;0;126209;0;0;0
2024-11-05_10-04-17.465881;126222;-2000.0;22.6875;0.021667;3.737084;92.0;0.010742;0.032227;1.040039;0;0;126340;0;0;0
2024-11-05_10-04-17.623713;126365;-2000.0;22.6875;0.021667;3.738333;94.0;0.015625;0.02832;1.043945;0;0;126499;0;0;0
2024-11-05_10-04-17.781436;126505;-2000.0;22.6875;0.021667;3.73875;94.0;0.014648;0.024414;1.060547;0;0;126660;0;0;0
2024-11-05_10-04-17.924163;126650;-2000.0;22.6875;0.021667;3.73875;94.0;0.013672;0.030273;1.073242;0;0;126803;0;0;0
2024-11-05_10-04-18.174153;126946;-2000.0;22.625;0.021667;3.73875;93.0;0.017578;0.026367;1.094727;0;0;127044;0;0;0
2024-11-05_10-04-18.292596;126946;-2000.0;22.625;0.021667;3.73875;93.0;0.017578;0.026367;1.094727;0;0;127138;0;0;0
2024-11-05_10-04-18.567548;127245;-2000.0;22.625;0.021667;3.73875;94.0;0.014648;0.02832;1.106445;0;0;127450;0;0;0
2024-11-05_10-04-18.744991;127404;-2000.0;22.625;0.021667;3.73875;92.0;0.016602;0.026367;1.103516;0;0;127619;0;0;0
2024-11-05_10-04-18.870124;127546;-2000.0;22.625;0.021667;3.73875;95.0;0.015625;0.029297;1.102539;0;0;127750;0;0;0
2024-11-05_10-04-19.045538;127695;-2000.0;22.625;0.021667;3.73875;94.0;0.013672;0.02832;1.086914;0;0;127911;0;0;0
2024-11-05_10-04-19.167585;127975;-2000.0;22.6875;0.021667;3.73875;92.0;0.014648;0.029297;1.069336;0;0;128054;0;0;0
2024-11-05_10-04-19.334113;128115;-2000.0;22.625;0.021667;3.739166;94.0;0.015625;0.02832;1.054688;0;0;128220;0;0;0
2024-11-05_10-04-19.534026;128258;-2000.0;22.625;0.021667;3.73875;93.0;0.012695;0.030273;1.048828;0;0;128390;0;0;0
2024-11-05_10-04-19.650662;128406;-2000.0;22.625;0.021667;3.73875;94.0;0.012695;0.029297;1.045898;0;0;128540;0;0;0
2024-11-05_10-04-19.836406;128545;-2000.0;22.625;0.021667;3.73875;94.0;0.015625;0.02832;1.030273;0;0;128710;0;0;0
2024-11-05_10-04-20.049300;128832;-2000.0;22.625;3.73875;3.73875;94.0;0.012695;0.030273;1.018555;0;0;128916;0;0;0
2024-11-05_10-04-20.137252;128832;-2000.0;22.625;3.73875;3.73875;94.0;0.012695;0.030273;1.018555;0;0;129010;0;0;0
2024-11-05_10-04-20.294296;128975;-2000.0;22.625;0.021667;3.73875;94.0;0.007812;0.030273;1.013672;0;0;129170;0;0;0
2024-11-05_10-04-20.450690;129115;-2000.0;22.625;0.021667;3.73875;94.0;0.008789;0.025391;1.012695;0;0;129318;0;0;0
2024-11-05_10-04-20.607861;129392;-2000.0;22.625;0.021667;3.73875;93.0;0.010742;0.024414;0.999023;0;0;129480;0;0;0
2024-11-05_10-04-20.749429;129531;-2000.0;22.625;0.021667;3.73875;94.0;0.011719;0.033203;1.010742;0;0;129630;0;0;0
2024-11-05_10-04-20.921438;129684;-2000.0;22.625;3.73875;3.739166;92.0;0.011719;0.026367;1.015625;0;0;129792;0;0;0
2024-11-05_10-04-21.079377;129825;-2000.0;22.625;0.021667;3.73875;94.0;0.013672;0.029297;1.021484;0;0;129962;0;0;0
2024-11-05_10-04-21.236532;129983;-2000.0;22.625;0.021667;3.73875;94.0;0.011719;0.027344;1.013672;0;0;130110;0;0;0
2024-11-05_10-04-21.393685;130128;-2000.0;22.625;0.021667;3.73875;92.0;0.012695;0.024414;1.011719;0;0;130262;0;0;0
2024-11-05_10-04-21.536152;130283;-2000.0;22.625;0.021667;3.73875;94.0;0.011719;0.03418;1.024414;0;0;130410;0;0;0
2024-11-05_10-04-21.692044;130432;-2000.0;22.625;3.73875;3.73875;94.0;0.009766;0.032227;1.019531;0;0;130570;0;0;0
2024-11-05_10-04-21.864594;130575;-2000.0;22.625;0.021667;3.73875;94.0;0.008789;0.03125;1.026367;0;0;130730;0;0;0
2024-11-05_10-04-22.038233;130712;-2000.0;22.625;0.021667;3.73875;96.0;0.010742;0.027344;1.023438;0;0;130886;0;0;0
2024-11-05_10-04-22.163873;130858;-2000.0;22.625;0.021667;3.73875;96.0;0.013672;0.027344;1.018555;0;0;131040;0;0;0
2024-11-05_10-04-22.337069;131006;-2000.0;22.625;0.021667;3.73875;94.0;0.011719;0.026367;1.012695;0;0;131219;0;0;0
2024-11-05_10-04-22.493891;131155;-2000.0;22.625;0.021667;3.73875;94.0;0.011719;0.027344;1.02832;0;0;131350;0;0;0
2024-11-05_10-04-22.636094;131295;-2000.0;22.625;0.021667;3.73875;90.0;0.012695;0.03125;1.02832;0;0;131500;0;0;0
2024-11-05_10-04-22.808587;131575;-2000.0;22.625;0.021667;3.73875;93.0;0.012695;0.025391;1.022461;0;0;131682;0;0;0
2024-11-05_10-04-22.950083;131716;-2000.0;22.625;0.021667;3.74;93.0;0.011719;0.023438;1.013672;0;0;131830;0;0;0
2024-11-05_10-04-23.106276;131865;-2000.0;22.625;0.021667;3.73875;93.0;0.010742;0.027344;1.026367;0;0;131979;0;0;0
2024-11-05_10-04-23.278533;132006;-2000.0;22.625;0.021667;3.73875;95.0;0.008789;0.026367;1.022461;0;0;132150;0;0;0
2024-11-05_10-04-23.434790;132143;-2000.0;22.5625;0.021667;3.73875;95.0;0.010742;0.023438;1.016602;0;0;132300;0;0;0
2024-11-05_10-04-23.591787;132291;-2000.0;22.625;0.021667;3.741667;93.0;0.010742;0.023438;1.005859;0;0;132460;0;0;0
2024-11-05_10-04-23.754695;132435;-2000.0;22.625;0.021667;3.7475;94.0;0.008789;0.023438;1.010742;0;0;132630;0;0;0
2024-11-05_10-04-23.905580;132592;-2000.0;22.625;0.021667;3.7475;93.0;0.011719;0.019531;1.011719;0;0;132770;0;0;0
2024-11-05_10-04-24.047629;132746;-2000.0;22.5625;0.021667;3.74375;94.0;0.012695;0.025391;1.013672;0;0;132930;0;0;0
2024-11-05_10-04-24.204402;132901;-2000.0;22.625;0.021667;3.742084;93.0;0.011719;0.027344;1.011719;0;0;133080;0;0;0
2024-11-05_10-04-24.361071;133055;-2000.0;22.5625;3.74625;3.74625;93.0;0.013672;0.025391;1.015625;0;0;133240;0;0;0
2024-11-05_10-04-24.549682;133197;-2000.0;22.625;0.021667;3.7475;93.0;0.011719;0.025391;1.017578;0;0;133413;0;0;0
2024-11-05_10-04-24.675357;133350;-2000.0;22.5625;0.021667;3.7475;95.0;0.013672;0.026367;1.03418;0;0;133550;0;0;0
2024-11-05_10-04-24.942999;133636;-2000.0;22.5625;0.021667;3.747083;94.0;0.011719;0.032227;1.03125;0;0;133808;0;0;0
2024-11-05_10-04-24.990263;133782;-2000.0;22.5625;0.021667;3.746667;91.0;0.011719;0.02832;1.027344;0;0;133870;0;0;0
2024-11-05_10-04-25.162283;133931;-2000.0;22.5625;0.021667;3.74625;93.0;0.008789;0.030273;1.030273;0;0;134039;0;0;0
2024-11-05_10-04-25.318995;134075;-2000.0;22.5625;0.02125;3.744167;93.0;0.008789;0.02832;1.022461;0;0;134180;0;0;0
2024-11-05_10-04-25.507681;134215;-2000.0;22.5625;0.021667;3.746667;93.0;0.007812;0.02832;1.021484;0;0;134391;0;0;0
2024-11-05_10-04-25.758397;134355;-2000.0;22.5625;0.021667;3.74625;93.0;0.008789;0.030273;1.016602;0;0;134489;0;0;0
2024-11-05_10-04-25.931581;134646;-2000.0;22.5625;0.021667;3.7475;94.0;0.011719;0.027344;0.998047;0;0;134810;0;0;0
2024-11-05_10-04-26.104468;134786;-2000.0;22.5625;0.021667;3.73875;94.0;0.010742;0.024414;0.984375;0;0;134970;0;0;0
2024-11-05_10-04-26.245741;134932;-2000.0;22.5625;0.021667;3.73875;97.0;0.007812;0.025391;0.984375;0;0;135120;0;0;0
2024-11-05_10-04-26.417694;135075;-2000.0;22.5625;0.021667;3.7475;95.0;0.011719;0.027344;0.987305;0;0;135271;0;0;0
2024-11-05_10-04-26.575388;135372;-2000.0;22.5625;0.021667;3.7475;92.0;0.008789;0.02832;0.988281;0;0;135453;0;0;0
2024-11-05_10-04-26.716502;135372;-2000.0;22.5625;0.021667;3.7475;92.0;0.008789;0.02832;0.988281;0;0;135590;0;0;0
2024-11-05_10-04-26.936613;135673;-2000.0;22.5625;3.747083;3.7475;95.0;0.005859;0.027344;1.006836;0;0;135805;0;0;0
2024-11-05_10-04-27.046408;135818;-2000.0;22.5625;0.021667;3.746667;95.0;0.009766;0.027344;1.007812;0;0;135922;0;0;0
2024-11-05_10-04-27.187725;135973;-2000.0;22.5625;0.021667;3.7475;95.0;0.008789;0.024414;0.989258;0;0;136060;0;0;0
2024-11-05_10-04-27.361667;136115;-2000.0;22.5625;0.021667;3.7475;93.0;0.011719;0.02832;0.987305;0;0;136229;0;0;0
2024-11-05_10-04-27.502233;136250;-2000.0;22.5625;0.021667;3.747083;94.0;0.008789;0.029297;0.992188;0;0;136380;0;0;0
2024-11-05_10-04-27.658703;136396;-2000.0;22.5625;0.02125;3.7475;95.0;0.007812;0.02832;1.006836;0;0;136520;0;0;0
2024-11-05_10-04-27.831294;136545;-2000.0;22.5625;0.021667;3.7475;92.0;0.009766;0.02832;1.013672;0;0;136709;0;0;0
2024-11-05_10-04-28.066527;136833;-2000.0;22.5625;0.02125;3.7475;94.0;0.009766;0.025391;1.014648;0;0;136939;0;0;0
2024-11-05_10-04-28.113402;136833;-2000.0;22.5625;0.02125;3.7475;94.0;0.009766;0.025391;1.014648;0;0;136990;0;0;0
2024-11-05_10-04-28.270068;136975;-2000.0;22.5625;0.021667;3.74625;92.0;0.011719;0.02832;1.006836;0;0;137150;0;0;0
2024-11-05_10-04-28.552785;137255;-2000.0;22.5625;0.021667;3.7475;94.0;0.007812;0.03125;1.017578;0;0;137413;0;0;0
2024-11-05_10-04-28.740418;137525;-2000.0;22.5625;0.021667;3.747083;92.0;0.009766;0.025391;0.993164;0;0;137609;0;0;0
2024-11-05_10-04-29.210878;137942;-2000.0;22.5625;0.021667;3.744583;91.0;0.008789;0.026367;0.979492;0;0;138082;0;0;0
2024-11-05_10-04-29.390358;138088;-2000.0;22.5625;0.021667;3.744583;95.0;0.007812;0.02832;0.975586;0;0;138260;0;0;0
2024-11-05_10-04-29.531796;138236;-2000.0;22.5625;0.021667;3.744583;96.0;0.008789;0.027344;0.985352;0;0;138410;0;0;0
2024-11-05_10-04-29.800621;138542;-2000.0;22.5625;0.021667;3.745417;94.0;0.006836;0.030273;0.99707;0;0;138666;0;0;0
2024-11-05_10-04-30.100624;138826;-2000.0;22.5;0.021667;3.7475;92.0;0.005859;0.027344;1.021484;0;0;138963;0;0;0
2024-11-05_10-04-30.200527;138826;-2000.0;22.5;0.021667;3.7475;92.0;0.005859;0.027344;1.021484;0;0;139042;0;0;0
2024-11-05_10-04-30.317496;138975;-2000.0;22.5625;0.021667;3.742917;93.0;0.009766;0.02832;1.036133;0;0;139191;0;0;0
2024-11-05_10-04-30.463944;139255;-2000.0;22.5;0.021667;3.742917;93.0;0.010742;0.026367;1.043945;0;0;139340;0;0;0
2024-11-05_10-04-30.620202;139395;-2000.0;22.5625;0.021667;3.743334;92.0;0.011719;0.02832;1.044922;0;0;139490;0;0;0
2024-11-05_10-04-30.778108;139536;-2000.0;22.5625;0.021667;3.742917;93.0;0.011719;0.029297;1.024414;0;0;139650;0;0;0
2024-11-05_10-04-30.934300;139688;-2000.0;22.5625;0.021667;3.745417;94.0;0.009766;0.02832;1.001953;0;0;139810;0;0;0
2024-11-05_10-04-31.091604;139836;-2000.0;22.5;0.021667;3.7425;93.0;0.010742;0.030273;0.992188;0;0;139969;0;0;0
2024-11-05_10-04-31.248579;139972;-2000.0;22.5625;0.021667;3.742917;94.0;0.005859;0.03125;0.97168;0;0;140120;0;0;0
2024-11-05_10-04-31.405384;140115;-2000.0;22.5;0.021667;3.74;94.0;0.00293;0.026367;0.962891;0;0;140279;0;0;0
2024-11-05_10-04-31.577641;140253;-2000.0;22.5625;3.740834;3.73875;94.0;0.00293;0.02832;0.939453;0;0;140439;0;0;0
2024-11-05_10-04-31.734871;140395;-2000.0;22.5;0.021667;3.7475;93.0;0.00293;0.026367;0.915039;0;0;140598;0;0;0
2024-11-05_10-04-31.876453;140675;-2000.0;22.5;0.021667;3.74;96.0;0.001953;0.027344;0.901367;0;0;140750;0;0;0
2024-11-05_10-04-32.033620;140812;-2000.0;22.5;0.021667;3.73875;94.0;0.003906;0.029297;0.894531;0;0;140900;0;0;0
2024-11-05_10-04-32.206057;140965;-2000.0;22.5;3.73875;3.73875;95.0;0.003906;0.023438;0.886719;0;0;141080;0;0;0
2024-11-05_10-04-32.440629;141107;-2000.0;22.5;0.021667;3.73875;96.0;0.000977;0.025391;0.876953;0;0;141306;0;0;0
2024-11-05_10-04-32.503683;141263;-2000.0;22.5;0.021667;3.73875;93.0;-0.004883;0.026367;0.879883;0;0;141372;0;0;0
2024-11-05_10-04-32.644744;141404;-2000.0;22.5;0.021667;3.73875;92.0;0.000977;0.030273;0.897461;0;0;141520;0;0;0
2024-11-05_10-04-32.848885;141541;-2000.0;22.5;3.73875;3.739166;94.0;0.001953;0.03125;0.912109;0;0;141719;0;0;0
2024-11-05_10-04-32.974352;141690;-2000.0;22.5;0.021667;3.73875;90.0;0.00293;0.03125;0.911133;0;0;141833;0;0;0
2024-11-05_10-04-33.148085;141842;-2000.0;22.5;0.021667;3.73875;94.0;0.000977;0.026367;0.936523;0;0;141999;0;0;0
2024-11-05_10-04-33.273079;141991;-2000.0;22.5;0.021667;3.739166;95.0;0.00293;0.029297;0.96582;0;0;142150;0;0;0
2024-11-05_10-04-33.429694;142135;-2000.0;22.5;0.021667;3.73875;92.0;0.003906;0.032227;0.981445;0;0;142299;0;0;0
2024-11-05_10-04-33.664511;142416;-2000.0;22.5;0.02125;3.73875;95.0;0.007812;0.025391;1.000977;0;0;142536;0;0;0
2024-11-05_10-04-33.742930;142416;-2000.0;22.5;0.02125;3.73875;95.0;0.007812;0.025391;1.000977;0;0;142611;0;0;0
2024-11-05_10-04-33.905257;142690;-2000.0;22.5;0.021667;3.73875;94.0;0.009766;0.029297;1.019531;0;0;142772;0;0;0
2024-11-05_10-04-34.056941;142838;-2000.0;22.5;0.021667;3.73875;93.0;0.009766;0.025391;1.035156;0;0;142930;0;0;0
2024-11-05_10-04-34.307649;142985;-2000.0;22.5;0.021667;3.73875;94.0;0.008789;0.025391;1.044922;0;0;143175;0;0;0
2024-11-05_10-04-34.370062;143122;-2000.0;22.5;0.021667;3.73875;93.0;0.009766;0.022461;1.035156;0;0;143250;0;0;0
2024-11-05_10-04-34.542359;143273;-2000.0;22.5;0.021667;3.73875;93.0;0.008789;0.026367;1.017578;0;0;143410;0;0;0
2024-11-05_10-04-34.683938;143418;-2000.0;22.5;0.021667;3.73875;94.0;0.007812;0.026367;1.006836;0;0;143560;0;0;0
2024-11-05_10-04-34.856277;143563;-2000.0;22.5;0.021667;3.73875;92.0;0.003906;0.024414;0.996094;0;0;143721;0;0;0
2024-11-05_10-04-34.998562;143706;-2000.0;22.5;0.021667;3.73875;92.0;0.004883;0.025391;0.987305;0;0;143870;0;0;0
2024-11-05_10-04-35.155607;143856;-2000.0;22.5;0.021667;3.739166;91.0;0.006836;0.027344;0.970703;0;0;144030;0;0;0
2024-11-05_10-04-35.311860;144012;-2000.0;22.5;0.021667;3.73875;92.0;0.006836;0.027344;0.946289;0;0;144191;0;0;0
2024-11-05_10-04-35.485916;144162;-2000.0;22.5;0.021667;3.73875;95.0;0.006836;0.024414;0.942383;0;0;144360;0;0;0
2024-11-05_10-04-35.626184;144313;-2000.0;22.5;0.021667;3.739166;92.0;0.00293;0.026367;0.93457;0;0;144500;0;0;0
2024-11-05_10-04-35.767349;144463;-2000.0;22.5;0.021667;3.73875;94.0;0.000977;0.02832;0.919922;0;0;144646;0;0;0
2024-11-05_10-04-35.940082;144622;-2000.0;22.5;3.73875;3.73875;92.0;0.003906;0.03125;0.928711;0;0;144819;0;0;0
2024-11-05_10-04-36.114116;144913;-2000.0;22.5;0.021667;3.739166;93.0;0.004883;0.024414;0.926758;0;0;144991;0;0;0
2024-11-05_10-04-36.365169;145058;-2000.0;22.5;0.021667;3.739166;93.0;0.004883;0.033203;0.932617;0;0;145239;0;0;0
2024-11-05_10-04-36.427310;145205;-2000.0;22.5;0.021667;3.73875;94.0;0.00293;0.029297;0.951172;0;0;145300;0;0;0
2024-11-05_10-04-36.600288;145348;-2000.0;22.5;0.021667;3.73875;95.0;0.00293;0.032227;0.981445;0;0;145469;0;0;0
2024-11-05_10-04-36.725423;145495;-2000.0;22.5;0.021667;3.739166;93.0;0.00293;0.027344;0.993164;0;0;145600;0;0;0
2024-11-05_10-04-36.882376;145636;-2000.0;22.5;0.021667;3.73875;91.0;0.006836;0.03125;1.018555;0;0;145760;0;0;0
2024-11-05_10-04-37.039634;145782;-2000.0;22.5;0.021667;3.739166;96.0;0.005859;0.027344;1.032227;0;0;145920;0;0;0
2024-11-05_10-04-37.195872;145933;-2000.0;22.4375;0.021667;3.739166;93.0;0.007812;0.029297;1.054688;0;0;146063;0;0;0
2024-11-05_10-04-37.383821;146073;-2000.0;22.5;0.021667;3.739166;95.0;0.008789;0.029297;1.071289;0;0;146259;0;0;0
2024-11-05_10-04-37.525114;146219;-2000.0;22.4375;0.021667;3.73875;95.0;0.012695;0.027344;1.085938;0;0;146390;0;0;0
2024-11-05_10-04-37.682531;146368;-2000.0;22.5;0.021667;3.73875;94.0;0.011719;0.030273;1.086914;0;0;146549;0;0;0
2024-11-05_10-04-37.839162;146515;-2000.0;22.4375;0.021667;3.739166;94.0;0.012695;0.02832;1.085938;0;0;146700;0;0;0
2024-11-05_10-04-37.965185;146658;-2000.0;22.5;0.021667;3.73875;97.0;0.014648;0.026367;1.097656;0;0;146842;0;0;0
2024-11-05_10-04-38.153434;146812;-2000.0;22.4375;0.021667;3.73875;92.0;0.014648;0.024414;1.102539;0;0;147029;0;0;0
2024-11-05_10-04-38.403744;147115;-2000.0;22.5;0.021667;3.73875;94.0;0.013672;0.023438;1.106445;0;0;147252;0;0;0
2024-11-05_10-04-38.671417;147412;-2000.0;22.4375;0.021667;3.73875;91.0;0.014648;0.022461;1.113281;0;0;147542;0;0;0
2024-11-05_10-04-38.782438;147554;-2000.0;22.4375;3.73875;3.739166;94.0;0.014648;0.025391;1.108398;0;0;147652;0;0;0
2024-11-05_10-04-38.959704;147696;-2000.0;22.4375;3.73875;3.73875;91.0;0.014648;0.024414;1.111328;0;0;147828;0;0;0
2024-11-05_10-04-39.081007;147829;-2000.0;22.4375;0.021667;3.73875;92.0;0.011719;0.030273;1.117188;0;0;147960;0;0;0
2024-11-05_10-04-39.252941;147975;-2000.0;22.4375;0.02125;3.739166;94.0;0.011719;0.02832;1.109375;0;0;148129;0;0;0
2024-11-05_10-04-39.441054;148116;-2000.0;22.4375;0.021667;3.739166;95.0;0.014648;0.025391;1.099609;0;0;148291;0;0;0
2024-11-05_10-04-39.597211;148265;-2000.0;22.4375;0.021667;3.73875;94.0;0.012695;0.025391;1.087891;0;0;148461;0;0;0
2024-11-05_10-04-39.706582;148396;-2000.0;22.4375;0.021667;3.73875;96.0;0.011719;0.025391;1.070312;0;0;148580;0;0;0
2024-11-05_10-04-39.863847;148545;-2000.0;22.4375;0.021667;3.73875;94.0;0.010742;0.029297;1.060547;0;0;148720;0;0;0
2024-11-05_10-04-40.068457;148825;-2000.0;22.4375;0.021667;3.739166;93.0;0.008789;0.02832;1.035156;0;0;148944;0;0;0
2024-11-05_10-04-40.341374;149095;-2000.0;22.4375;0.021667;3.739166;93.0;0.003906;0.033203;0.978516;0;0;149201;0;0;0
2024-11-05_10-04-40.504614;149233;-2000.0;22.4375;0.021667;3.73875;94.0;0.0;0.033203;0.962891;0;0;149370;0;0;0
2024-11-05_10-04-40.660859;149375;-2000.0;22.4375;0.021667;3.739166;92.0;-0.00293;0.029297;0.928711;0;0;149529;0;0;0
2024-11-05_10-04-40.874525;149655;-2000.0;22.4375;0.021667;3.739166;94.0;-0.001953;0.026367;0.919922;0;0;149750;0;0;0
2024-11-05_10-04-40.974697;149655;-2000.0;22.4375;0.021667;3.739166;94.0;-0.001953;0.026367;0.919922;0;0;149850;0;0;0
2024-11-05_10-04-41.241423;149944;-2000.0;22.4375;0.021667;3.739166;93.0;0.0;0.027344;0.946289;0;0;150110;0;0;0
2024-11-05_10-04-41.441003;150088;-2000.0;22.4375;0.021667;3.739166;92.0;-0.001953;0.030273;0.93457;0;0;150310;0;0;0
2024-11-05_10-04-41.641077;150384;-2000.0;22.4375;0.021667;3.73875;94.0;0.00293;0.032227;0.924805;0;0;150510;0;0;0
2024-11-05_10-04-41.751582;150523;-2000.0;22.4375;3.73875;3.73875;92.0;-0.003906;0.021484;0.913086;0;0;150630;0;0;0
2024-11-05_10-04-41.939498;150673;-2000.0;22.4375;3.73875;3.73625;95.0;0.001953;0.036133;0.921875;0;0;150809;0;0;0
2024-11-05_10-04-42.111797;150819;-2000.0;22.4375;0.021667;3.736667;93.0;-0.00293;0.030273;0.922852;0;0;150988;0;0;0
2024-11-05_10-04-42.283682;150966;-2000.0;22.4375;0.021667;3.737917;94.0;-0.00293;0.035156;0.9375;0;0;151148;0;0;0
2024-11-05_10-04-42.486887;151231;-2000.0;22.4375;0.021667;3.73875;94.0;-0.004883;0.041992;0.936523;0;0;151360;0;0;0
2024-11-05_10-04-42.768127;151512;-2000.0;22.4375;0.021667;3.73875;96.0;-0.00293;0.033203;0.925781;0;0;151639;0;0;0
2024-11-05_10-04-42.846253;151512;-2000.0;22.4375;0.021667;3.73875;96.0;-0.00293;0.033203;0.925781;0;0;151720;0;0;0
2024-11-05_10-04-43.002524;151792;-2000.0;22.375;0.021667;3.73875;93.0;0.000977;0.024414;0.938477;0;0;151871;0;0;0
2024-11-05_10-04-43.174915;151938;-2000.0;22.4375;0.021667;3.73375;92.0;-0.00293;0.023438;0.920898;0;0;152052;0;0;0
2024-11-05_10-04-43.315539;152092;-2000.0;22.4375;0.021667;3.733333;93.0;0.0;0.026367;0.924805;0;0;152190;0;0;0
2024-11-05_10-04-43.518587;152238;-2000.0;22.4375;0.021667;3.73875;94.0;-0.004883;0.023438;0.916992;0;0;152362;0;0;0
2024-11-05_10-04-43.628046;152383;-2000.0;22.375;0.021667;3.739166;92.0;-0.005859;0.027344;0.913086;0;0;152500;0;0;0
2024-11-05_10-04-43.799914;152526;-2000.0;22.375;0.021667;3.73375;92.0;0.0;0.023438;0.922852;0;0;152660;0;0;0
2024-11-05_10-04-43.940538;152666;-2000.0;22.4375;0.021667;3.734584;92.0;-0.004883;0.025391;0.904297;0;0;152810;0;0;0
2024-11-05_10-04-44.097259;152818;-2000.0;22.375;0.021667;3.73875;92.0;-0.00293;0.021484;0.87207;0;0;152980;0;0;0
2024-11-05_10-04-44.269123;152965;-2000.0;22.375;0.021667;3.733333;93.0;-0.005859;0.019531;0.855469;0;0;153145;0;0;0
2024-11-05_10-04-44.503515;153252;-2000.0;22.375;0.021667;3.733333;93.0;-0.006836;0.017578;0.842773;0;0;153380;0;0;0
2024-11-05_10-04-44.565998;153252;-2000.0;22.375;0.021667;3.733333;93.0;-0.006836;0.017578;0.842773;0;0;153440;0;0;0
2024-11-05_10-04-44.737886;153406;-2000.0;22.375;0.021667;3.733333;90.0;-0.005859;0.021484;0.833984;0;0;153595;0;0;0
2024-11-05_10-04-44.878507;153530;-2000.0;22.375;0.021667;3.733333;94.0;-0.015625;0.022461;0.814453;0;0;153760;0;0;0
2024-11-05_10-04-45.034757;153685;-2000.0;22.375;0.021667;3.733333;92.0;-0.00293;0.033203;0.816406;0;0;153910;0;0;0
2024-11-05_10-04-45.206918;153987;-2000.0;22.375;0.021667;3.733333;92.0;-0.012695;0.020508;0.770508;0;0;154090;0;0;0
2024-11-05_10-04-45.441320;154147;-2000.0;22.375;0.021667;3.73375;94.0;-0.009766;0.017578;0.751953;0;0;154310;0;0;0
2024-11-05_10-04-45.503813;154295;-2000.0;22.375;0.021667;3.733333;94.0;-0.010742;0.019531;0.772461;0;0;154371;0;0;0
2024-11-05_10-04-45.675693;154438;-2000.0;22.375;0.021667;3.733333;94.0;-0.007812;0.017578;0.803711;0;0;154550;0;0;0
2024-11-05_10-04-45.847569;154585;-2000.0;22.375;0.021667;3.73375;93.0;-0.009766;0.013672;0.805664;0;0;154723;0;0;0
2024-11-05_10-04-46.082212;154727;-2000.0;22.375;0.021667;3.739166;93.0;-0.005859;0.027344;0.828125;0;0;154914;0;0;0
2024-11-05_10-04-46.144783;154875;-2000.0;22.375;0.021667;3.73875;96.0;-0.012695;0.029297;0.859375;0;0;155010;0;0;0
2024-11-05_10-04-46.301090;155015;-2000.0;22.375;0.021667;3.73375;93.0;-0.009766;0.038086;0.879883;0;0;155179;0;0;0
2024-11-05_10-04-46.535471;155296;-2000.0;22.375;0.021667;3.739166;90.0;-0.009766;0.041992;0.918945;0;0;155412;0;0;0
2024-11-05_10-04-46.597972;155296;-2000.0;22.375;0.021667;3.739166;90.0;-0.009766;0.041992;0.918945;0;0;155470;0;0;0
2024-11-05_10-04-46.754223;155435;-2000.0;22.375;0.021667;3.73375;92.0;-0.005859;0.039062;0.928711;0;0;155630;0;0;0
2024-11-05_10-04-46.894852;155575;-2000.0;22.375;0.021667;3.733333;90.0;-0.008789;0.040039;0.953125;0;0;155774;0;0;0
2024-11-05_10-04-47.087109;155855;-2000.0;22.375;0.021667;3.73375;93.0;-0.000977;0.036133;0.964844;0;0;155952;0;0;0
2024-11-05_10-04-47.223379;155990;-2000.0;22.375;0.021667;3.73375;92.0;0.0;0.032227;0.996094;0;0;156100;0;0;0
2024-11-05_10-04-47.379629;156146;-2000.0;22.375;3.733333;3.733333;93.0;-0.003906;0.027344;1.0;0;0;156260;0;0;0
2024-11-05_10-04-47.535872;156287;-2000.0;22.375;0.021667;3.733333;92.0;0.0;0.023438;1.014648;0;0;156413;0;0;0
2024-11-05_10-04-47.801495;156585;-2000.0;22.375;0.021667;3.733333;92.0;-0.000977;0.027344;1.041016;0;0;156678;0;0;0
2024-11-05_10-04-47.848647;156585;-2000.0;22.375;0.021667;3.733333;92.0;-0.000977;0.027344;1.041016;0;0;156729;0;0;0
2024-11-05_10-04-48.005031;156729;-2000.0;22.375;0.021667;3.733333;93.0;-0.001953;0.022461;1.061523;0;0;156880;0;0;0
2024-11-05_10-04-48.271135;157033;-2000.0;22.375;0.021667;3.733333;92.0;0.001953;0.02832;1.047852;0;0;157140;0;0;0
2024-11-05_10-04-48.443005;157183;-2000.0;22.375;0.021667;3.73375;92.0;-0.00293;0.026367;1.055664;0;0;157309;0;0;0
2024-11-05_10-04-48.630515;157325;-2000.0;22.375;0.021667;3.733333;94.0;-0.003906;0.03125;1.03418;0;0;157510;0;0;0
2024-11-05_10-04-48.786758;157462;-2000.0;22.375;0.021667;3.733333;96.0;-0.006836;0.02832;1.013672;0;0;157674;0;0;0
2024-11-05_10-04-49.021146;157754;-2000.0;22.375;0.021667;3.73375;94.0;-0.003906;0.027344;1.004883;0;0;157896;0;0;0
2024-11-05_10-04-49.099260;157754;-2000.0;22.375;0.021667;3.73375;94.0;-0.003906;0.027344;1.004883;0;0;157975;0;0;0
2024-11-05_10-04-49.240602;158045;-2000.0;22.375;0.021667;3.733333;92.0;0.0;0.022461;0.956055;0;0;158124;0;0;0
2024-11-05_10-04-49.506233;158186;-2000.0;22.375;0.021667;3.72875;95.0;-0.000977;0.027344;0.97168;0;0;158385;0;0;0
2024-11-05_10-04-49.568725;158335;-2000.0;22.375;0.021667;3.730834;94.0;-0.007812;0.02832;0.974609;0;0;158440;0;0;0
2024-11-05_10-04-49.724976;158472;-2000.0;22.375;0.02125;3.729167;92.0;-0.004883;0.029297;0.959961;0;0;158600;0;0;0
2024-11-05_10-04-49.896847;158616;-2000.0;22.375;0.021667;3.728333;96.0;-0.009766;0.035156;0.96582;0;0;158760;0;0;0
2024-11-05_10-04-50.037475;158755;-2000.0;22.375;0.021667;3.727917;94.0;-0.008789;0.03125;0.981445;0;0;158910;0;0;0
2024-11-05_10-04-50.194501;158895;-2000.0;22.375;0.021667;3.728333;95.0;-0.006836;0.024414;0.987305;0;0;159069;0;0;0
2024-11-05_10-04-50.366378;159035;-2000.0;22.375;0.021667;3.728333;92.0;-0.008789;0.026367;0.97168;0;0;159240;0;0;0
2024-11-05_10-04-50.616290;159316;-2000.0;22.375;0.021667;3.727917;94.0;-0.006836;0.024414;0.978516;0;0;159480;0;0;0
2024-11-05_10-04-50.647627;159452;-2000.0;22.3125;0.021667;3.727917;94.0;-0.003906;0.021484;0.999023;0;0;159535;0;0;0
2024-11-05_10-04-50.835118;159604;-2000.0;22.3125;0.021667;3.728333;92.0;-0.005859;0.015625;0.987305;0;0;159710;0;0;0
2024-11-05_10-04-51.069496;159755;-2000.0;22.3125;0.021667;3.728333;94.0;-0.005859;0.024414;0.995117;0;0;159936;0;0;0
2024-11-05_10-04-51.131913;159895;-2000.0;22.375;0.021667;3.728333;93.0;-0.003906;0.020508;1.008789;0;0;160010;0;0;0
2024-11-05_10-04-51.304401;160041;-2000.0;22.3125;0.021667;3.727917;92.0;-0.004883;0.019531;1.008789;0;0;160174;0;0;0
2024-11-05_10-04-51.445010;160185;-2000.0;22.3125;0.021667;3.728333;93.0;-0.005859;0.017578;1.010742;0;0;160320;0;0;0
2024-11-05_10-04-51.695019;160335;-2000.0;22.3125;0.021667;3.727917;95.0;-0.005859;0.033203;1.042969;0;0;160540;0;0;0
2024-11-05_10-04-51.773146;160475;-2000.0;22.375;0.021667;3.728333;92.0;-0.010742;0.029297;1.052734;0;0;160637;0;0;0
2024-11-05_10-04-51.929396;160613;-2000.0;22.375;0.021667;3.727917;94.0;-0.00293;0.023438;1.074219;0;0;160809;0;0;0
2024-11-05_10-04-52.070011;160763;-2000.0;22.3125;0.021667;3.728333;91.0;-0.003906;0.038086;1.082031;0;0;160950;0;0;0
2024-11-05_10-04-52.226682;160905;-2000.0;22.375;0.021667;3.727917;94.0;-0.005859;0.032227;1.022461;0;0;161100;0;0;0
2024-11-05_10-04-52.382928;161042;-2000.0;22.375;0.021667;3.727917;94.0;-0.007812;0.037109;1.012695;0;0;161260;0;0;0
2024-11-05_10-04-52.539176;161330;-2000.0;22.3125;0.021667;3.727917;94.0;-0.009766;0.037109;0.992188;0;0;161420;0;0;0
2024-11-05_10-04-52.695436;161475;-2000.0;22.3125;0.021667;3.727917;94.0;0.000977;0.033203;0.994141;0;0;161570;0;0;0
2024-11-05_10-04-52.898561;161612;-2000.0;22.3125;0.021667;3.727917;94.0;-0.008789;0.032227;1.004883;0;0;161736;0;0;0
2024-11-05_10-04-53.007939;161756;-2000.0;22.375;0.02125;3.728333;93.0;-0.001953;0.029297;1.000977;0;0;161880;0;0;0
2024-11-05_10-04-53.164189;161896;-2000.0;22.3125;0.021667;3.727917;95.0;-0.004883;0.03418;1.041016;0;0;162040;0;0;0
2024-11-05_10-04-53.336309;162043;-2000.0;22.3125;0.021667;3.728333;93.0;-0.000977;0.019531;1.068359;0;0;162208;0;0;0
2024-11-05_10-04-53.476938;162185;-2000.0;22.3125;0.021667;3.728333;93.0;-0.006836;0.027344;1.043945;0;0;162350;0;0;0
2024-11-05_10-04-53.633174;162337;-2000.0;22.3125;0.021667;3.728333;91.0;-0.00293;0.008789;1.077148;0;0;162503;0;0;0
2024-11-05_10-04-53.805056;162492;-2000.0;22.3125;3.728333;3.728333;96.0;-0.00293;0.014648;1.074219;0;0;162680;0;0;0
2024-11-05_10-04-54.023803;162793;-2000.0;22.3125;0.021667;3.728333;90.0;-0.000977;0.03125;1.098633;0;0;162906;0;0;0
2024-11-05_10-04-54.598402;163376;-2000.0;22.3125;0.021667;3.727917;91.0;-0.013672;0.03418;1.064453;0;0;163470;0;0;0
2024-11-05_10-04-54.725410;163376;-2000.0;22.3125;0.021667;3.727917;91.0;-0.013672;0.03418;1.064453;0;0;163595;0;0;0
2024-11-05_10-04-54.944166;163655;-2000.0;22.3125;0.021667;3.728333;94.0;-0.00293;0.024414;1.026367;0;0;163819;0;0;0
2024-11-05_10-04-55.060424;163792;-2000.0;22.3125;0.021667;3.728333;95.0;-0.010742;0.025391;1.039062;0;0;163930;0;0;0
2024-11-05_10-04-55.212136;163938;-2000.0;22.3125;0.021667;3.727917;95.0;0.000977;0.017578;1.066406;0;0;164090;0;0;0
2024-11-05_10-04-55.460466;164228;-2000.0;22.3125;0.021667;3.728333;91.0;-0.010742;0.016602;1.018555;0;0;164343;0;0;0
2024-11-05_10-04-55.577093;164228;-2000.0;22.3125;0.021667;3.728333;91.0;-0.010742;0.016602;1.018555;0;0;164424;0;0;0
2024-11-05_10-04-55.686614;164365;-2000.0;22.3125;0.021667;3.728333;94.0;-0.006836;0.040039;0.972656;0;0;164560;0;0;0
2024-11-05_10-04-55.837353;164503;-2000.0;22.3125;0.021667;3.728333;96.0;-0.013672;0.03125;0.999023;0;0;164710;0;0;0
2024-11-05_10-04-56.016456;164797;-2000.0;22.3125;0.021667;0.021667;94.0;-0.010742;0.023438;1.02832;0;0;164889;0;0;0
2024-11-05_10-04-56.188322;164947;-2000.0;22.3125;0.021667;3.727917;93.0;-0.010742;0.029297;0.991211;0;0;165059;0;0;0
2024-11-05_10-04-56.313723;165095;-2000.0;22.3125;0.021667;3.7275;90.0;-0.014648;0.016602;0.959961;0;0;165190;0;0;0
2024-11-05_10-04-56.532469;165241;-2000.0;22.3125;0.021667;3.727917;94.0;-0.016602;0.015625;0.96582;0;0;165408;0;0;0
2024-11-05_10-04-56.719977;165393;-2000.0;22.3125;0.021667;3.728333;93.0;-0.009766;0.027344;1.009766;0;0;165582;0;0;0
2024-11-05_10-04-56.876227;165542;-2000.0;22.3125;0.021667;3.725;90.0;-0.009766;0.021484;1.056641;0;0;165746;0;0;0
2024-11-05_10-04-56.938723;165676;-2000.0;22.3125;3.724583;3.724167;96.0;-0.010742;0.021484;1.054688;0;0;165810;0;0;0
2024-11-05_10-04-57.079351;165825;-2000.0;22.3125;0.021667;3.72375;94.0;-0.009766;0.012695;1.051758;0;0;165965;0;0;0
2024-11-05_10-04-57.267520;165955;-2000.0;22.3125;3.725417;3.725417;94.0;-0.012695;0.039062;1.058594;0;0;166147;0;0;0
2024-11-05_10-04-57.408146;166082;-2000.0;22.3125;0.021667;3.72375;95.0;-0.009766;0.023438;1.06543;0;0;166290;0;0;0
2024-11-05_10-04-57.689412;166378;-2000.0;22.25;0.021667;3.727917;95.0;-0.003906;0.029297;1.077148;0;0;166569;0;0;0
2024-11-05_10-04-57.876907;166666;-2000.0;22.3125;0.021667;3.728333;94.0;-0.007812;0.019531;1.078125;0;0;166750;0;0;0
2024-11-05_10-04-58.033158;166812;-2000.0;22.3125;0.02125;3.727917;91.0;-0.003906;0.045898;1.084961;0;0;166910;0;0;0
2024-11-05_10-04-58.220652;166955;-2000.0;22.3125;0.021667;3.727917;94.0;-0.008789;0.046875;1.079102;0;0;167087;0;0;0
2024-11-05_10-04-58.361854;167094;-2000.0;22.25;0.021667;3.727917;91.0;-0.007812;0.035156;1.097656;0;0;167224;0;0;0
2024-11-05_10-04-58.549470;167236;-2000.0;22.3125;0.021667;3.728333;93.0;-0.005859;0.027344;1.09668;0;0;167425;0;0;0
2024-11-05_10-04-58.736966;167515;-2000.0;22.3125;0.021667;3.728333;94.0;-0.006836;0.019531;1.047852;0;0;167609;0;0;0
2024-11-05_10-04-58.815098;167515;-2000.0;22.3125;0.021667;3.728333;94.0;-0.006836;0.019531;1.047852;0;0;167690;0;0;0
2024-11-05_10-04-58.971355;167655;-2000.0;22.3125;0.02125;3.7275;92.0;-0.011719;0.019531;1.006836;0;0;167850;0;0;0
2024-11-05_10-04-59.143860;167795;-2000.0;22.3125;0.021667;3.7225;92.0;-0.008789;0.022461;0.991211;0;0;168010;0;0;0
2024-11-05_10-04-59.285063;167932;-2000.0;22.3125;0.021667;3.7225;96.0;-0.011719;0.040039;1.001953;0;0;168160;0;0;0
2024-11-05_10-04-59.503942;168231;-2000.0;22.25;0.021667;3.723334;94.0;-0.011719;0.032227;1.027344;0;0;168370;0;0;0
2024-11-05_10-04-59.583183;168231;-2000.0;22.25;0.021667;3.723334;94.0;-0.011719;0.032227;1.027344;0;0;168460;0;0;0
2024-11-05_10-04-59.843106;168531;-2000.0;22.25;0.021667;3.722917;92.0;-0.011719;0.035156;1.053711;0;0;168715;0;0;0
2024-11-05_10-04-59.889986;168679;-2000.0;22.3125;0.02125;3.722917;92.0;-0.010742;0.040039;1.030273;0;0;168773;0;0;0
2024-11-05_10-05-00.124274;168832;-2000.0;22.25;0.021667;3.722917;90.0;-0.014648;0.029297;0.990234;0;0;168960;0;0;0
2024-11-05_10-05-00.233646;168976;-2000.0;22.25;0.021667;3.722917;94.0;-0.013672;0.021484;1.015625;0;0;169100;0;0;0
2024-11-05_10-05-00.374953;169113;-2000.0;22.25;0.021667;3.722917;94.0;-0.017578;0.02832;1.011719;0;0;169249;0;0;0
2024-11-05_10-05-00.595058;169255;-2000.0;22.25;0.02125;3.7225;92.0;-0.010742;0.024414;1.00293;0;0;169473;0;0;0
2024-11-05_10-05-00.777790;169545;-2000.0;22.25;0.021667;3.7225;93.0;-0.008789;0.017578;1.038086;0;0;169649;0;0;0
2024-11-05_10-05-00.846787;169545;-2000.0;22.25;0.021667;3.7225;93.0;-0.008789;0.017578;1.038086;0;0;169720;0;0;0
2024-11-05_10-05-01.004111;169682;-2000.0;22.25;0.021667;3.722917;93.0;-0.013672;0.024414;1.040039;0;0;169868;0;0;0
2024-11-05_10-05-01.172010;169825;-2000.0;22.25;0.021667;3.7225;94.0;-0.005859;0.010742;1.053711;0;0;170043;0;0;0
2024-11-05_10-05-01.630467;170392;-2000.0;22.25;0.021667;3.7225;95.0;-0.016602;0.029297;1.12793;0;0;170500;0;0;0
2024-11-05_10-05-01.779132;170535;-2000.0;22.25;0.021667;3.722917;93.0;-0.019531;0.027344;1.087891;0;0;170650;0;0;0
2024-11-05_10-05-01.945473;170677;-2000.0;22.25;0.021667;3.7225;93.0;-0.017578;0.041016;1.091797;0;0;170820;0;0;0
2024-11-05_10-05-02.112034;170825;-2000.0;22.25;0.021667;3.7225;91.0;-0.027344;0.019531;1.083008;0;0;170994;0;0;0
2024-11-05_10-05-02.378664;171115;-2000.0;22.25;3.722917;3.722917;92.0;-0.019531;0.00293;1.045898;0;0;171260;0;0;0
2024-11-05_10-05-02.594445;171262;-2000.0;22.25;3.722917;3.722917;93.0;-0.035156;0.00293;1.039062;0;0;171457;0;0;0
2024-11-05_10-05-02.745367;171411;-2000.0;22.25;0.021667;3.7225;93.0;-0.030273;0.012695;1.024414;0;0;171600;0;0;0
2024-11-05_10-05-02.904113;171547;-2000.0;22.25;0.021667;3.722917;94.0;-0.029297;0.013672;1.003906;0;0;171774;0;0;0
2024-11-05_10-05-03.108232;171844;-2000.0;22.25;0.021667;3.7225;95.0;-0.033203;0.026367;1.032227;0;0;171969;0;0;0
2024-11-05_10-05-03.335759;171987;-2000.0;22.25;0.021667;3.722083;93.0;-0.043945;0.027344;0.999023;0;0;172209;0;0;0
2024-11-05_10-05-03.508031;172286;-2000.0;22.25;0.02125;3.7225;92.0;-0.043945;0.041016;0.983398;0;0;172390;0;0;0
2024-11-05_10-05-03.726810;172435;-2000.0;22.25;0.02125;3.722917;94.0;-0.042969;0.032227;0.991211;0;0;172599;0;0;0
2024-11-05_10-05-03.836145;172572;-2000.0;22.25;0.021667;3.720834;94.0;-0.047852;0.035156;0.993164;0;0;172710;0;0;0
2024-11-05_10-05-03.976818;172718;-2000.0;22.25;0.021667;3.7175;94.0;-0.046875;0.032227;0.950195;0;0;172850;0;0;0
2024-11-05_10-05-04.133072;172862;-2000.0;22.25;0.021667;3.71875;89.0;-0.045898;0.035156;0.993164;0;0;173000;0;0;0
2024-11-05_10-05-04.352257;173008;-2000.0;22.25;0.02125;3.722917;93.0;-0.049805;0.03125;1.009766;0;0;173193;0;0;0
2024-11-05_10-05-04.680442;173435;-2000.0;22.25;0.021667;3.7225;94.0;-0.048828;0.03418;1.09082;0;0;173560;0;0;0
2024-11-05_10-05-04.774264;173435;-2000.0;22.25;0.021667;3.7225;94.0;-0.048828;0.03418;1.09082;0;0;173650;0;0;0
2024-11-05_10-05-04.914861;173576;-2000.0;22.25;0.021667;3.7175;92.0;-0.048828;0.026367;1.075195;0;0;173790;0;0;0
2024-11-05_10-05-05.086768;173865;-2000.0;22.25;0.021667;3.7225;95.0;-0.052734;0.016602;1.051758;0;0;173959;0;0;0
2024-11-05_10-05-05.258633;174003;-2000.0;22.1875;0.021667;3.717917;92.0;-0.047852;0.019531;1.047852;0;0;174129;0;0;0
2024-11-05_10-05-05.415369;174146;-2000.0;22.25;0.021667;3.7175;94.0;-0.052734;0.030273;1.050781;0;0;174290;0;0;0
2024-11-05_10-05-05.540366;174302;-2000.0;22.25;3.717084;3.717084;93.0;-0.055664;0.030273;1.014648;0;0;174416;0;0;0
2024-11-05_10-05-05.712249;174443;-2000.0;22.1875;0.021667;3.717084;93.0;-0.055664;0.029297;0.988281;0;0;174590;0;0;0
2024-11-05_10-05-05.884114;174576;-2000.0;22.1875;0.021667;3.717084;95.0;-0.054688;0.023438;0.984375;0;0;174759;0;0;0
2024-11-05_10-05-06.055904;174732;-2000.0;22.1875;0.021667;3.717084;95.0;-0.052734;0.022461;1.008789;0;0;174929;0;0;0
2024-11-05_10-05-06.165336;174881;-2000.0;22.1875;0.021667;3.72;91.0;-0.056641;0.024414;1.007812;0;0;175040;0;0;0
2024-11-05_10-05-06.462680;175174;-2000.0;22.1875;0.021667;3.717084;93.0;-0.052734;0.033203;0.951172;0;0;175317;0;0;0
2024-11-05_10-05-06.697857;175465;-2000.0;22.1875;0.021667;3.7175;96.0;-0.058594;0.019531;0.950195;0;0;175555;0;0;0
2024-11-05_10-05-06.792419;175465;-2000.0;22.1875;0.021667;3.7175;96.0;-0.058594;0.019531;0.950195;0;0;175670;0;0;0
2024-11-05_10-05-06.964282;175603;-2000.0;22.25;0.021667;3.717084;93.0;-0.053711;0.020508;0.956055;0;0;175830;0;0;0
2024-11-05_10-05-07.104958;175895;-2000.0;22.1875;0.021667;3.717084;92.0;-0.061523;0.029297;0.972656;0;0;175979;0;0;0
2024-11-05_10-05-07.308114;176032;-2000.0;22.1875;0.02125;3.717084;91.0;-0.052734;0.03125;1.038086;0;0;176190;0;0;0
2024-11-05_10-05-07.636424;176322;-2000.0;22.1875;0.021667;3.717084;94.0;-0.061523;0.042969;1.025391;0;0;176509;0;0;0
2024-11-05_10-05-07.870802;176606;-2000.0;22.1875;0.021667;3.7175;93.0;-0.05957;0.033203;1.038086;0;0;176724;0;0;0
2024-11-05_10-05-08.073930;176743;-2000.0;22.1875;0.021667;3.717084;91.0;-0.060547;0.02832;1.040039;0;0;176949;0;0;0
2024-11-05_10-05-08.199662;176885;-2000.0;22.1875;0.021667;3.717084;95.0;-0.060547;0.016602;1.048828;0;0;177078;0;0;0
2024-11-05_10-05-08.355920;177023;-2000.0;22.1875;0.021667;3.7175;94.0;-0.058594;0.009766;1.03125;0;0;177239;0;0;0
2024-11-05_10-05-08.512473;177165;-2000.0;22.1875;3.717084;3.717084;94.0;-0.05957;0.010742;1.042969;0;0;177390;0;0;0
2024-11-05_10-05-08.778122;177463;-2000.0;22.1875;0.02125;3.717084;93.0;-0.058594;0.027344;1.027344;0;0;177650;0;0;0
2024-11-05_10-05-08.824905;177463;-2000.0;22.1875;0.02125;3.717084;93.0;-0.058594;0.027344;1.027344;0;0;177700;0;0;0
2024-11-05_10-05-09.153443;177912;-2000.0;22.1875;0.021667;3.7175;92.0;-0.067383;0.036133;1.010742;0;0;178001;0;0;0
2024-11-05_10-05-09.294072;178056;-2000.0;22.1875;0.021667;3.717084;93.0;-0.060547;0.051758;1.029297;0;0;178170;0;0;0
2024-11-05_10-05-09.482231;178196;-2000.0;22.1875;0.021667;3.7175;94.0;-0.066406;0.051758;1.03125;0;0;178368;0;0;0
2024-11-05_10-05-09.732236;178486;-2000.0;22.1875;0.021667;3.717084;91.0;-0.0625;0.019531;1.12207;0;0;178610;0;0;0
2024-11-05_10-05-09.919723;178624;-2000.0;22.1875;0.021667;3.7175;93.0;-0.058594;0.019531;1.124023;0;0;178800;0;0;0
2024-11-05_10-05-10.122853;178902;-2000.0;22.1875;0.021667;3.7175;94.0;-0.057617;0.019531;1.200195;0;0;179009;0;0;0
2024-11-05_10-05-10.263477;179045;-2000.0;22.1875;0.021667;3.715;96.0;-0.056641;0.011719;1.209961;0;0;179132;0;0;0
2024-11-05_10-05-10.388616;179181;-2000.0;22.1875;0.021667;3.715417;96.0;-0.053711;0.022461;1.155273;0;0;179260;0;0;0
2024-11-05_10-05-10.545471;179315;-2000.0;22.1875;0.021667;3.7175;91.0;-0.060547;0.014648;1.155273;0;0;179419;0;0;0
2024-11-05_10-05-10.811101;179595;-2000.0;22.1875;0.021667;3.717084;90.0;-0.066406;0.022461;1.116211;0;0;179679;0;0;0
2024-11-05_10-05-10.967355;179732;-2000.0;22.1875;0.021667;3.717084;90.0;-0.067383;0.032227;1.06543;0;0;179840;0;0;0
2024-11-05_10-05-11.139221;179884;-2000.0;22.1875;3.717084;3.717084;95.0;-0.06543;0.037109;1.040039;0;0;180010;0;0;0
2024-11-05_10-05-11.357975;180033;-2000.0;22.1875;0.021667;3.717084;95.0;-0.064453;0.040039;1.03125;0;0;180227;0;0;0
2024-11-05_10-05-11.624015;180315;-2000.0;22.1875;0.021667;3.711667;93.0;-0.069336;0.023438;0.977539;0;0;180494;0;0;0
2024-11-05_10-05-11.889632;180595;-2000.0;22.1875;0.021667;3.7175;96.0;-0.073242;0.030273;0.979492;0;0;180772;0;0;0
2024-11-05_10-05-11.952268;180726;-2000.0;22.1875;0.021667;3.717084;92.0;-0.06543;0.022461;0.978516;0;0;180829;0;0;0
2024-11-05_10-05-12.124148;180876;-2000.0;22.1875;0.021667;3.7175;93.0;-0.072266;0.02832;0.976562;0;0;180997;0;0;0
2024-11-05_10-05-12.264676;181025;-2000.0;22.1875;0.021667;3.71625;93.0;-0.071289;0.014648;0.984375;0;0;181140;0;0;0
2024-11-05_10-05-12.421010;181164;-2000.0;22.1875;0.021667;3.7175;95.0;-0.070312;0.020508;1.013672;0;0;181300;0;0;0
2024-11-05_10-05-12.577831;181305;-2000.0;22.1875;0.021667;3.712084;93.0;-0.069336;0.017578;1.013672;0;0;181460;0;0;0
2024-11-05_10-05-12.749784;181444;-2000.0;22.1875;0.021667;3.712084;94.0;-0.072266;0.025391;1.016602;0;0;181629;0;0;0
2024-11-05_10-05-12.984155;181722;-2000.0;22.1875;0.021667;3.714583;93.0;-0.069336;0.019531;1.045898;0;0;181844;0;0;0
2024-11-05_10-05-13.171655;181866;-2000.0;22.1875;0.021667;3.711667;93.0;-0.069336;0.027344;1.051758;0;0;182034;0;0;0
2024-11-05_10-05-13.437297;182147;-2000.0;22.1875;0.021667;3.712084;92.0;-0.064453;0.037109;1.050781;0;0;182309;0;0;0
2024-11-05_10-05-13.515764;182295;-2000.0;22.1875;0.021667;3.712084;94.0;-0.071289;0.027344;1.060547;0;0;182390;0;0;0
2024-11-05_10-05-13.672099;182432;-2000.0;22.1875;0.021667;3.712084;93.0;-0.073242;0.03125;1.05957;0;0;182550;0;0;0
2024-11-05_10-05-13.922101;182577;-2000.0;22.1875;0.021667;3.712084;94.0;-0.06543;0.019531;1.046875;0;0;182797;0;0;0
2024-11-05_10-05-13.984587;182722;-2000.0;22.1875;0.021667;3.712084;92.0;-0.073242;0.024414;1.037109;0;0;182866;0;0;0
2024-11-05_10-05-14.250224;183021;-2000.0;22.1875;0.021667;3.711667;93.0;-0.068359;0.025391;1.073242;0;0;183130;0;0;0
2024-11-05_10-05-14.328362;183021;-2000.0;22.1875;0.021667;3.711667;93.0;-0.068359;0.025391;1.073242;0;0;183195;0;0;0
2024-11-05_10-05-14.531983;183302;-2000.0;22.1875;0.021667;3.712084;94.0;-0.069336;0.023438;1.051758;0;0;183407;0;0;0
2024-11-05_10-05-14.703855;183446;-2000.0;22.1875;0.021667;3.712084;94.0;-0.071289;0.025391;1.027344;0;0;183579;0;0;0
2024-11-05_10-05-14.781958;183446;-2000.0;22.1875;0.021667;3.712084;94.0;-0.071289;0.025391;1.027344;0;0;183659;0;0;0
2024-11-05_10-05-14.906982;183595;-2000.0;22.125;0.021667;3.712084;96.0;-0.071289;0.024414;1.032227;0;0;183788;0;0;0
2024-11-05_10-05-15.139349;183885;-2000.0;22.125;0.021667;3.712084;95.0;-0.069336;0.018555;1.050781;0;0;184009;0;0;0
2024-11-05_10-05-15.235504;184022;-2000.0;22.1875;0.021667;3.712084;91.0;-0.068359;0.019531;1.057617;0;0;184108;0;0;0
2024-11-05_10-05-15.454329;184167;-2000.0;22.1875;0.02125;3.711667;92.0;-0.067383;0.027344;1.060547;0;0;184329;0;0;0
2024-11-05_10-05-15.579569;184312;-2000.0;22.1875;0.021667;3.711667;94.0;-0.066406;0.017578;1.067383;0;0;184427;0;0;0
2024-11-05_10-05-15.720127;184456;-2000.0;22.125;0.021667;3.711667;92.0;-0.071289;0.020508;1.079102;0;0;184588;0;0;0
2024-11-05_10-05-15.861151;184597;-2000.0;22.1875;0.021667;3.712084;94.0;-0.068359;0.016602;1.080078;0;0;184740;0;0;0
2024-11-05_10-05-16.017408;184743;-2000.0;22.1875;0.021667;3.711667;95.0;-0.066406;0.027344;1.079102;0;0;184890;0;0;0
2024-11-05_10-05-16.314278;185024;-2000.0;22.125;0.02125;3.712084;92.0;-0.067383;0.032227;1.056641;0;0;185186;0;0;0
2024-11-05_10-05-16.595847;185304;-2000.0;22.1875;0.02125;3.712084;93.0;-0.072266;0.038086;1.073242;0;0;185467;0;0;0
2024-11-05_10-05-16.767634;185445;-2000.0;22.125;0.021667;3.712084;94.0;-0.073242;0.03125;1.05957;0;0;185640;0;0;0
2024-11-05_10-05-17.033343;185724;-2000.0;22.125;3.712084;3.712084;95.0;-0.072266;0.022461;1.099609;0;0;185905;0;0;0
2024-11-05_10-05-17.345826;186005;-2000.0;22.125;3.712084;3.711667;92.0;-0.064453;0.020508;1.103516;0;0;186220;0;0;0
2024-11-05_10-05-17.424135;186146;-2000.0;22.125;0.021667;3.712084;92.0;-0.069336;0.013672;1.092773;0;0;186300;0;0;0
2024-11-05_10-05-17.613065;186302;-2000.0;22.125;0.021667;3.712084;97.0;-0.06543;0.020508;1.094727;0;0;186489;0;0;0
2024-11-05_10-05-17.738048;186445;-2000.0;22.125;0.021667;3.711667;95.0;-0.066406;0.017578;1.082031;0;0;186620;0;0;0
2024-11-05_10-05-17.894296;186586;-2000.0;22.125;0.021667;3.712084;95.0;-0.071289;0.021484;1.046875;0;0;186758;0;0;0
2024-11-05_10-05-18.253681;187012;-2000.0;22.125;0.021667;3.712084;95.0;-0.071289;0.026367;1.03125;0;0;187105;0;0;0
2024-11-05_10-05-18.441195;187012;-2000.0;22.125;0.021667;3.712084;95.0;-0.071289;0.026367;1.03125;0;0;187176;0;0;0
2024-11-05_10-05-18.535137;187292;-2000.0;22.125;0.021667;3.711667;92.0;-0.069336;0.027344;1.053711;0;0;187407;0;0;0
2024-11-05_10-05-18.691563;187435;-2000.0;22.125;0.021667;3.712084;96.0;-0.070312;0.02832;1.060547;0;0;187569;0;0;0
2024-11-05_10-05-18.832195;187574;-2000.0;22.125;0.021667;3.710417;93.0;-0.070312;0.03125;1.079102;0;0;187710;0;0;0
2024-11-05_10-05-18.988750;187715;-2000.0;22.125;0.021667;3.712084;94.0;-0.06543;0.033203;1.089844;0;0;187870;0;0;0
2024-11-05_10-05-19.145003;187855;-2000.0;22.125;0.021667;3.7075;94.0;-0.068359;0.030273;1.087891;0;0;188020;0;0;0
2024-11-05_10-05-19.301891;187994;-2000.0;22.125;0.021667;3.7075;91.0;-0.067383;0.026367;1.109375;0;0;188180;0;0;0
2024-11-05_10-05-19.489326;188274;-2000.0;22.125;0.021667;3.712084;93.0;-0.063477;0.030273;1.130859;0;0;188354;0;0;0
2024-11-05_10-05-19.849347;188546;-2000.0;22.125;0.021667;3.70625;93.0;-0.06543;0.022461;1.121094;0;0;188717;0;0;0
2024-11-05_10-05-19.927477;188702;-2000.0;22.125;0.021667;3.706667;92.0;-0.06543;0.02832;1.106445;0;0;188810;0;0;0
2024-11-05_10-05-20.193071;188839;-2000.0;22.125;0.021667;3.712084;95.0;-0.068359;0.021484;1.09375;0;0;189063;0;0;0
2024-11-05_10-05-20.255597;188991;-2000.0;22.125;0.021667;3.712084;92.0;-0.066406;0.024414;1.095703;0;0;189118;0;0;0
2024-11-05_10-05-20.396225;189135;-2000.0;22.125;0.021667;3.711667;93.0;-0.06543;0.024414;1.072266;0;0;189268;0;0;0
2024-11-05_10-05-20.568101;189274;-2000.0;22.125;0.021667;3.712084;95.0;-0.066406;0.03125;1.080078;0;0;189438;0;0;0
2024-11-05_10-05-20.709220;189415;-2000.0;22.125;0.021667;3.711667;93.0;-0.067383;0.026367;1.083008;0;0;189590;0;0;0
2024-11-05_10-05-20.913252;189554;-2000.0;22.125;0.021667;3.711667;93.0;-0.06543;0.018555;1.075195;0;0;189750;0;0;0
2024-11-05_10-05-21.007042;189695;-2000.0;22.125;0.021667;3.71125;94.0;-0.070312;0.023438;1.073242;0;0;189890;0;0;0
2024-11-05_10-05-21.241370;189975;-2000.0;22.125;0.021667;3.706667;94.0;-0.068359;0.025391;1.048828;0;0;190109;0;0;0
2024-11-05_10-05-21.460202;190114;-2000.0;22.125;0.021667;3.707083;95.0;-0.069336;0.020508;1.046875;0;0;190326;0;0;0
2024-11-05_10-05-21.491445;190255;-2000.0;22.125;0.021667;3.7075;96.0;-0.069336;0.024414;1.039062;0;0;190379;0;0;0
2024-11-05_10-05-21.711312;190392;-2000.0;22.125;0.021667;3.706667;94.0;-0.069336;0.020508;1.050781;0;0;190584;0;0;0
2024-11-05_10-05-21.820610;190535;-2000.0;22.125;0.021667;3.706667;93.0;-0.06543;0.021484;1.053711;0;0;190687;0;0;0
2024-11-05_10-05-22.039889;190672;-2000.0;22.125;0.021667;3.706667;93.0;-0.070312;0.029297;1.063477;0;0;190877;0;0;0
2024-11-05_10-05-22.258667;190957;-2000.0;22.125;0.021667;3.706667;92.0;-0.067383;0.027344;1.09668;0;0;191130;0;0;0
2024-11-05_10-05-22.430826;191106;-2000.0;22.125;0.021667;3.706667;95.0;-0.061523;0.033203;1.139648;0;0;191310;0;0;0
2024-11-05_10-05-22.587207;191263;-2000.0;22.125;0.021667;3.706667;92.0;-0.0625;0.02832;1.150391;0;0;191459;0;0;0
2024-11-05_10-05-22.743694;191415;-2000.0;22.125;0.021667;3.706667;93.0;-0.06543;0.026367;1.164062;0;0;191622;0;0;0
2024-11-05_10-05-23.025026;191715;-2000.0;22.125;0.021667;3.706667;92.0;-0.057617;0.026367;1.241211;0;0;191892;0;0;0
2024-11-05_10-05-23.197056;191852;-2000.0;22.125;0.021667;3.706667;96.0;-0.05957;0.016602;1.249023;0;0;192080;0;0;0
2024-11-05_10-05-23.603410;192285;-2000.0;22.125;0.021667;3.706667;93.0;-0.052734;0.017578;1.274414;0;0;192479;0;0;0
2024-11-05_10-05-23.713186;192424;-2000.0;22.125;0.021667;3.706667;95.0;-0.048828;0.020508;1.266602;0;0;192589;0;0;0
2024-11-05_10-05-23.853826;192565;-2000.0;22.125;0.021667;3.706667;94.0;-0.058594;0.015625;1.250977;0;0;192720;0;0;0
2024-11-05_10-05-23.994680;192707;-2000.0;22.125;0.021667;3.706667;93.0;-0.053711;0.014648;1.227539;0;0;192869;0;0;0
2024-11-05_10-05-24.291572;192995;-2000.0;22.0625;0.021667;3.706667;93.0;-0.057617;0.019531;1.197266;0;0;193150;0;0;0
2024-11-05_10-05-24.369694;193132;-2000.0;22.0625;0.021667;3.706667;94.0;-0.058594;0.020508;1.166992;0;0;193223;0;0;0
2024-11-05_10-05-24.478987;193132;-2000.0;22.0625;0.021667;3.706667;94.0;-0.058594;0.020508;1.166992;0;0;193348;0;0;0
2024-11-05_10-05-24.619694;193414;-2000.0;22.0625;0.021667;3.706667;92.0;-0.064453;0.02832;1.118164;0;0;193500;0;0;0
2024-11-05_10-05-24.869873;193555;-2000.0;22.125;0.021667;3.706667;95.0;-0.05957;0.03125;1.104492;0;0;193740;0;0;0
2024-11-05_10-05-24.932278;193696;-2000.0;22.125;0.02125;3.706667;95.0;-0.06543;0.024414;1.076172;0;0;193810;0;0;0
2024-11-05_10-05-25.151768;193859;-2000.0;22.125;0.021667;3.706667;90.0;-0.066406;0.029297;1.055664;0;0;194020;0;0;0
2024-11-05_10-05-25.261143;193995;-2000.0;22.0625;0.021667;3.70625;93.0;-0.068359;0.024414;1.020508;0;0;194139;0;0;0
2024-11-05_10-05-25.667497;194292;-2000.0;22.125;0.021667;3.706667;94.0;-0.067383;0.026367;0.993164;0;0;194499;0;0;0
2024-11-05_10-05-25.698819;194442;-2000.0;22.125;0.021667;3.706667;94.0;-0.06543;0.027344;0.99707;0;0;194578;0;0;0
2024-11-05_10-05-25.823868;194587;-2000.0;22.0625;0.021667;3.706667;91.0;-0.061523;0.015625;0.990234;0;0;194699;0;0;0
2024-11-05_10-05-25.886468;194587;-2000.0;22.0625;0.021667;3.706667;91.0;-0.061523;0.015625;0.990234;0;0;194770;0;0;0
2024-11-05_10-05-26.027010;194735;-2000.0;22.125;0.021667;3.706667;92.0;-0.061523;0.019531;1.015625;0;0;194909;0;0;0
2024-11-05_10-05-26.199339;194872;-2000.0;22.0625;0.021667;3.706667;94.0;-0.056641;0.019531;1.006836;0;0;195068;0;0;0
2024-11-05_10-05-26.418136;195162;-2000.0;22.125;0.021667;3.70125;92.0;-0.047852;0.026367;1.047852;0;0;195289;0;0;0
2024-11-05_10-05-26.496286;195162;-2000.0;22.125;0.021667;3.70125;92.0;-0.047852;0.026367;1.047852;0;0;195370;0;0;0
2024-11-05_10-05-26.652565;195444;-2000.0;22.0625;0.021667;3.706667;93.0;-0.036133;0.03418;1.09082;0;0;195530;0;0;0
2024-11-05_10-05-26.793664;195586;-2000.0;22.0625;0.021667;3.706667;92.0;-0.02832;0.02832;1.115234;0;0;195679;0;0;0
2024-11-05_10-05-27.013146;195727;-2000.0;22.0625;0.021667;3.706667;94.0;-0.023438;0.029297;1.133789;0;0;195889;0;0;0
2024-11-05_10-05-27.122541;195872;-2000.0;22.0625;0.021667;3.706667;93.0;-0.013672;0.029297;1.149414;0;0;195999;0;0;0
2024-11-05_10-05-27.263130;196015;-2000.0;22.0625;0.021667;3.704583;92.0;-0.008789;0.027344;1.148438;0;0;196148;0;0;0
2024-11-05_10-05-27.450660;196154;-2000.0;22.0625;0.021667;3.705417;95.0;-0.006836;0.032227;1.145508;0;0;196319;0;0;0
2024-11-05_10-05-27.591297;196295;-2000.0;22.0625;0.021667;3.703334;94.0;-0.001953;0.027344;1.141602;0;0;196470;0;0;0
2024-11-05_10-05-27.857375;196582;-2000.0;22.0625;0.021667;3.70125;94.0;0.000977;0.019531;1.126953;0;0;196723;0;0;0
2024-11-05_10-05-28.013618;196731;-2000.0;22.0625;0.021667;3.70125;93.0;-0.00293;0.021484;1.102539;0;0;196889;0;0;0
2024-11-05_10-05-28.076069;196731;-2000.0;22.0625;0.021667;3.70125;93.0;-0.00293;0.021484;1.102539;0;0;196946;0;0;0
2024-11-05_10-05-28.341747;197023;-2000.0;22.0625;0.021667;3.701667;95.0;-0.009766;0.019531;1.032227;0;0;197209;0;0;0
2024-11-05_10-05-28.529221;197303;-2000.0;22.0625;0.021667;3.70125;91.0;-0.016602;0.023438;0.969727;0;0;197410;0;0;0
2024-11-05_10-05-28.716708;197445;-2000.0;22.0625;0.021667;3.70125;91.0;-0.018555;0.026367;0.946289;0;0;197587;0;0;0
2024-11-05_10-05-28.842205;197582;-2000.0;22.0625;0.021667;3.700833;92.0;-0.017578;0.025391;0.929688;0;0;197720;0;0;0
2024-11-05_10-05-28.998530;197725;-2000.0;22.0625;0.021667;3.70125;92.0;-0.011719;0.029297;0.93457;0;0;197880;0;0;0
2024-11-05_10-05-29.186321;197864;-2000.0;22.0625;0.021667;3.70125;93.0;-0.017578;0.027344;0.946289;0;0;198037;0;0;0
2024-11-05_10-05-29.358719;198142;-2000.0;22.0625;0.021667;3.70125;92.0;-0.017578;0.032227;0.974609;0;0;198239;0;0;0
2024-11-05_10-05-29.483738;198142;-2000.0;22.0625;0.021667;3.70125;92.0;-0.017578;0.032227;0.974609;0;0;198348;0;0;0
2024-11-05_10-05-29.640027;198435;-2000.0;22.0625;0.021667;3.70125;94.0;-0.011719;0.026367;0.988281;0;0;198519;0;0;0
2024-11-05_10-05-29.780973;198574;-2000.0;22.0625;0.021667;3.70125;92.0;-0.015625;0.029297;1.001953;0;0;198660;0;0;0
2024-11-05_10-05-29.953915;198715;-2000.0;22.0625;0.021667;3.70125;93.0;-0.014648;0.026367;1.007812;0;0;198820;0;0;0
2024-11-05_10-05-30.078887;198852;-2000.0;22.0625;0.021667;3.70125;94.0;-0.015625;0.026367;1.015625;0;0;198959;0;0;0
2024-11-05_10-05-30.391988;199132;-2000.0;22.0625;0.021667;3.70125;93.0;-0.018555;0.032227;1.055664;0;0;199244;0;0;0
2024-11-05_10-05-30.688949;199426;-2000.0;22.0625;0.02125;3.70125;92.0;-0.016602;0.03125;1.102539;0;0;199569;0;0;0
2024-11-05_10-05-30.970519;199733;-2000.0;22.0625;0.021667;3.70125;91.0;-0.015625;0.021484;1.132812;0;0;199840;0;0;0
2024-11-05_10-05-31.033011;199733;-2000.0;22.0625;0.021667;3.70125;91.0;-0.015625;0.021484;1.132812;0;0;199910;0;0;0
2024-11-05_10-05-31.298715;200025;-2000.0;22.0625;0.021667;3.70125;94.0;-0.015625;0.02832;1.144531;0;0;200167;0;0;0
2024-11-05_10-05-31.611231;200162;-2000.0;22.0625;0.02125;3.700833;94.0;-0.014648;0.022461;1.149414;0;0;200347;0;0;0
2024-11-05_10-05-31.689364;200442;-2000.0;22.0625;0.021667;3.70125;94.0;-0.017578;0.03125;1.142578;0;0;200561;0;0;0
2024-11-05_10-05-31.814982;200586;-2000.0;22.0625;0.021667;3.70125;96.0;-0.019531;0.026367;1.128906;0;0;200690;0;0;0
2024-11-05_10-05-31.971211;200735;-2000.0;22.0625;0.021667;3.70125;94.0;-0.018555;0.020508;1.12207;0;0;200850;0;0;0
2024-11-05_10-05-32.127489;200874;-2000.0;22.0625;0.021667;3.70125;93.0;-0.016602;0.027344;1.113281;0;0;201010;0;0;0
2024-11-05_10-05-32.315440;201015;-2000.0;22.0625;0.021667;3.70125;93.0;-0.014648;0.027344;1.116211;0;0;201199;0;0;0
2024-11-05_10-05-32.440351;201152;-2000.0;22.0625;0.021667;3.695834;93.0;-0.020508;0.025391;1.094727;0;0;201320;0;0;0
2024-11-05_10-05-32.596657;201296;-2000.0;22.0625;0.021667;3.695834;93.0;-0.018555;0.025391;1.088867;0;0;201468;0;0;0
2024-11-05_10-05-32.862917;201585;-2000.0;22.0625;0.021667;3.70125;97.0;-0.016602;0.026367;1.09668;0;0;201704;0;0;0
2024-11-05_10-05-33.019257;201723;-2000.0;22.0625;0.021667;3.70125;93.0;-0.021484;0.026367;1.091797;0;0;201900;0;0;0
2024-11-05_10-05-33.097354;201865;-2000.0;22.0625;0.021667;3.70125;92.0;-0.022461;0.030273;1.083984;0;0;201970;0;0;0
2024-11-05_10-05-33.206722;201865;-2000.0;22.0625;0.021667;3.70125;92.0;-0.022461;0.030273;1.083984;0;0;202080;0;0;0
2024-11-05_10-05-33.363318;202012;-2000.0;22.0625;0.021667;3.70125;90.0;-0.020508;0.025391;1.100586;0;0;202239;0;0;0
2024-11-05_10-05-33.535158;202312;-2000.0;22.0625;0.021667;3.70125;92.0;-0.024414;0.024414;1.0625;0;0;202406;0;0;0
2024-11-05_10-05-33.753976;202464;-2000.0;22.0625;0.021667;3.700417;95.0;-0.024414;0.023438;1.063477;0;0;202629;0;0;0
2024-11-05_10-05-33.832534;202592;-2000.0;22.0625;0.021667;3.700833;92.0;-0.027344;0.020508;1.035156;0;0;202710;0;0;0
2024-11-05_10-05-34.113915;202885;-2000.0;22.0625;0.021667;3.695834;93.0;-0.029297;0.027344;1.005859;0;0;202974;0;0;0
2024-11-05_10-05-34.254516;203022;-2000.0;22.0625;0.021667;3.695834;94.0;-0.032227;0.025391;0.998047;0;0;203129;0;0;0
2024-11-05_10-05-34.473292;203165;-2000.0;22.0625;0.021667;3.695834;94.0;-0.033203;0.030273;0.989258;0;0;203339;0;0;0
2024-11-05_10-05-34.629663;203302;-2000.0;22.0625;0.021667;3.697917;92.0;-0.030273;0.025391;1.001953;0;0;203498;0;0;0
2024-11-05_10-05-34.785967;203447;-2000.0;22.0625;0.021667;3.695834;95.0;-0.03418;0.026367;0.996094;0;0;203657;0;0;0
2024-11-05_10-05-34.926783;203595;-2000.0;22.0625;0.021667;3.695834;95.0;-0.03125;0.025391;1.018555;0;0;203800;0;0;0
2024-11-05_10-05-35.082945;203732;-2000.0;22.0625;0.021667;3.695834;93.0;-0.035156;0.019531;1.022461;0;0;203960;0;0;0
2024-11-05_10-05-35.239773;204023;-2000.0;22.0625;0.021667;3.695834;93.0;-0.029297;0.024414;1.054688;0;0;204110;0;0;0
2024-11-05_10-05-35.396125;204165;-2000.0;22.0625;0.021667;3.695834;92.0;-0.029297;0.019531;1.063477;0;0;204270;0;0;0
2024-11-05_10-05-35.536653;204304;-2000.0;22.0625;0.021667;3.695834;93.0;-0.03125;0.025391;1.067383;0;0;204419;0;0;0
2024-11-05_10-05-35.708605;204445;-2000.0;22.0625;0.021667;3.695834;91.0;-0.027344;0.022461;1.081055;0;0;204589;0;0;0
2024-11-05_10-05-35.865302;204591;-2000.0;22.0;0.021667;3.695834;91.0;-0.029297;0.025391;1.088867;0;0;204740;0;0;0
2024-11-05_10-05-36.037689;204748;-2000.0;22.0625;0.02125;3.695834;92.0;-0.02832;0.015625;1.073242;0;0;204920;0;0;0
2024-11-05_10-05-36.178272;204902;-2000.0;22.0625;0.021667;3.695834;94.0;-0.02832;0.025391;1.082031;0;0;205060;0;0;0
2024-11-05_10-05-36.428344;205186;-2000.0;22.0625;0.021667;3.695834;91.0;-0.03125;0.024414;1.075195;0;0;205306;0;0;0
2024-11-05_10-05-36.491051;205186;-2000.0;22.0625;0.021667;3.695834;91.0;-0.03125;0.024414;1.075195;0;0;205370;0;0;0
2024-11-05_10-05-36.709928;205475;-2000.0;22.0625;0.021667;3.695834;91.0;-0.029297;0.027344;1.070312;0;0;205589;0;0;0
2024-11-05_10-05-37.007146;205755;-2000.0;22.0625;0.021667;3.695834;89.0;-0.030273;0.025391;1.038086;0;0;205889;0;0;0
2024-11-05_10-05-37.132070;205893;-2000.0;22.0625;0.021667;3.695834;93.0;-0.03125;0.02832;1.024414;0;0;205997;0;0;0
2024-11-05_10-05-37.288395;206035;-2000.0;22.0625;0.021667;3.695834;93.0;-0.035156;0.029297;1.023438;0;0;206157;0;0;0
2024-11-05_10-05-37.475891;206172;-2000.0;22.0625;0.021667;3.695834;94.0;-0.03418;0.02832;1.000977;0;0;206331;0;0;0
2024-11-05_10-05-37.585266;206317;-2000.0;22.0625;0.021667;3.695834;93.0;-0.033203;0.030273;1.000977;0;0;206460;0;0;0
2024-11-05_10-05-37.772767;206465;-2000.0;22.0625;0.02125;3.695834;92.0;-0.032227;0.02832;0.990234;0;0;206649;0;0;0
2024-11-05_10-05-37.898029;206602;-2000.0;22.0;0.021667;3.695834;93.0;-0.033203;0.024414;1.004883;0;0;206780;0;0;0
2024-11-05_10-05-38.054384;206747;-2000.0;22.0625;0.021667;3.695834;94.0;-0.030273;0.027344;1.012695;0;0;206930;0;0;0
2024-11-05_10-05-38.211196;206895;-2000.0;22.0;0.021667;3.695834;92.0;-0.03418;0.026367;1.015625;0;0;207090;0;0;0
2024-11-05_10-05-38.367424;207032;-2000.0;22.0625;0.021667;3.695834;92.0;-0.032227;0.024414;1.008789;0;0;207240;0;0;0
2024-11-05_10-05-38.523620;207180;-2000.0;22.0;0.021667;3.695834;96.0;-0.030273;0.024414;1.015625;0;0;207402;0;0;0
2024-11-05_10-05-38.836411;207622;-2000.0;22.0625;0.021667;3.695834;93.0;-0.03125;0.032227;1.049805;0;0;207710;0;0;0
2024-11-05_10-05-38.993148;207767;-2000.0;22.0625;0.021667;3.695834;95.0;-0.033203;0.030273;1.064453;0;0;207870;0;0;0
2024-11-05_10-05-39.164985;207915;-2000.0;22.0625;0.021667;3.695834;93.0;-0.027344;0.03418;1.074219;0;0;208049;0;0;0
2024-11-05_10-05-39.399394;208056;-2000.0;22.0625;0.021667;3.695834;92.0;-0.029297;0.03125;1.076172;0;0;208267;0;0;0
2024-11-05_10-05-39.461811;208192;-2000.0;22.0;0.021667;3.695834;96.0;-0.029297;0.032227;1.072266;0;0;208340;0;0;0
2024-11-05_10-05-39.649365;208335;-2000.0;22.0;0.021667;3.695834;93.0;-0.029297;0.027344;1.082031;0;0;208524;0;0;0
2024-11-05_10-05-39.774314;208472;-2000.0;22.0625;0.021667;3.695834;96.0;-0.027344;0.027344;1.06543;0;0;208650;0;0;0
2024-11-05_10-05-39.930904;208615;-2000.0;22.0;0.021667;3.695834;95.0;-0.029297;0.030273;1.075195;0;0;208809;0;0;0
2024-11-05_10-05-40.118522;208895;-2000.0;22.0625;0.021667;3.695834;94.0;-0.02832;0.025391;1.050781;0;0;208999;0;0;0
2024-11-05_10-05-40.243820;209032;-2000.0;22.0;0.021667;3.695834;91.0;-0.029297;0.023438;1.041016;0;0;209120;0;0;0
2024-11-05_10-05-40.446950;209175;-2000.0;22.0;0.021667;3.695834;92.0;-0.03125;0.025391;1.044922;0;0;209317;0;0;0
2024-11-05_10-05-40.556415;209312;-2000.0;22.0625;0.021667;3.695834;93.0;-0.02832;0.021484;1.040039;0;0;209429;0;0;0
2024-11-05_10-05-40.822414;209592;-2000.0;22.0;0.021667;3.695834;92.0;-0.030273;0.023438;1.019531;0;0;209699;0;0;0
2024-11-05_10-05-40.884919;209592;-2000.0;22.0;0.021667;3.695834;92.0;-0.030273;0.023438;1.019531;0;0;209758;0;0;0
2024-11-05_10-05-41.058069;209735;-2000.0;22.0;0.021667;3.695834;95.0;-0.02832;0.025391;1.012695;0;0;209909;0;0;0
2024-11-05_10-05-41.199780;209872;-2000.0;22.0;0.021667;3.695834;95.0;-0.033203;0.025391;1.017578;0;0;210079;0;0;0
2024-11-05_10-05-41.418668;210155;-2000.0;22.0;0.021667;3.695834;93.0;-0.032227;0.023438;1.001953;0;0;210292;0;0;0
2024-11-05_10-05-41.497173;210155;-2000.0;22.0;0.021667;3.695834;93.0;-0.032227;0.023438;1.001953;0;0;210370;0;0;0
2024-11-05_10-05-41.653391;210453;-2000.0;22.0;0.021667;3.695834;93.0;-0.032227;0.023438;0.995117;0;0;210530;0;0;0
2024-11-05_10-05-41.856461;210595;-2000.0;22.0;0.021667;3.695834;94.0;-0.02832;0.024414;1.007812;0;0;210729;0;0;0
2024-11-05_10-05-41.966303;210734;-2000.0;22.0;0.021667;3.695834;93.0;-0.03125;0.02832;1.007812;0;0;210839;0;0;0
2024-11-05_10-05-42.154525;210875;-2000.0;22.0;0.021667;3.695834;90.0;-0.030273;0.026367;1.000977;0;0;211010;0;0;0
2024-11-05_10-05-42.326430;211013;-2000.0;22.0;0.021667;3.695834;92.0;-0.027344;0.027344;1.009766;0;0;211179;0;0;0
2024-11-05_10-05-42.451417;211156;-2000.0;22.0;0.021667;3.690417;92.0;-0.032227;0.029297;1.024414;0;0;211317;0;0;0
2024-11-05_10-05-42.592057;211302;-2000.0;22.0;0.021667;3.690417;93.0;-0.02832;0.025391;1.03418;0;0;211479;0;0;0
2024-11-05_10-05-42.764056;211445;-2000.0;22.0;0.021667;3.695834;91.0;-0.02832;0.027344;1.03125;0;0;211638;0;0;0
2024-11-05_10-05-42.936590;211732;-2000.0;22.0;0.021667;3.695834;93.0;-0.027344;0.032227;1.051758;0;0;211809;0;0;0
2024-11-05_10-05-43.062118;211732;-2000.0;22.0;0.021667;3.695834;93.0;-0.027344;0.032227;1.051758;0;0;211940;0;0;0
2024-11-05_10-05-43.296577;212014;-2000.0;22.0;0.021667;3.694584;92.0;-0.026367;0.029297;1.045898;0;0;212179;0;0;0
2024-11-05_10-05-43.405872;212155;-2000.0;22.0;0.021667;3.694584;94.0;-0.03125;0.029297;1.041992;0;0;212254;0;0;0
2024-11-05_10-05-43.750286;212435;-2000.0;22.0;0.021667;3.6925;95.0;-0.030273;0.026367;1.032227;0;0;212632;0;0;0
2024-11-05_10-05-43.844225;212576;-2000.0;22.0;0.021667;3.692083;93.0;-0.029297;0.02832;1.017578;0;0;212720;0;0;0
2024-11-05_10-05-44.095305;212890;-2000.0;22.0;0.021667;3.69125;92.0;-0.02832;0.021484;1.032227;0;0;212980;0;0;0
2024-11-05_10-05-44.267341;213044;-2000.0;22.0;0.021667;3.690834;93.0;-0.026367;0.020508;1.050781;0;0;213141;0;0;0
2024-11-05_10-05-44.470550;213185;-2000.0;22.0;0.021667;3.690417;94.0;-0.021484;0.021484;1.050781;0;0;213321;0;0;0
2024-11-05_10-05-44.642537;213323;-2000.0;22.0;0.021667;3.690417;92.0;-0.020508;0.018555;1.050781;0;0;213518;0;0;0
2024-11-05_10-05-44.861297;213615;-2000.0;22.0;0.021667;3.690417;94.0;-0.012695;0.026367;1.066406;0;0;213739;0;0;0
2024-11-05_10-05-44.955615;213752;-2000.0;22.0;0.021667;3.690417;96.0;-0.009766;0.024414;1.054688;0;0;213841;0;0;0
2024-11-05_10-05-45.096862;213752;-2000.0;22.0;0.021667;3.690417;96.0;-0.009766;0.024414;1.054688;0;0;213970;0;0;0
2024-11-05_10-05-45.456152;214185;-2000.0;22.0;0.021667;3.690417;93.0;0.0;0.022461;1.05957;0;0;214324;0;0;0
2024-11-05_10-05-45.769522;214323;-2000.0;22.0;0.02125;3.690417;93.0;0.001953;0.02832;1.070312;0;0;214505;0;0;0
2024-11-05_10-05-45.988495;214746;-2000.0;22.0;0.021667;3.6875;93.0;0.0;0.023438;1.058594;0;0;214869;0;0;0
2024-11-05_10-05-46.196592;214885;-2000.0;22.0;0.021667;3.686667;94.0;0.00293;0.023438;1.061523;0;0;215060;0;0;0
2024-11-05_10-05-46.334175;215024;-2000.0;22.0;0.021667;3.690417;93.0;0.0;0.018555;1.068359;0;0;215210;0;0;0
2024-11-05_10-05-46.662339;215332;-2000.0;22.0;0.021667;3.690417;92.0;-0.000977;0.026367;1.064453;0;0;215535;0;0;0
2024-11-05_10-05-46.803093;215481;-2000.0;22.0;0.021667;3.685417;94.0;-0.004883;0.019531;1.046875;0;0;215680;0;0;0
2024-11-05_10-05-47.006937;215632;-2000.0;22.0;0.021667;3.685;93.0;-0.003906;0.023438;1.036133;0;0;215850;0;0;0
2024-11-05_10-05-47.210450;215927;-2000.0;22.0;0.021667;3.690417;92.0;-0.006836;0.023438;1.032227;0;0;216089;0;0;0
2024-11-05_10-05-47.272864;215927;-2000.0;22.0;0.021667;3.690417;92.0;-0.006836;0.023438;1.032227;0;0;216149;0;0;0
2024-11-05_10-05-47.476079;216215;-2000.0;22.0;0.02125;3.690417;94.0;0.000977;0.026367;1.020508;0;0;216357;0;0;0
2024-11-05_10-05-47.804152;216502;-2000.0;22.0;0.021667;3.690417;93.0;0.00293;0.03125;1.008789;0;0;216680;0;0;0
2024-11-05_10-05-47.915043;216645;-2000.0;22.0;0.021667;3.690417;94.0;-0.001953;0.022461;1.0;0;0;216788;0;0;0
2024-11-05_10-05-48.133828;216783;-2000.0;22.0;0.021667;3.690417;95.0;0.003906;0.016602;1.007812;0;0;216962;0;0;0
2024-11-05_10-05-48.212361;216925;-2000.0;22.0;0.021667;3.690417;94.0;0.003906;0.014648;0.998047;0;0;217090;0;0;0
2024-11-05_10-05-48.462323;217205;-2000.0;22.0;0.021667;3.690834;94.0;0.009766;0.018555;1.004883;0;0;217335;0;0;0
2024-11-05_10-05-48.525241;217205;-2000.0;22.0;0.021667;3.690834;94.0;0.009766;0.018555;1.004883;0;0;217399;0;0;0
2024-11-05_10-05-48.666013;217343;-2000.0;22.0;0.021667;3.690417;91.0;0.007812;0.018555;1.005859;0;0;217549;0;0;0
2024-11-05_10-05-48.837888;217622;-2000.0;22.0;0.021667;3.685;92.0;0.005859;0.015625;1.019531;0;0;217720;0;0;0
2024-11-05_10-05-49.010035;217776;-2000.0;22.0;0.021667;3.690417;95.0;0.007812;0.019531;1.012695;0;0;217889;0;0;0
2024-11-05_10-05-49.182486;217933;-2000.0;22.0;0.021667;3.690417;91.0;0.003906;0.029297;1.027344;0;0;218050;0;0;0
2024-11-05_10-05-49.307514;218076;-2000.0;22.0;0.021667;3.690417;92.0;0.00293;0.027344;1.020508;0;0;218181;0;0;0
2024-11-05_10-05-49.465066;218221;-2000.0;22.0;0.021667;3.690417;92.0;0.00293;0.024414;1.018555;0;0;218340;0;0;0
2024-11-05_10-05-49.683908;218375;-2000.0;22.0;0.021667;3.69;92.0;0.001953;0.02832;1.035156;0;0;218569;0;0;0
2024-11-05_10-05-49.793287;218525;-2000.0;22.0;0.021667;3.690417;94.0;0.004883;0.02832;1.038086;0;0;218669;0;0;0
2024-11-05_10-05-49.934640;218666;-2000.0;22.0;0.021667;3.685417;93.0;0.0;0.025391;1.008789;0;0;218810;0;0;0
2024-11-05_10-05-50.122772;218813;-2000.0;22.0;0.021667;3.685;94.0;0.0;0.03125;0.996094;0;0;218999;0;0;0
2024-11-05_10-05-50.248358;218955;-2000.0;22.0;0.021667;3.69;93.0;-0.000977;0.030273;0.986328;0;0;219130;0;0;0
2024-11-05_10-05-50.545292;219236;-2000.0;22.0;0.021667;3.685417;94.0;0.003906;0.027344;0.97168;0;0;219389;0;0;0
2024-11-05_10-05-50.764263;219515;-2000.0;22.0;0.021667;3.685417;96.0;-0.00293;0.026367;0.960938;0;0;219639;0;0;0
2024-11-05_10-05-50.873643;219655;-2000.0;22.0;0.021667;3.685;93.0;-0.001953;0.021484;0.950195;0;0;219739;0;0;0
2024-11-05_10-05-51.187304;219935;-2000.0;22.0;0.021667;3.685417;95.0;-0.001953;0.019531;0.945312;0;0;220066;0;0;0
2024-11-05_10-05-51.452909;220215;-2000.0;22.0;0.021667;3.685417;94.0;0.000977;0.017578;0.958984;0;0;220335;0;0;0
2024-11-05_10-05-51.515424;220215;-2000.0;22.0;0.021667;3.685417;94.0;0.000977;0.017578;0.958984;0;0;220389;0;0;0
2024-11-05_10-05-51.672398;220352;-2000.0;22.0;0.021667;3.685;94.0;-0.000977;0.022461;0.97168;0;0;220534;0;0;0
2024-11-05_10-05-51.813124;220494;-2000.0;22.0;3.685;3.685417;94.0;-0.000977;0.020508;0.958984;0;0;220689;0;0;0
2024-11-05_10-05-51.969402;220630;-2000.0;22.0;0.021667;3.685417;93.0;-0.004883;0.023438;0.97168;0;0;220841;0;0;0
2024-11-05_10-05-52.188676;220940;-2000.0;22.0;0.021667;3.685;92.0;0.0;0.025391;0.994141;0;0;221070;0;0;0
2024-11-05_10-05-52.298150;221085;-2000.0;22.0;0.021667;3.685417;94.0;-0.000977;0.027344;0.988281;0;0;221167;0;0;0
2024-11-05_10-05-52.516893;221227;-2000.0;22.0;0.021667;3.685;92.0;-0.001953;0.023438;0.977539;0;0;221389;0;0;0
2024-11-05_10-05-52.595018;221375;-2000.0;22.0;0.021667;3.685;92.0;-0.000977;0.023438;0.995117;0;0;221470;0;0;0
2024-11-05_10-05-52.782526;221512;-2000.0;22.0;0.021667;3.685417;91.0;-0.001953;0.030273;1.007812;0;0;221631;0;0;0
2024-11-05_10-05-52.954498;221657;-2000.0;22.0;0.021667;3.685417;92.0;-0.000977;0.026367;1.001953;0;0;221840;0;0;0
2024-11-05_10-05-53.064079;221805;-2000.0;22.0;0.021667;3.685417;93.0;0.000977;0.030273;0.996094;0;0;221938;0;0;0
2024-11-05_10-05-53.236221;221944;-2000.0;22.0;0.021667;3.685417;91.0;-0.00293;0.02832;1.007812;0;0;222119;0;0;0
2024-11-05_10-05-53.392543;222085;-2000.0;22.0;0.021667;3.685417;93.0;0.0;0.02832;1.008789;0;0;222269;0;0;0
2024-11-05_10-05-53.533474;222222;-2000.0;22.0;0.021667;3.685417;92.0;0.000977;0.025391;1.007812;0;0;222410;0;0;0
2024-11-05_10-05-53.690097;222366;-2000.0;22.0;0.021667;3.685;95.0;-0.000977;0.026367;0.984375;0;0;222570;0;0;0
2024-11-05_10-05-53.940144;222657;-2000.0;22.0;0.021667;3.685417;94.0;0.0;0.022461;1.008789;0;0;222819;0;0;0
2024-11-05_10-05-54.033925;222805;-2000.0;22.0;0.021667;3.685417;92.0;0.0;0.024414;0.991211;0;0;222893;0;0;0
2024-11-05_10-05-54.269104;222942;-2000.0;22.0;0.02125;3.684167;94.0;0.0;0.023438;0.988281;0;0;223155;0;0;0
2024-11-05_10-05-54.472297;223226;-2000.0;22.0;0.021667;3.684584;95.0;0.0;0.021484;1.03125;0;0;223340;0;0;0
2024-11-05_10-05-54.675824;223374;-2000.0;22.0;0.021667;3.685;93.0;0.006836;0.019531;1.051758;0;0;223550;0;0;0
2024-11-05_10-05-54.769483;223522;-2000.0;22.0;0.021667;3.68375;95.0;0.006836;0.020508;1.078125;0;0;223649;0;0;0
2024-11-05_10-05-54.925981;223668;-2000.0;22.0;0.021667;3.680834;92.0;0.00293;0.020508;1.087891;0;0;223808;0;0;0
2024-11-05_10-05-55.082939;223817;-2000.0;22.0;0.021667;3.68;92.0;0.005859;0.024414;1.109375;0;0;223958;0;0;0
2024-11-05_10-05-55.255132;223967;-2000.0;22.0;0.021667;3.68;91.0;0.007812;0.023438;1.12793;0;0;224127;0;0;0
2024-11-05_10-05-55.473962;224115;-2000.0;22.0;0.021667;3.68;92.0;0.005859;0.020508;1.135742;0;0;224303;0;0;0
2024-11-05_10-05-55.552250;224252;-2000.0;22.0;0.021667;3.68;93.0;0.005859;0.026367;1.138672;0;0;224430;0;0;0
2024-11-05_10-05-55.802382;224545;-2000.0;22.0;0.021667;3.68;91.0;0.005859;0.023438;1.120117;0;0;224679;0;0;0
2024-11-05_10-05-55.880789;224545;-2000.0;22.0;0.021667;3.68;91.0;0.005859;0.023438;1.120117;0;0;224750;0;0;0
2024-11-05_10-05-56.115173;224825;-2000.0;22.0;0.021667;3.679584;93.0;0.00293;0.027344;1.105469;0;0;224999;0;0;0
2024-11-05_10-05-56.177696;224962;-2000.0;22.0;0.021667;3.68;92.0;0.00293;0.026367;1.091797;0;0;225059;0;0;0
2024-11-05_10-05-56.552962;225252;-2000.0;22.0;0.021667;3.68;90.0;0.00293;0.024414;1.078125;0;0;225398;0;0;0
2024-11-05_10-05-56.662266;225396;-2000.0;22.0;0.021667;3.679584;95.0;0.00293;0.020508;1.061523;0;0;225528;0;0;0
2024-11-05_10-05-56.930086;225675;-2000.0;22.0;0.021667;3.68;93.0;0.005859;0.021484;1.054688;0;0;225811;0;0;0
2024-11-05_10-05-57.178825;225820;-2000.0;22.0;0.021667;3.68;95.0;0.005859;0.019531;1.056641;0;0;226050;0;0;0
2024-11-05_10-05-57.272701;225972;-2000.0;22.0;3.68;3.68;94.0;0.001953;0.021484;1.045898;0;0;226150;0;0;0
2024-11-05_10-05-57.444615;226120;-2000.0;22.0;0.021667;3.679584;96.0;-0.000977;0.019531;1.042969;0;0;226313;0;0;0
2024-11-05_10-05-57.585327;226272;-2000.0;22.0;0.021667;3.679584;93.0;-0.007812;0.023438;1.023438;0;0;226460;0;0;0
2024-11-05_10-05-57.835329;226563;-2000.0;22.0;0.021667;3.679584;92.0;-0.009766;0.026367;1.038086;0;0;226705;0;0;0
2024-11-05_10-05-57.897833;226563;-2000.0;22.0;0.021667;3.679584;92.0;-0.009766;0.026367;1.038086;0;0;226780;0;0;0
2024-11-05_10-05-58.054716;226855;-2000.0;22.0;0.021667;3.679584;94.0;-0.010742;0.018555;1.032227;0;0;226930;0;0;0
2024-11-05_10-05-58.210952;226992;-2000.0;22.0;0.021667;3.68;96.0;-0.012695;0.024414;1.025391;0;0;227090;0;0;0
2024-11-05_10-05-58.367446;227135;-2000.0;22.0;0.021667;3.679584;92.0;-0.012695;0.027344;1.027344;0;0;227250;0;0;0
2024-11-05_10-05-58.742537;227415;-2000.0;22.0;0.021667;3.68;91.0;-0.011719;0.025391;1.014648;0;0;227616;0;0;0
2024-11-05_10-05-58.883211;227552;-2000.0;22.0;0.021667;3.68;94.0;-0.015625;0.024414;1.013672;0;0;227725;0;0;0
2024-11-05_10-05-58.992617;227695;-2000.0;22.0;0.021667;3.68;95.0;-0.010742;0.02832;1.021484;0;0;227869;0;0;0
2024-11-05_10-05-59.259499;227977;-2000.0;22.0;0.021667;3.68;95.0;-0.014648;0.023438;1.009766;0;0;228139;0;0;0
2024-11-05_10-05-59.353297;228125;-2000.0;22.0;0.021667;3.679584;95.0;-0.014648;0.024414;1.007812;0;0;228230;0;0;0
2024-11-05_10-05-59.478379;228262;-2000.0;22.0;0.021667;3.68;90.0;-0.012695;0.021484;1.003906;0;0;228359;0;0;0
2024-11-05_10-05-59.760027;228412;-2000.0;22.0;0.021667;3.68;96.0;-0.014648;0.022461;0.993164;0;0;228640;0;0;0
2024-11-05_10-05-59.931947;228712;-2000.0;22.0;0.021667;3.68;96.0;-0.011719;0.023438;1.018555;0;0;228810;0;0;0
2024-11-05_10-06-00.401645;229142;-2000.0;22.0;0.021667;3.679584;95.0;-0.010742;0.024414;1.022461;0;0;229280;0;0;0
2024-11-05_10-06-00.745308;229422;-2000.0;22.0;0.021667;3.68;94.0;-0.009766;0.027344;1.030273;0;0;229624;0;0;0
2024-11-05_10-06-00.870309;229565;-2000.0;22.0;0.021667;3.68;92.0;-0.008789;0.021484;1.024414;0;0;229750;0;0;0
2024-11-05_10-06-01.026653;229702;-2000.0;22.0;0.021667;3.679584;92.0;-0.005859;0.024414;1.03125;0;0;229897;0;0;0
2024-11-05_10-06-01.292391;229995;-2000.0;22.0;0.021667;3.68;93.0;-0.008789;0.022461;1.030273;0;0;230169;0;0;0
2024-11-05_10-06-01.354937;230132;-2000.0;22.0;0.021667;3.679584;92.0;-0.010742;0.024414;1.032227;0;0;230229;0;0;0
2024-11-05_10-06-01.636534;230277;-2000.0;21.9375;0.021667;3.679584;96.0;-0.009766;0.026367;1.035156;0;0;230376;0;0;0
2024-11-05_10-06-01.824018;230565;-2000.0;22.0;0.02125;3.679584;93.0;-0.008789;0.024414;1.02832;0;0;230700;0;0;0
2024-11-05_10-06-01.964569;230707;-2000.0;22.0;0.021667;3.68;94.0;-0.010742;0.026367;1.026367;0;0;230840;0;0;0
2024-11-05_10-06-02.152372;230852;-2000.0;22.0;0.021667;3.68;94.0;-0.007812;0.024414;1.027344;0;0;231030;0;0;0
2024-11-05_10-06-02.277482;231001;-2000.0;22.0;0.021667;3.68;92.0;-0.007812;0.021484;1.036133;0;0;231160;0;0;0
2024-11-05_10-06-02.434754;231153;-2000.0;22.0;0.021667;3.679584;96.0;-0.009766;0.022461;1.036133;0;0;231310;0;0;0
2024-11-05_10-06-02.872256;231594;-2000.0;22.0;0.021667;3.679584;92.0;-0.011719;0.023438;1.035156;0;0;231710;0;0;0
2024-11-05_10-06-03.201386;231875;-2000.0;22.0;0.021667;3.68;91.0;-0.010742;0.024414;1.03418;0;0;232075;0;0;0
2024-11-05_10-06-03.405270;232155;-2000.0;22.0;0.021667;3.6775;92.0;-0.008789;0.025391;1.041992;0;0;232289;0;0;0
2024-11-05_10-06-03.624052;232296;-2000.0;22.0;0.021667;3.675833;95.0;-0.009766;0.024414;1.033203;0;0;232506;0;0;0
2024-11-05_10-06-03.702781;232432;-2000.0;22.0;0.021667;3.674583;93.0;-0.005859;0.025391;1.041992;0;0;232580;0;0;0
2024-11-05_10-06-03.843323;232575;-2000.0;22.0;0.021667;3.674167;93.0;-0.009766;0.026367;1.061523;0;0;232719;0;0;0
2024-11-05_10-06-04.062158;232714;-2000.0;22.0;0.021667;3.674583;94.0;-0.008789;0.026367;1.048828;0;0;232898;0;0;0
2024-11-05_10-06-04.155821;232855;-2000.0;22.0;0.021667;3.674583;94.0;-0.005859;0.02832;1.074219;0;0;233030;0;0;0
2024-11-05_10-06-04.312157;232994;-2000.0;22.0;0.021667;3.674583;92.0;-0.007812;0.02832;1.075195;0;0;233190;0;0;0
2024-11-05_10-06-04.468562;233272;-2000.0;22.0;0.021667;3.674583;94.0;-0.004883;0.020508;1.081055;0;0;233350;0;0;0
2024-11-05_10-06-04.718654;233416;-2000.0;22.0;0.021667;3.674583;92.0;-0.004883;0.025391;1.094727;0;0;233587;0;0;0
2024-11-05_10-06-04.781121;233562;-2000.0;22.0;0.021667;3.674583;96.0;-0.007812;0.029297;1.080078;0;0;233660;0;0;0
2024-11-05_10-06-04.937642;233722;-2000.0;22.0;0.021667;3.674167;97.0;-0.009766;0.022461;1.081055;0;0;233820;0;0;0
2024-11-05_10-06-05.376181;234023;-2000.0;22.0;0.021667;3.674583;92.0;-0.008789;0.021484;1.058594;0;0;234211;0;0;0
2024-11-05_10-06-05.563661;234317;-2000.0;22.0;0.021667;3.674583;94.0;-0.009766;0.020508;1.053711;0;0;234428;0;0;0
2024-11-05_10-06-05.813686;234605;-2000.0;22.0;0.021667;3.674583;94.0;-0.011719;0.021484;1.016602;0;0;234699;0;0;0
2024-11-05_10-06-05.985983;234743;-2000.0;22.0;0.021667;3.674583;97.0;-0.010742;0.022461;1.024414;0;0;234859;0;0;0
2024-11-05_10-06-06.158425;234885;-2000.0;22.0;0.021667;3.674167;94.0;-0.010742;0.025391;1.003906;0;0;235039;0;0;0
2024-11-05_10-06-06.369604;235024;-2000.0;22.0;0.021667;3.674583;94.0;-0.011719;0.023438;0.998047;0;0;235237;0;0;0
2024-11-05_10-06-06.800910;235596;-2000.0;22.0;0.021667;3.67375;92.0;-0.013672;0.025391;0.998047;0;0;235680;0;0;0
2024-11-05_10-06-06.972981;235732;-2000.0;22.0;0.021667;3.674583;92.0;-0.012695;0.023438;1.004883;0;0;235840;0;0;0
2024-11-05_10-06-07.177480;235877;-2000.0;22.0;0.021667;3.674167;94.0;-0.008789;0.026367;0.999023;0;0;236059;0;0;0
2024-11-05_10-06-07.270287;236022;-2000.0;22.0;0.021667;3.674583;94.0;-0.009766;0.027344;1.008789;0;0;236149;0;0;0
2024-11-05_10-06-07.489480;236165;-2000.0;22.0;0.021667;0.021667;93.0;-0.004883;0.023438;1.011719;0;0;236370;0;0;0
2024-11-05_10-06-07.661270;236307;-2000.0;22.0;0.021667;3.674583;92.0;0.003906;0.021484;1.018555;0;0;236535;0;0;0
2024-11-05_10-06-07.771001;236461;-2000.0;22.0;0.021667;3.674583;94.0;0.004883;0.021484;1.026367;0;0;236627;0;0;0
2024-11-05_10-06-07.880708;236610;-2000.0;22.0;0.021667;3.674167;94.0;0.007812;0.022461;1.032227;0;0;236766;0;0;0
2024-11-05_10-06-08.052596;236761;-2000.0;22.0;0.021667;3.674583;94.0;0.008789;0.017578;1.03418;0;0;236930;0;0;0
2024-11-05_10-06-08.209086;236901;-2000.0;22.0;0.021667;3.674583;95.0;0.007812;0.021484;1.029297;0;0;237089;0;0;0
2024-11-05_10-06-08.522054;237185;-2000.0;22.0;0.02125;3.674583;93.0;0.010742;0.019531;1.029297;0;0;237397;0;0;0
2024-11-05_10-06-08.678286;237465;-2000.0;22.0;0.021667;3.674167;94.0;0.010742;0.027344;1.036133;0;0;237559;0;0;0
2024-11-05_10-06-08.881431;237603;-2000.0;22.0;0.021667;3.674167;91.0;0.013672;0.027344;1.046875;0;0;237769;0;0;0
2024-11-05_10-06-09.131952;237882;-2000.0;22.0;0.021667;3.674583;95.0;0.016602;0.026367;1.030273;0;0;237988;0;0;0
2024-11-05_10-06-09.319513;238025;-2000.0;22.0;0.021667;3.674167;94.0;0.020508;0.027344;1.010742;0;0;238197;0;0;0
2024-11-05_10-06-09.460385;238162;-2000.0;21.9375;0.021667;3.674167;93.0;0.02832;0.023438;0.991211;0;0;238340;0;0;0
2024-11-05_10-06-09.616674;238307;-16.0;22.0;0.021667;3.674167;95.0;0.037109;0.027344;0.992188;0;0;238500;0;0;0
2024-11-05_10-06-09.773022;238452;-17.333374;21.9375;0.021667;3.672917;94.0;0.042969;0.024414;0.977539;0;0;238650;0;0;0
2024-11-05_10-06-09.929274;238595;-22.666626;22.0;0.021667;3.671667;91.0;0.044922;0.024414;0.96582;0;0;238810;0;0;0
2024-11-05_10-06-10.085802;238882;-1.333374;22.0;0.021667;3.672084;91.0;0.051758;0.021484;0.96582;0;0;238969;0;0;0
2024-11-05_10-06-10.414341;239175;-8.0;22.0;0.021667;3.669167;91.0;0.0625;0.025391;0.981445;0;0;239297;0;0;0
2024-11-05_10-06-10.618259;239311;-21.333374;22.0;0.021667;3.669167;95.0;0.068359;0.030273;0.999023;0;0;239496;0;0;0
2024-11-05_10-06-10.727540;239462;-17.333374;22.0;0.021667;3.669167;93.0;0.073242;0.021484;1.008789;0;0;239609;0;0;0
2024-11-05_10-06-10.868931;239599;-22.666626;22.0;0.021667;3.669167;95.0;0.076172;0.023438;1.041992;0;0;239750;0;0;0
2024-11-05_10-06-11.026015;239753;-22.666626;22.0;0.021667;3.669167;93.0;0.080078;0.020508;1.042969;0;0;239900;0;0;0
2024-11-05_10-06-11.184256;239898;-22.666626;21.9375;0.021667;3.669167;95.0;0.081055;0.022461;1.067383;0;0;240060;0;0;0
2024-11-05_10-06-11.340365;240044;-32.0;22.0;0.021667;3.669167;94.0;0.086914;0.022461;1.054688;0;0;240208;0;0;0
2024-11-05_10-06-11.560632;240325;-22.666626;22.0;0.021667;3.669167;93.0;0.092773;0.027344;1.082031;0;0;240440;0;0;0
2024-11-05_10-06-11.654982;240325;-22.666626;22.0;0.021667;3.669167;93.0;0.092773;0.027344;1.082031;0;0;240527;0;0;0
2024-11-05_10-06-11.827285;240606;-29.333374;22.0;0.021667;3.669167;92.0;0.094727;0.019531;1.043945;0;0;240701;0;0;0
2024-11-05_10-06-12.140925;240885;-25.333374;22.0;0.021667;3.669167;95.0;0.097656;0.027344;1.044922;0;0;241016;0;0;0
2024-11-05_10-06-12.376802;241023;-18.666626;22.0;0.021667;3.669167;94.0;0.098633;0.025391;1.039062;0;0;241237;0;0;0
2024-11-05_10-06-12.438942;241165;-21.333374;22.0;0.021667;3.669167;91.0;0.09375;0.027344;1.021484;0;0;241320;0;0;0
2024-11-05_10-06-12.580505;241302;-20.0;21.9375;0.021667;3.669167;93.0;0.095703;0.023438;1.004883;0;0;241454;0;0;0
2024-11-05_10-06-12.799440;241447;-17.333374;22.0;0.021667;3.669167;90.0;0.09082;0.030273;0.988281;0;0;241667;0;0;0
2024-11-05_10-06-12.940627;241592;-18.666626;22.0;0.021667;3.669167;94.0;0.09082;0.022461;0.973633;0;0;241801;0;0;0
2024-11-05_10-06-13.066071;241735;-13.333374;22.0;0.021667;3.669167;95.0;0.092773;0.025391;0.987305;0;0;241940;0;0;0
2024-11-05_10-06-13.222318;241877;-10.666626;22.0;0.021667;3.669167;93.0;0.089844;0.027344;0.970703;0;0;242099;0;0;0
2024-11-05_10-06-13.442203;242182;-17.333374;22.0;0.021667;3.669167;91.0;0.092773;0.023438;0.972656;0;0;242320;0;0;0
2024-11-05_10-06-13.599919;242332;-16.0;22.0;0.021667;3.669167;93.0;0.09375;0.030273;0.960938;0;0;242486;0;0;0
2024-11-05_10-06-13.693965;242482;-13.333374;22.0;0.021667;3.669167;92.0;0.091797;0.026367;0.972656;0;0;242570;0;0;0
2024-11-05_10-06-13.976275;242622;-17.333374;22.0;0.02125;3.669167;94.0;0.091797;0.027344;0.977539;0;0;242813;0;0;0
2024-11-05_10-06-14.148637;242903;-16.0;22.0;0.021667;3.669167;92.0;0.09375;0.03125;0.998047;0;0;243029;0;0;0
2024-11-05_10-06-14.290188;243045;-18.666626;22.0;0.021667;3.669167;93.0;0.088867;0.024414;1.017578;0;0;243178;0;0;0
2024-11-05_10-06-14.463490;243184;-30.666626;22.0;0.021667;3.669167;92.0;0.091797;0.023438;1.051758;0;0;243349;0;0;0
2024-11-05_10-06-14.746801;243325;-25.333374;22.0;0.021667;3.669167;95.0;0.09668;0.030273;1.049805;0;0;243621;0;0;0
2024-11-05_10-06-15.029072;243692;-30.666626;22.0;0.02125;3.669167;94.0;0.094727;0.021484;1.080078;0;0;243908;0;0;0
2024-11-05_10-06-19.516107;248146;-22.666626;22.0;0.021667;3.66375;95.0;0.084961;0.021484;1.046875;0;0;248241;0;0;0
2024-11-05_10-06-19.673621;248284;-18.666626;22.0;0.021667;3.66375;92.0;0.083008;0.020508;1.039062;0;0;248401;0;0;0
2024-11-05_10-06-19.830515;248427;-18.666626;22.0;0.021667;3.66375;92.0;0.083984;0.02832;1.033203;0;0;248561;0;0;0
2024-11-05_10-06-19.974189;248567;-21.333374;22.0;0.021667;3.66375;94.0;0.086914;0.027344;1.041992;0;0;248702;0;0;0
2024-11-05_10-06-20.396712;249009;-32.0;21.9375;0.021667;3.66375;93.0;0.084961;0.030273;1.064453;0;0;249133;0;0;0
2024-11-05_10-06-20.760507;249156;-21.333374;22.0;0.021667;3.66375;94.0;0.088867;0.022461;1.079102;0;0;249364;0;0;0
2024-11-05_10-06-20.933368;249577;-21.333374;22.0;0.021667;3.66375;96.0;0.083984;0.021484;1.047852;0;0;249661;0;0;0
2024-11-05_10-06-21.075088;249716;-22.666626;22.0;0.021667;3.66375;97.0;0.084961;0.015625;1.054688;0;0;249801;0;0;0
2024-11-05_10-06-21.232023;249855;-21.333374;22.0;0.021667;3.66375;93.0;0.086914;0.018555;1.050781;0;0;249961;0;0;0
2024-11-05_10-06-21.389711;249985;-20.0;21.9375;0.02125;3.66375;94.0;0.083984;0.023438;1.046875;0;0;250121;0;0;0
2024-11-05_10-06-21.546591;250127;-25.333374;22.0;0.02125;3.66375;96.0;0.088867;0.018555;1.016602;0;0;250281;0;0;0
2024-11-05_10-06-21.734567;250265;-17.333374;22.0;0.021667;3.66375;93.0;0.087891;0.023438;1.009766;0;0;250439;0;0;0
2024-11-05_10-06-21.953977;250544;-21.333374;21.9375;0.021667;3.66375;94.0;0.082031;0.030273;1.00293;0;0;250690;0;0;0
2024-11-05_10-06-22.016627;250544;-21.333374;21.9375;0.021667;3.66375;94.0;0.082031;0.030273;1.00293;0;0;250750;0;0;0
2024-11-05_10-06-22.175003;250687;-17.333374;22.0;0.021667;3.66375;95.0;0.085938;0.027344;0.995117;0;0;250899;0;0;0
2024-11-05_10-06-22.333341;250974;-8.0;22.0;0.021667;3.66375;92.0;0.083984;0.032227;0.984375;0;0;251058;0;0;0
2024-11-05_10-06-22.568521;251118;-18.666626;22.0;0.021667;3.6625;95.0;0.078125;0.026367;0.980469;0;0;251290;0;0;0
2024-11-05_10-06-22.647071;251267;-17.333374;21.9375;0.021667;3.66375;91.0;0.080078;0.022461;1.004883;0;0;251372;0;0;0
2024-11-05_10-06-22.790542;251424;-20.0;22.0;0.021667;3.661667;96.0;0.082031;0.03125;1.026367;0;0;251509;0;0;0
2024-11-05_10-06-22.947701;251571;-21.333374;22.0;0.021667;3.6625;94.0;0.081055;0.030273;1.033203;0;0;251681;0;0;0
2024-11-05_10-06-23.229517;251731;-21.333374;21.9375;0.021667;3.658334;93.0;0.083008;0.027344;1.051758;0;0;251956;0;0;0
2024-11-05_10-06-23.434103;252026;-29.333374;22.0;0.021667;3.658334;94.0;0.084961;0.027344;1.051758;0;0;252168;0;0;0
2024-11-05_10-06-23.575548;252164;-25.333374;22.0;0.021667;3.659583;93.0;0.083984;0.019531;1.046875;0;0;252316;0;0;0
2024-11-05_10-06-23.764674;252307;-26.666626;22.0;0.021667;3.658334;93.0;0.083984;0.021484;1.058594;0;0;252491;0;0;0
2024-11-05_10-06-23.922228;252444;-21.333374;21.9375;0.021667;3.658334;93.0;0.083008;0.020508;1.049805;0;0;252626;0;0;0
2024-11-05_10-06-24.049278;252587;-25.333374;21.9375;0.021667;3.658334;93.0;0.089844;0.022461;1.043945;0;0;252781;0;0;0
2024-11-05_10-06-24.213260;252734;-22.666626;22.0;0.021667;3.658334;92.0;0.083984;0.020508;1.02832;0;0;252941;0;0;0
2024-11-05_10-06-24.364065;253014;-20.0;21.9375;0.021667;3.659167;94.0;0.078125;0.027344;1.018555;0;0;253091;0;0;0
2024-11-05_10-06-24.552240;253156;-17.333374;22.0;0.021667;3.658334;95.0;0.080078;0.019531;1.006836;0;0;253290;0;0;0
2024-11-05_10-06-24.663079;253298;-17.333374;21.9375;0.021667;3.658334;95.0;0.081055;0.022461;1.000977;0;0;253401;0;0;0
2024-11-05_10-06-24.835355;253434;-21.333374;21.9375;0.021667;3.658334;93.0;0.083008;0.027344;0.998047;0;0;253559;0;0;0
2024-11-05_10-06-25.023945;253577;-18.666626;22.0;0.021667;3.658334;93.0;0.076172;0.030273;0.996094;0;0;253736;0;0;0
2024-11-05_10-06-25.321913;253857;-20.0;22.0;0.021667;3.657917;94.0;0.080078;0.022461;0.986328;0;0;254061;0;0;0
2024-11-05_10-06-25.494704;254000;-13.333374;21.9375;0.021667;3.658334;92.0;0.079102;0.022461;0.980469;0;0;254224;0;0;0
2024-11-05_10-06-25.636713;254154;-10.666626;21.9375;3.658334;3.658334;93.0;0.079102;0.020508;0.970703;0;0;254353;0;0;0
2024-11-05_10-06-25.825068;254443;-16.0;22.0;0.021667;3.658334;93.0;0.077148;0.019531;0.994141;0;0;254551;0;0;0
2024-11-05_10-06-25.935696;254587;-16.0;22.0;0.021667;3.658334;91.0;0.083008;0.018555;1.008789;0;0;254661;0;0;0
2024-11-05_10-06-26.407625;255017;-25.333374;22.0;0.021667;3.658334;93.0;0.080078;0.023438;1.044922;0;0;255140;0;0;0
2024-11-05_10-06-26.565229;255154;-22.666626;21.9375;0.021667;3.658334;93.0;0.079102;0.024414;1.050781;0;0;255289;0;0;0
2024-11-05_10-06-26.754231;255298;-29.333374;21.9375;0.021667;3.658334;95.0;0.079102;0.027344;1.071289;0;0;255480;0;0;0
2024-11-05_10-06-26.864169;255447;-22.666626;21.9375;0.021667;3.658334;91.0;0.082031;0.023438;1.064453;0;0;255591;0;0;0
2024-11-05_10-06-27.021918;255584;-25.333374;22.0;0.021667;3.658334;95.0;0.085938;0.030273;1.054688;0;0;255751;0;0;0
2024-11-05_10-06-27.180911;255728;-22.666626;21.9375;0.021667;3.658334;94.0;0.082031;0.020508;1.052734;0;0;255911;0;0;0
2024-11-05_10-06-27.416777;256016;-22.666626;22.0;0.021667;3.658334;96.0;0.080078;0.030273;1.066406;0;0;256127;0;0;0
2024-11-05_10-06-27.510739;256155;-22.666626;22.0;0.02125;3.657917;95.0;0.081055;0.022461;1.042969;0;0;256241;0;0;0
2024-11-05_10-06-27.873095;256443;-21.333374;22.0;0.021667;3.658334;92.0;0.077148;0.018555;1.022461;0;0;256606;0;0;0
2024-11-05_10-06-28.032414;256587;-22.666626;22.0;0.021667;3.657917;92.0;0.077148;0.025391;1.044922;0;0;256771;0;0;0
2024-11-05_10-06-28.125014;256743;-18.666626;22.0;0.021667;3.658334;93.0;0.077148;0.022461;1.045898;0;0;256861;0;0;0
2024-11-05_10-06-28.360401;256896;-22.666626;21.9375;0.021667;3.658334;93.0;0.081055;0.024414;1.033203;0;0;257087;0;0;0
2024-11-05_10-06-28.438785;257037;-22.666626;21.9375;0.021667;3.658334;92.0;0.076172;0.025391;1.027344;0;0;257171;0;0;0
2024-11-05_10-06-28.596229;257174;-22.666626;22.0;0.021667;3.658334;93.0;0.074219;0.021484;1.02832;0;0;257331;0;0;0
2024-11-05_10-06-28.752451;257316;-22.666626;22.0;0.021667;3.658334;95.0;0.079102;0.021484;1.060547;0;0;257481;0;0;0
2024-11-05_10-06-28.909331;257455;-21.333374;22.0;0.02125;3.658334;94.0;0.080078;0.016602;1.061523;0;0;257641;0;0;0
2024-11-05_10-06-29.065712;257596;-25.333374;22.0;0.021667;3.658334;89.0;0.082031;0.020508;1.049805;0;0;257791;0;0;0
2024-11-05_10-06-29.238031;257876;-22.666626;22.0;0.021667;3.658334;92.0;0.077148;0.023438;1.0625;0;0;257961;0;0;0
2024-11-05_10-06-29.456914;258016;-22.666626;22.0;0.021667;3.6575;94.0;0.071289;0.020508;1.068359;0;0;258180;0;0;0
2024-11-05_10-06-29.535284;258156;-29.333374;22.0;0.021667;3.65375;95.0;0.078125;0.024414;1.080078;0;0;258261;0;0;0
2024-11-05_10-06-29.880759;258437;-57.333374;22.0;0.021667;3.652917;93.0;0.080078;0.011719;1.199219;0;0;258592;0;0;0
2024-11-05_10-06-30.009215;258575;-64.0;21.9375;0.021667;3.652917;92.0;0.083984;0.017578;1.289062;0;0;258729;0;0;0
2024-11-05_10-06-30.164405;258716;-77.333374;22.0;0.021667;3.652917;93.0;0.092773;0.011719;1.360352;0;0;258889;0;0;0
2024-11-05_10-06-30.383789;259005;-104.0;21.9375;0.02125;3.652917;94.0;0.097656;0.014648;1.508789;0;0;259111;0;0;0
2024-11-05_10-06-30.714181;259316;-125.333374;21.9375;0.021667;3.652917;93.0;0.109375;0.019531;1.676758;0;0;259446;0;0;0
2024-11-05_10-06-30.792303;259316;-125.333374;21.9375;0.021667;3.652917;93.0;0.109375;0.019531;1.676758;0;0;259521;0;0;0
2024-11-05_10-06-30.980015;259607;-136.0;21.9375;0.021667;3.652917;93.0;0.116211;0.021484;1.740234;0;0;259685;0;0;0
2024-11-05_10-06-31.105018;259747;-152.0;22.0;0.021667;3.652917;93.0;0.119141;0.024414;1.77832;0;0;259830;0;0;0
2024-11-05_10-06-31.357106;259884;-142.666626;22.0;0.021667;3.652917;95.0;0.115234;0.02832;1.779297;0;0;260086;0;0;0
2024-11-05_10-06-31.576706;260164;-145.333374;22.0;0.021667;3.652917;94.0;0.120117;0.019531;1.817383;0;0;260299;0;0;0
2024-11-05_10-06-31.796006;260308;-157.333374;22.0;0.021667;3.652917;95.0;0.120117;0.022461;1.818359;0;0;260529;0;0;0
2024-11-05_10-06-31.874344;260456;-152.0;22.0;0.021667;3.652917;94.0;0.123047;0.017578;1.831055;0;0;260611;0;0;0
2024-11-05_10-06-32.032223;260594;-152.0;22.0;0.021667;3.652917;94.0;0.117188;0.020508;1.813477;0;0;260761;0;0;0
2024-11-05_10-06-32.204101;260737;-153.333374;22.0;0.021667;3.652917;94.0;0.12207;0.015625;1.826172;0;0;260922;0;0;0
2024-11-05_10-06-32.439765;261026;-153.333374;22.0;0.021667;3.652917;95.0;0.123047;0.010742;1.811523;0;0;261168;0;0;0
2024-11-05_10-06-32.596008;261164;-157.333374;21.9375;0.021667;3.652917;95.0;0.120117;0.010742;1.820312;0;0;261330;0;0;0
2024-11-05_10-06-32.674140;261306;-153.333374;22.0;0.021667;3.652917;91.0;0.123047;0.012695;1.827148;0;0;261401;0;0;0
2024-11-05_10-06-32.940971;261448;-153.333374;22.0;0.021667;3.652917;95.0;0.118164;0.010742;1.841797;0;0;261673;0;0;0
2024-11-05_10-06-33.160915;261754;-153.333374;22.0;0.021667;3.652917;94.0;0.123047;0.005859;1.826172;0;0;261901;0;0;0
2024-11-05_10-06-33.411687;262034;-154.666626;22.0;0.021667;3.652917;94.0;0.12207;0.006836;1.84082;0;0;262135;0;0;0
2024-11-05_10-06-33.585479;262183;-153.333374;22.0;0.021667;3.652917;94.0;0.125977;0.018555;1.852539;0;0;262321;0;0;0
2024-11-05_10-06-33.821357;262331;-156.0;21.9375;0.021667;3.652917;93.0;0.125;0.015625;1.84082;0;0;262548;0;0;0
2024-11-05_10-06-33.978049;262617;-158.666626;22.0;0.021667;3.652917;93.0;0.124023;0.016602;1.857422;0;0;262711;0;0;0
2024-11-05_10-06-34.088019;262617;-158.666626;22.0;0.021667;3.652917;93.0;0.124023;0.016602;1.857422;0;0;262809;0;0;0
2024-11-05_10-06-34.244263;262755;-156.0;22.0;0.021667;3.652917;93.0;0.124023;0.018555;1.845703;0;0;262969;0;0;0
2024-11-05_10-06-34.557132;263174;-156.0;22.0;0.021667;3.652917;96.0;0.124023;0.025391;1.852539;0;0;263264;0;0;0
2024-11-05_10-06-34.699675;263317;-154.666626;22.0;0.021667;3.652917;96.0;0.123047;0.024414;1.856445;0;0;263431;0;0;0
2024-11-05_10-06-34.887552;263456;-152.0;21.9375;0.021667;3.652917;95.0;0.126953;0.012695;1.849609;0;0;263620;0;0;0
2024-11-05_10-06-35.012557;263596;-154.666626;22.0;0.021667;3.652917;93.0;0.125977;0.018555;1.857422;0;0;263740;0;0;0
2024-11-05_10-06-35.295384;263876;-152.0;22.0;0.021667;3.652917;92.0;0.125;0.004883;1.836914;0;0;264021;0;0;0
2024-11-05_10-06-35.499840;264015;-158.666626;22.0;0.021667;3.652917;93.0;0.123047;0.020508;1.849609;0;0;264219;0;0;0
2024-11-05_10-06-35.766140;264294;-153.333374;21.9375;0.021667;3.652917;95.0;0.126953;0.005859;1.841797;0;0;264507;0;0;0
2024-11-05_10-06-36.095958;264726;-158.666626;22.0;0.021667;3.652917;96.0;0.125977;0.020508;1.854492;0;0;264831;0;0;0
2024-11-05_10-06-36.269775;264862;-158.666626;21.9375;0.021667;3.652917;95.0;0.128906;0.017578;1.860352;0;0;264991;0;0;0
2024-11-05_10-06-36.427270;265014;-158.666626;22.0;0.021667;3.652917;93.0;0.129883;0.015625;1.827148;0;0;265153;0;0;0
2024-11-05_10-06-36.630534;265169;-161.333374;22.0;0.021667;3.652917;94.0;0.129883;0.015625;1.875977;0;0;265369;0;0;0
2024-11-05_10-06-36.803104;265315;-164.0;22.0;0.021667;3.652917;94.0;0.135742;0.007812;1.891602;0;0;265529;0;0;0
2024-11-05_10-06-36.960737;265597;-152.0;21.9375;0.021667;3.652917;92.0;0.128906;0.027344;1.901367;0;0;265691;0;0;0
2024-11-05_10-06-37.070677;265597;-152.0;21.9375;0.021667;3.652917;92.0;0.128906;0.027344;1.901367;0;0;265789;0;0;0
2024-11-05_10-06-37.274574;265877;-154.666626;22.0;0.02125;3.652917;94.0;0.129883;0.008789;1.861328;0;0;265973;0;0;0
2024-11-05_10-06-37.494499;266019;-152.0;22.0;0.021667;3.652917;95.0;0.132812;0.015625;1.818359;0;0;266197;0;0;0
2024-11-05_10-06-37.682744;266307;-145.333374;22.0;0.021667;3.6525;91.0;0.126953;0.015625;1.787109;0;0;266411;0;0;0
2024-11-05_10-06-37.825556;266445;-136.0;22.0;0.021667;3.6525;94.0;0.125977;0.020508;1.760742;0;0;266561;0;0;0
2024-11-05_10-06-38.090333;266724;-133.333374;22.0;0.021667;3.652083;92.0;0.131836;0.010742;1.680664;0;0;266831;0;0;0
2024-11-05_10-06-38.152839;266724;-133.333374;22.0;0.021667;3.652083;92.0;0.131836;0.010742;1.680664;0;0;266881;0;0;0
2024-11-05_10-06-38.309549;266867;-133.333374;22.0;0.02125;3.6525;94.0;0.125;-0.003906;1.698242;0;0;267040;0;0;0
2024-11-05_10-06-38.466891;267004;-138.666626;21.9375;0.021667;3.648334;93.0;0.139648;0.006836;1.765625;0;0;267199;0;0;0
2024-11-05_10-06-38.607903;267148;-145.333374;21.9375;0.021667;3.6475;95.0;0.125;0.00293;1.75293;0;0;267341;0;0;0
2024-11-05_10-06-38.796166;267297;-150.666626;22.0;3.648334;3.6475;96.0;0.129883;0.016602;1.782227;0;0;267521;0;0;0
2024-11-05_10-06-38.938077;267439;-156.0;22.0;0.021667;3.647917;94.0;0.139648;-0.000977;1.844727;0;0;267671;0;0;0
2024-11-05_10-06-39.252655;267757;-161.333374;22.0;0.021667;3.6475;93.0;0.143555;0.033203;1.858398;0;0;267975;0;0;0
2024-11-05_10-06-39.408909;268047;-158.666626;22.0;0.021667;3.6475;91.0;0.144531;0.018555;1.865234;0;0;268141;0;0;0
2024-11-05_10-06-39.706618;268327;-152.0;22.0;0.021667;3.647917;94.0;0.150391;0.033203;1.837891;0;0;268425;0;0;0
2024-11-05_10-06-39.878845;268466;-164.0;22.0;0.021667;3.6475;94.0;0.141602;0.015625;1.87793;0;0;268611;0;0;0
2024-11-05_10-06-40.068047;268606;-154.666626;22.0;0.021667;3.6475;92.0;0.148438;0.036133;1.870117;0;0;268791;0;0;0
2024-11-05_10-06-40.272395;268887;-172.0;22.0;0.021667;3.6475;97.0;0.157227;0.003906;1.913086;0;0;269001;0;0;0
2024-11-05_10-06-40.475651;269024;-173.333374;22.0;0.021667;3.6475;93.0;0.163086;0.006836;1.959961;0;0;269204;0;0;0
2024-11-05_10-06-40.663162;269305;-168.0;21.9375;0.021667;3.6475;92.0;0.160156;0.012695;1.932617;0;0;269391;0;0;0
2024-11-05_10-06-40.851791;269446;-174.666626;22.0;0.021667;3.647083;92.0;0.166016;0.004883;1.970703;0;0;269551;0;0;0
2024-11-05_10-06-41.180949;269726;-170.666626;22.0;0.021667;3.6475;95.0;0.160156;0.011719;1.97168;0;0;269915;0;0;0
2024-11-05_10-06-41.479169;270013;-161.333374;22.0;0.021667;3.6475;95.0;0.163086;0.020508;1.891602;0;0;270201;0;0;0
2024-11-05_10-06-41.604172;270165;-161.333374;22.0;0.021667;3.6475;94.0;0.167969;0.005859;1.899414;0;0;270341;0;0;0
2024-11-05_10-06-42.562842;271165;-152.0;21.9375;0.021667;3.6475;93.0;0.15918;0.014648;1.791016;0;0;271283;0;0;0
2024-11-05_10-06-42.703468;271307;-152.0;22.0;0.021667;3.6475;95.0;0.165039;0.016602;1.786133;0;0;271439;0;0;0
2024-11-05_10-06-42.875856;271446;-153.333374;22.0;0.021667;3.6475;93.0;0.158203;0.005859;1.805664;0;0;271610;0;0;0
2024-11-05_10-06-43.016612;271586;-154.666626;22.0;0.021667;3.6475;93.0;0.172852;0.000977;1.831055;0;0;271751;0;0;0
2024-11-05_10-06-43.267601;271867;-153.333374;22.0;0.021667;3.6475;96.0;0.165039;0.006836;1.836914;0;0;271997;0;0;0
2024-11-05_10-06-43.471560;272004;-158.666626;22.0;0.021667;3.6475;95.0;0.172852;0.011719;1.851562;0;0;272175;0;0;0
2024-11-05_10-06-43.643074;272284;-161.333374;22.0;0.021667;3.6475;95.0;0.179688;0.014648;1.893555;0;0;272370;0;0;0
2024-11-05_10-06-43.814956;272428;-170.666626;21.9375;0.021667;3.6475;91.0;0.177734;0.009766;1.911133;0;0;272550;0;0;0
2024-11-05_10-06-44.036076;272580;-161.333374;22.0;0.021667;3.6475;93.0;0.180664;0.026367;1.891602;0;0;272761;0;0;0
2024-11-05_10-06-44.114634;272734;-158.666626;21.9375;0.021667;3.6475;94.0;0.178711;0.019531;1.875977;0;0;272841;0;0;0
2024-11-05_10-06-44.272198;272893;-158.666626;22.0;0.02125;3.646667;91.0;0.180664;0.012695;1.871094;0;0;272991;0;0;0
2024-11-05_10-06-44.491652;273036;-158.666626;22.0;0.021667;3.645833;94.0;0.181641;0.012695;1.860352;0;0;273226;0;0;0
2024-11-05_10-06-44.632574;273176;-154.666626;22.0;0.021667;3.642917;93.0;0.179688;0.014648;1.833984;0;0;273333;0;0;0
2024-11-05_10-06-44.804571;273314;-152.0;22.0;0.021667;3.644584;94.0;0.180664;0.009766;1.80957;0;0;273508;0;0;0
2024-11-05_10-06-44.887318;273457;-153.333374;22.0;0.021667;3.64375;93.0;0.183594;0.010742;1.811523;0;0;273621;0;0;0
2024-11-05_10-06-45.087578;273737;-142.666626;21.9375;0.021667;3.642083;95.0;0.180664;0.017578;1.768555;0;0;273821;0;0;0
2024-11-05_10-06-45.198306;273737;-142.666626;21.9375;0.021667;3.642083;95.0;0.180664;0.017578;1.768555;0;0;273929;0;0;0
2024-11-05_10-06-45.354920;273876;-152.0;21.9375;0.021667;3.643333;95.0;0.182617;0.016602;1.751953;0;0;274089;0;0;0
2024-11-05_10-06-45.700204;274296;-140.0;22.0;0.021667;3.642083;92.0;0.182617;0.03125;1.760742;0;0;274427;0;0;0
2024-11-05_10-06-45.856454;274434;-138.666626;22.0;0.021667;3.643333;94.0;0.1875;0.030273;1.755859;0;0;274557;0;0;0
2024-11-05_10-06-45.968486;274577;-138.666626;22.0;0.021667;3.642083;93.0;0.177734;0.040039;1.745117;0;0;274701;0;0;0
2024-11-05_10-06-46.171213;274714;-137.333374;22.0;0.021667;3.642083;95.0;0.186523;0.051758;1.728516;0;0;274906;0;0;0
2024-11-05_10-06-46.297731;274856;-137.333374;22.0;0.021667;3.642083;96.0;0.182617;0.043945;1.741211;0;0;275031;0;0;0
2024-11-05_10-06-46.454193;274999;-142.666626;22.0;0.021667;3.642083;94.0;0.185547;0.048828;1.749023;0;0;275174;0;0;0
2024-11-05_10-06-46.627544;275154;-138.666626;22.0;0.021667;3.642083;92.0;0.189453;0.048828;1.71875;0;0;275351;0;0;0
2024-11-05_10-06-46.768129;275306;-138.666626;22.0;0.021667;3.642083;94.0;0.193359;0.042969;1.735352;0;0;275501;0;0;0
2024-11-05_10-06-46.971882;275456;-133.333374;22.0;0.021667;3.642083;93.0;0.194336;0.041016;1.730469;0;0;275681;0;0;0
2024-11-05_10-06-47.066764;275607;-142.666626;22.0;0.021667;3.642083;96.0;0.194336;0.043945;1.723633;0;0;275801;0;0;0
2024-11-05_10-06-47.222854;275757;-138.666626;22.0;0.021667;3.642083;94.0;0.198242;0.012695;1.708984;0;0;275951;0;0;0
2024-11-05_10-06-47.380391;275894;-142.666626;22.0;0.021667;3.642083;93.0;0.199219;0.006836;1.71875;0;0;276110;0;0;0
2024-11-05_10-06-47.523251;276037;-142.666626;22.0;0.021667;3.642083;92.0;0.199219;0.003906;1.707031;0;0;276262;0;0;0
2024-11-05_10-06-47.835364;276476;-138.666626;22.0;0.021667;3.642083;94.0;0.207031;-0.005859;1.734375;0;0;276570;0;0;0
2024-11-05_10-06-48.165386;276757;-138.666626;22.0;0.021667;3.642083;92.0;0.209961;-0.006836;1.728516;0;0;276870;0;0;0
2024-11-05_10-06-48.368966;276894;-142.666626;22.0;0.021667;3.642083;96.0;0.209961;-0.003906;1.716797;0;0;277088;0;0;0
2024-11-05_10-06-48.493982;277036;-136.0;22.0;0.021667;3.642083;91.0;0.207031;-0.008789;1.709961;0;0;277225;0;0;0
2024-11-05_10-06-48.760347;277316;-125.333374;22.0;0.021667;3.642083;94.0;0.198242;0.016602;1.6875;0;0;277490;0;0;0
2024-11-05_10-06-48.948448;277454;-125.333374;22.0;0.021667;3.642083;92.0;0.188477;0.017578;1.651367;0;0;277682;0;0;0
2024-11-05_10-06-49.167602;277766;-104.0;22.0;0.021667;3.642083;94.0;0.170898;0.024414;1.599609;0;0;277891;0;0;0
2024-11-05_10-06-49.465830;278065;-108.0;22.0;3.642083;3.642083;94.0;0.155273;0.02832;1.530273;0;0;278180;0;0;0
2024-11-05_10-06-49.669377;278207;-86.666626;22.0;0.021667;3.642083;91.0;0.147461;0.03125;1.504883;0;0;278400;0;0;0
2024-11-05_10-06-49.763315;278347;-73.333374;22.0;0.021667;3.642083;94.0;0.134766;0.033203;1.458984;0;0;278489;0;0;0
2024-11-05_10-06-49.889212;278485;-66.666626;21.9375;0.021667;3.642083;93.0;0.123047;0.03125;1.385742;0;0;278621;0;0;0
2024-11-05_10-06-50.141609;278764;-70.666626;21.9375;0.021667;3.642083;92.0;0.097656;0.024414;1.233398;0;0;278871;0;0;0
2024-11-05_10-06-50.204414;278764;-70.666626;21.9375;0.021667;3.642083;92.0;0.097656;0.024414;1.233398;0;0;278941;0;0;0
2024-11-05_10-06-50.471237;279044;-20.0;22.0;0.021667;3.642083;93.0;0.067383;0.022461;1.033203;0;0;279190;0;0;0
2024-11-05_10-06-50.533780;279044;-20.0;22.0;0.021667;3.642083;93.0;0.067383;0.022461;1.033203;0;0;279271;0;0;0
2024-11-05_10-06-50.706484;279336;18.666626;22.0;0.02125;3.642083;93.0;0.042969;0.025391;0.822266;0;0;279420;0;0;0
2024-11-05_10-06-51.226836;279764;68.0;22.0;0.021667;3.642083;92.0;0.016602;0.017578;0.498047;20000;20000;279941;1;0;0
2024-11-05_10-06-51.321083;279919;80.0;22.0;0.237083;3.754167;87.0;0.011719;0.014648;0.415039;20000;20000;280051;1;0;0
2024-11-05_10-06-51.463088;280067;88.0;21.9375;0.315833;3.671667;91.0;-0.004883;0.020508;0.320312;20000;20000;280192;1;0;0
2024-11-05_10-06-51.651972;280209;104.0;22.0;0.279167;3.870417;97.0;0.005859;0.017578;0.28125;20000;20000;280351;0;0;0
2024-11-05_10-06-51.761802;280367;104.0;22.0;0.15875;3.6575;93.0;0.005859;0.018555;0.253906;20000;20000;280492;0;0;0
2024-11-05_10-06-51.935372;280521;117.333252;22.0;0.16125;3.662084;95.0;0.004883;0.023438;0.193359;20000;20000;280655;0;0;0
2024-11-05_10-06-52.092138;280666;117.333252;22.0;0.139583;3.667917;92.0;0.000977;0.024414;0.149414;20000;20000;280811;0;0;0
2024-11-05_10-06-52.249093;280796;122.666748;22.0;0.13;3.65;94.0;0.0;0.025391;0.154297;20000;20000;280959;0;0;0
2024-11-05_10-06-52.405862;280936;121.333252;21.9375;0.03875;3.642083;95.0;0.0;0.026367;0.12793;20000;20000;281121;0;0;0
2024-11-05_10-06-52.768020;281366;136.0;22.0;0.022083;3.639167;92.0;-0.000977;0.036133;0.056641;20000;20000;281496;0;0;0
2024-11-05_10-06-52.862344;281505;140.0;22.0;0.021667;3.637917;92.0;-0.001953;0.032227;0.023438;20000;20000;281591;0;0;0
2024-11-05_10-06-53.035401;281646;140.0;22.0;0.021667;3.637083;93.0;0.000977;0.035156;0.00293;20000;20000;281737;0;0;0
2024-11-05_10-06-53.161426;281784;142.666748;22.0;0.022083;3.636667;94.0;0.0;0.030273;0.000977;20000;20000;281891;0;0;0
2024-11-05_10-06-53.318742;281939;142.666748;22.0;0.021667;3.636667;93.0;-0.000977;0.026367;-0.010742;0;0;250;0;0;0
2024-11-05_10-06-53.475042;282088;142.666748;22.0;0.021667;3.636667;94.0;-0.000977;0.026367;-0.012695;5000;5000;400;0;2;0
2024-11-05_10-06-53.631289;282237;148.0;22.0;0.079583;3.64;93.0;-0.004883;0.024414;-0.016602;5000;5000;559;0;0;0
2024-11-05_10-06-53.791802;282374;145.333252;22.0;0.109167;3.65875;97.0;-0.004883;0.016602;0.001953;10000;10000;719;0;0;0
2024-11-05_10-06-53.961740;282517;142.666748;22.0;0.066667;3.65375;97.0;-0.005859;0.020508;-0.001953;10000;10000;889;0;0;0
2024-11-05_10-06-54.109430;282664;140.0;22.0;0.145417;3.660417;97.0;-0.003906;0.019531;0.010742;15000;15000;1022;0;0;0
2024-11-05_10-06-54.260924;282817;138.666748;22.0;0.068333;3.640834;99.0;-0.00293;0.015625;0.024414;15000;15000;1191;0;0;0
2024-11-05_10-06-54.527830;283095;136.0;22.0;0.122917;3.640834;107.0;-0.007812;0.023438;0.040039;20000;20000;1447;0;0;0
2024-11-05_10-06-54.653671;283237;138.666748;22.0;0.147083;3.651667;110.0;-0.006836;0.021484;0.044922;25000;25000;1571;0;0;0
2024-11-05_10-06-54.803829;283388;136.0;22.0;0.0625;3.640834;113.0;-0.007812;0.022461;0.045898;25000;25000;1719;0;0;0
2024-11-05_10-06-55.079624;283693;128.0;22.0;0.12125;3.65;121.0;-0.008789;0.024414;0.041016;30000;30000;2009;0;0;0
2024-11-05_10-06-55.252674;283838;130.666748;22.0;0.107083;3.660417;128.0;-0.008789;0.020508;0.041992;30000;30000;2190;0;0;0
2024-11-05_10-06-55.370184;283986;136.0;22.0;0.17125;3.65125;131.0;-0.005859;0.023438;0.051758;35000;35000;2290;0;0;0
2024-11-05_10-06-55.661525;284267;128.0;22.0;0.102083;3.637083;140.0;-0.007812;0.024414;0.055664;40000;40000;2565;0;0;0
2024-11-05_10-06-55.818698;284405;128.0;22.0;0.12375;3.657084;148.0;-0.008789;0.021484;0.053711;40000;40000;2750;0;0;0
2024-11-05_10-06-55.976398;284546;132.0;22.0;0.064583;3.646667;155.0;-0.008789;0.026367;0.057617;45000;45000;2910;0;0;0
2024-11-05_10-06-56.165715;284686;128.0;22.0;0.077083;3.636667;162.0;-0.008789;0.029297;0.047852;45000;45000;3080;0;0;0
2024-11-05_10-06-56.323513;284966;121.333252;22.0;0.126667;3.638334;178.0;-0.012695;0.025391;0.040039;50000;50000;3240;0;0;0
2024-11-05_10-06-56.465149;285107;130.666748;22.0;0.228333;3.492084;184.0;-0.013672;0.027344;0.047852;50000;50000;3390;0;0;0
2024-11-05_10-06-56.638411;285246;122.666748;22.0;0.547083;3.48;198.0;-0.007812;0.02832;0.042969;55000;55000;3558;0;0;0
2024-11-05_10-06-57.158023;285667;146.666748;22.0;0.804583;3.45375;184.0;-0.013672;0.026367;0.024414;-100000;-100000;4039;0;0;0
2024-11-05_10-06-57.292656;285808;173.333252;22.0;0.8725;3.44875;165.0;-0.011719;0.027344;0.026367;-100000;-100000;4212;0;0;0
2024-11-05_10-06-57.393530;285965;206.666748;22.0;0.922917;3.4425;148.0;-0.010742;0.02832;0.023438;-100000;-100000;4321;0;0;0
2024-11-05_10-06-57.581812;286118;206.666748;22.0;0.962917;3.4425;129.0;-0.012695;0.029297;0.023438;-100000;-100000;4499;0;0;0
2024-11-05_10-06-57.791565;286417;186.666748;22.0;1.00875;3.4425;97.0;-0.010742;0.027344;0.019531;-100000;-100000;4710;0;0;0
2024-11-05_10-06-57.943059;286555;181.333252;22.0;1.027083;3.438334;87.0;-0.012695;0.027344;0.016602;20000;20000;4870;1;0;0
2024-11-05_10-06-58.069022;286697;145.333252;22.0;1.15875;3.581667;89.0;-0.009766;0.030273;0.014648;20000;20000;4980;1;0;0
2024-11-05_10-06-58.203374;286834;142.666748;22.0;1.274167;3.717917;93.0;0.008789;0.041992;0.107422;20000;20000;5120;1;0;0
2024-11-05_10-06-58.368705;286976;146.666748;22.0;1.247917;3.53125;91.0;-0.012695;0.029297;0.020508;20000;20000;5279;1;0;0
2024-11-05_10-06-58.510066;287114;142.666748;22.0;1.215;3.647917;92.0;-0.014648;0.033203;0.024414;20000;20000;5430;1;0;0
2024-11-05_10-06-58.715848;287257;140.0;22.0;1.065833;3.622917;95.0;-0.011719;0.033203;0.027344;20000;20000;5637;0;0;0
2024-11-05_10-06-58.810215;287394;142.666748;22.0;0.751667;3.449583;92.0;-0.016602;0.033203;0.019531;20000;20000;5737;0;0;0
2024-11-05_10-06-59.093798;287686;140.0;22.0;0.602083;3.445833;94.0;-0.013672;0.03418;0.026367;20000;20000;6016;0;0;0
2024-11-05_10-06-59.291558;287825;140.0;22.0;0.46375;3.44375;96.0;-0.015625;0.033203;0.029297;20000;20000;6210;0;0;0
2024-11-05_10-06-59.472660;288104;138.666748;22.0;0.2;3.442917;93.0;-0.011719;0.03125;0.024414;20000;20000;6400;0;0;0
2024-11-05_10-06-59.587156;288104;138.666748;22.0;0.2;3.442917;93.0;-0.011719;0.03125;0.024414;20000;20000;6508;0;0;0
2024-11-05_10-06-59.755577;288248;140.0;22.0;0.08;3.443333;96.0;-0.014648;0.032227;0.029297;20000;20000;6679;0;0;0
2024-11-05_10-06-59.897393;288398;140.0;22.0;0.024583;3.442917;95.0;-0.013672;0.033203;0.019531;20000;20000;6821;0;0;0
2024-11-05_10-07-00.118359;288705;138.666748;22.0;3.442917;3.443333;97.0;-0.013672;0.032227;0.027344;20000;20000;7049;0;0;0
2024-11-05_10-07-00.229184;288853;138.666748;22.0;0.021667;3.442917;94.0;-0.011719;0.033203;0.029297;20000;20000;7157;0;0;0
2024-11-05_10-07-00.372449;288997;138.666748;22.0;0.021667;3.443333;92.0;-0.012695;0.033203;0.026367;20000;20000;7299;0;0;0
2024-11-05_10-07-00.559001;289134;140.0;22.0;0.021667;3.443333;96.0;-0.010742;0.032227;0.026367;0;0;149;0;0;0
2024-11-05_10-07-00.716667;289278;146.666748;22.0;0.021667;3.443333;93.0;-0.012695;0.033203;0.03125;5000;5000;320;0;0;0
2024-11-05_10-07-00.858815;289429;142.666748;22.0;0.088333;3.4475;93.0;-0.013672;0.032227;0.030273;5000;5000;460;0;0;0
2024-11-05_10-07-01.015910;289576;138.666748;22.0;0.105417;3.443333;96.0;-0.010742;0.03418;0.022461;10000;10000;610;0;0;0
2024-11-05_10-07-01.332051;289864;140.0;22.0;0.075833;3.44625;97.0;-0.013672;0.03418;0.024414;15000;15000;949;0;0;0
2024-11-05_10-07-01.473168;290007;138.666748;22.0;0.09375;3.442917;100.0;-0.010742;0.029297;0.025391;15000;15000;1088;0;0;0
2024-11-05_10-07-01.661897;290148;140.0;22.0;0.069167;3.4525;102.0;-0.011719;0.032227;0.023438;20000;20000;1251;0;0;0
2024-11-05_10-07-01.787018;290438;136.0;22.0;0.06375;0.127083;105.0;-0.010742;0.033203;0.024414;20000;20000;1400;0;0;0
2024-11-05_10-07-01.944163;290574;140.0;22.0;0.0725;3.466667;110.0;-0.013672;0.036133;0.026367;25000;25000;1550;0;0;0
2024-11-05_10-07-02.164457;290718;138.666748;22.0;0.13625;3.457917;114.0;-0.011719;0.029297;0.027344;25000;25000;1769;0;0;0
2024-11-05_10-07-02.400473;291034;142.666748;22.0;0.059583;3.44875;124.0;-0.013672;0.03125;0.019531;30000;30000;1999;0;0;0
2024-11-05_10-07-02.700397;291317;140.0;22.0;0.050833;3.44875;134.0;-0.013672;0.030273;0.021484;35000;35000;2294;0;0;0
2024-11-05_10-07-02.892810;291457;140.0;22.0;3.456667;3.449167;140.0;-0.011719;0.02832;0.018555;40000;40000;2491;0;0;0
2024-11-05_10-07-03.066747;291605;138.666748;22.0;0.075833;3.45375;148.0;-0.015625;0.032227;0.020508;40000;40000;2658;0;0;0
2024-11-05_10-07-03.329977;291898;142.666748;22.0;0.1275;3.449583;164.0;-0.017578;0.025391;0.011719;45000;45000;2937;0;0;0
2024-11-05_10-07-03.517802;292044;136.0;22.0;0.130417;3.44875;170.0;-0.015625;0.027344;0.016602;50000;50000;3130;0;0;0
2024-11-05_10-07-03.706040;292315;132.0;22.0;0.4225;3.3025;184.0;-0.011719;0.025391;0.027344;55000;55000;3307;0;0;0
2024-11-05_10-07-03.878810;292457;132.0;22.0;0.596667;3.290833;196.0;-0.015625;0.02832;0.024414;55000;55000;3458;0;0;0
2024-11-05_10-07-03.988936;292596;136.0;22.0;0.72875;3.285;203.0;-0.014648;0.026367;0.006836;-100000;-100000;3591;0;0;0
2024-11-05_10-07-04.145367;292748;132.0;22.0;0.781667;3.27625;197.0;-0.015625;0.026367;0.006836;-100000;-100000;3750;0;0;0
2024-11-05_10-07-04.318292;292897;161.333252;22.0625;0.842083;3.269167;180.0;-0.014648;0.023438;0.018555;-100000;-100000;3908;0;0;0
2024-11-05_10-07-04.567173;293176;186.666748;22.0625;0.952083;3.262917;143.0;-0.014648;0.024414;0.005859;-100000;-100000;4159;0;0;0
2024-11-05_10-07-04.849600;293456;286.666748;22.0;0.98875;3.26125;114.0;-0.013672;0.020508;0.004883;-100000;-100000;4460;0;0;0
2024-11-05_10-07-05.021995;293594;352.0;22.0;1.034583;3.264167;100.0;-0.015625;0.022461;0.006836;-100000;-100000;4620;0;0;0
2024-11-05_10-07-05.148070;293739;400.0;22.0;1.005;3.283334;90.0;-0.018555;0.024414;0.00293;20000;20000;4750;1;0;0
2024-11-05_10-07-05.290319;293890;241.333252;22.0;1.2825;3.404166;92.0;-0.019531;0.021484;0.0;20000;20000;4899;1;0;0
2024-11-05_10-07-05.399177;294044;146.666748;22.0;3.52125;3.51125;97.0;-0.011719;0.019531;0.032227;20000;20000;5010;0;0;0
2024-11-05_10-07-05.556136;294193;148.0;22.0625;1.11;3.258333;92.0;-0.014648;0.019531;0.000977;-60000;-60000;5159;0;0;0
2024-11-05_10-07-05.759753;294338;148.0;22.0625;0.965833;3.257917;88.0;-0.014648;0.021484;-0.000977;20000;20000;5358;1;0;0
2024-11-05_10-07-05.869177;294489;148.0;22.0625;0.809167;3.323334;87.0;-0.020508;0.017578;-0.008789;20000;20000;5470;1;0;0
2024-11-05_10-07-06.010143;294634;148.0;22.0;0.800833;3.315417;94.0;-0.022461;0.011719;0.00293;20000;20000;5620;1;0;0
2024-11-05_10-07-06.277706;294778;148.0;22.0625;0.654583;3.31625;94.0;-0.015625;0.016602;0.005859;20000;20000;5836;0;0;0
2024-11-05_10-07-06.355831;294917;142.666748;22.0625;0.590417;3.263333;92.0;-0.016602;0.018555;0.003906;20000;20000;5960;0;0;0
2024-11-05_10-07-06.512498;295056;146.666748;22.0625;0.498333;3.26375;96.0;-0.015625;0.015625;0.001953;20000;20000;6098;0;0;0
2024-11-05_10-07-06.742498;295334;146.666748;22.0625;0.22125;3.263333;93.0;-0.017578;0.015625;0.007812;20000;20000;6339;0;0;0
2024-11-05_10-07-06.859374;295477;142.666748;22.0625;0.069167;3.26375;95.0;-0.017578;0.016602;0.004883;20000;20000;6460;0;0;0
2024-11-05_10-07-06.991876;295614;146.666748;22.0625;0.025;3.26375;95.0;-0.016602;0.014648;0.008789;20000;20000;6590;0;0;0
2024-11-05_10-07-07.118423;295758;142.666748;22.0625;0.021667;3.26375;92.0;-0.018555;0.014648;0.004883;20000;20000;6720;0;0;0
2024-11-05_10-07-07.691872;296327;142.666748;22.0625;0.02125;3.26875;93.0;-0.017578;0.012695;0.00293;0;0;3;0;0;0
2024-11-05_10-07-07.880097;296464;-22.666626;22.0625;0.021667;3.26875;93.0;-0.019531;0.012695;0.00293;0;0;201;0;0;0
2024-11-05_10-07-08.194496;296763;-20.0;22.0625;3.269167;3.26875;92.0;-0.021484;0.012695;-0.00293;5000;5000;508;0;0;0
2024-11-05_10-07-08.350776;296907;-22.666626;22.0625;0.072083;3.27;93.0;-0.019531;0.010742;-0.001953;5000;5000;671;0;0;0
2024-11-05_10-07-08.514722;297062;-22.666626;22.0625;0.097083;3.27;95.0;-0.021484;0.008789;-0.004883;10000;10000;830;0;0;0
2024-11-05_10-07-08.665299;297207;-17.333374;22.0625;0.062917;3.28;94.0;-0.020508;0.007812;-0.00293;10000;10000;986;0;0;0
2024-11-05_10-07-08.862379;297485;-17.333374;22.0625;0.107917;3.284167;101.0;-0.020508;0.006836;-0.000977;15000;15000;1160;0;0;0
2024-11-05_10-07-08.993714;297627;-21.333374;22.0625;0.047917;3.276667;103.0;-0.023438;0.006836;-0.003906;15000;15000;1310;0;0;0
2024-11-05_10-07-09.204728;297766;-21.333374;22.0625;0.13125;3.277083;106.0;-0.024414;0.009766;-0.001953;20000;20000;1520;0;0;0
2024-11-05_10-07-09.341388;297906;-20.0;22.0625;0.07375;3.274167;108.0;-0.022461;0.007812;-0.00293;25000;25000;1662;0;0;0
2024-11-05_10-07-09.498917;298046;-22.666626;22.0625;0.057083;3.277083;112.0;-0.021484;0.008789;0.00293;25000;25000;1799;0;0;0
2024-11-05_10-07-09.625208;298186;-18.666626;22.0625;0.133333;3.282917;114.0;-0.023438;0.010742;0.003906;25000;25000;1941;0;0;0
2024-11-05_10-07-09.844676;298467;-30.666626;22.0625;0.1125;3.29125;122.0;-0.024414;0.012695;0.005859;30000;30000;2160;0;0;0
2024-11-05_10-07-10.017058;298606;-25.333374;22.0625;0.049583;3.285;126.0;-0.024414;0.010742;0.007812;35000;35000;2322;0;0;0
2024-11-05_10-07-10.159193;298747;-26.666626;22.125;0.120417;3.275417;134.0;-0.024414;0.013672;0.013672;35000;35000;2470;0;0;0
2024-11-05_10-07-10.269287;298885;-22.666626;22.0625;0.092917;3.27625;137.0;-0.024414;0.013672;0.011719;40000;40000;2591;0;0;0
2024-11-05_10-07-10.490053;299027;-29.333374;22.0625;0.065833;3.274167;145.0;-0.024414;0.009766;0.014648;40000;40000;2801;0;0;0
2024-11-05_10-07-10.631703;299167;-25.333374;22.0625;0.05125;3.274584;154.0;-0.026367;0.012695;0.017578;45000;45000;2942;0;0;0
2024-11-05_10-07-10.772891;299329;-25.333374;22.125;0.125833;3.278334;161.0;-0.026367;0.011719;0.017578;45000;45000;3091;0;0;0
2024-11-05_10-07-11.040290;299633;-30.666626;22.125;0.054167;3.274167;177.0;-0.026367;0.011719;0.008789;50000;50000;3331;0;0;0
2024-11-05_10-07-11.186123;299778;-30.666626;22.125;0.207083;3.13375;186.0;-0.025391;0.015625;0.017578;50000;50000;3501;0;0;0
