datetime;time;load_cell;board_temperature;pressure_macki;pressure_tank;distance;acc_x;acc_y;acc_z;motor1_speed;motor2_speed;procedure_time;mechanical_state;motor1_temperature;motor2_temperature
2024-11-05_11-11-40.919522;66643;-2000.0;24.6875;0.021667;4.012917;124.0;-0.019531;0.024414;1.013672;0;0;66834;0;0;0
2024-11-05_11-11-41.250890;66924;-2000.0;24.6875;0.021667;4.012917;122.0;-0.018555;0.02832;1.010742;0;0;67157;0;0;0
2024-11-05_11-11-41.316016;67076;-2000.0;24.6875;0.021667;4.012917;123.0;-0.022461;0.026367;1.011719;0;0;67230;0;0;0
2024-11-05_11-11-41.566774;67379;-2000.0;24.6875;0.021667;4.012917;124.0;-0.013672;0.023438;1.020508;0;0;67490;0;0;0
2024-11-05_11-11-41.629680;67379;-2000.0;24.6875;0.021667;4.012917;124.0;-0.013672;0.023438;1.020508;0;0;67549;0;0;0
2024-11-05_11-11-41.916663;67657;-2000.0;24.6875;0.021667;4.012917;125.0;-0.015625;0.023438;1.03418;0;0;67820;0;0;0
2024-11-05_11-11-42.140482;67942;-2000.0;24.6875;0.021667;4.012917;124.0;-0.018555;0.027344;1.03418;0;0;68041;0;0;0
2024-11-05_11-11-42.433343;68232;-2000.0;24.6875;0.021667;4.012917;124.0;-0.017578;0.018555;1.044922;0;0;68359;0;0;0
2024-11-05_11-11-42.450285;68232;-2000.0;24.6875;0.021667;4.012917;124.0;-0.017578;0.018555;1.044922;0;0;68380;0;0;0
2024-11-05_11-11-42.549889;68375;-2000.0;24.6875;0.021667;4.012084;123.0;-0.019531;0.023438;1.055664;0;0;68480;0;0;0
2024-11-05_11-11-42.925493;68655;-2000.0;24.6875;0.021667;4.009583;125.0;-0.015625;0.017578;1.03418;0;0;68842;0;0;0
2024-11-05_11-11-43.035155;68792;-2000.0;24.6875;0.021667;4.008334;122.0;-0.020508;0.023438;1.03125;0;0;68947;0;0;0
2024-11-05_11-11-43.194169;68935;-2000.0;24.6875;0.021667;4.009167;122.0;-0.019531;0.018555;1.041016;0;0;69109;0;0;0
2024-11-05_11-11-43.318919;69075;-2000.0;24.6875;0.021667;4.0075;124.0;-0.017578;0.025391;1.043945;0;0;69249;0;0;0
2024-11-05_11-11-43.576877;69355;-2000.0;24.6875;0.021667;4.0075;123.0;-0.018555;0.022461;1.033203;0;0;69489;0;0;0
2024-11-05_11-11-43.651430;69494;-2000.0;24.6875;0.02125;4.0075;124.0;-0.019531;0.019531;1.026367;0;0;69570;0;0;0
2024-11-05_11-11-43.853411;69635;-2000.0;24.6875;4.0075;4.0075;122.0;-0.021484;0.024414;1.025391;0;0;69762;0;0;0
2024-11-05_11-11-43.958998;69782;-2000.0;24.6875;0.021667;4.0075;122.0;-0.017578;0.018555;1.012695;0;0;69870;0;0;0
2024-11-05_11-11-44.216974;69930;-2000.0;24.6875;0.021667;4.0075;123.0;-0.017578;0.024414;1.029297;0;0;70105;0;0;0
2024-11-05_11-11-44.434127;70063;-2000.0;24.6875;4.0075;4.0075;123.0;-0.016602;0.018555;1.039062;0;0;70200;0;0;0
2024-11-05_11-11-44.584087;70353;-2000.0;24.6875;0.021667;4.0075;124.0;-0.021484;0.018555;1.03125;0;0;70508;0;0;0
2024-11-05_11-11-44.767124;70491;-2000.0;24.625;0.021667;4.0075;123.0;-0.018555;0.033203;1.023438;0;0;70680;0;0;0
2024-11-05_11-11-45.014831;70785;-2000.0;24.6875;0.021667;4.0075;123.0;-0.024414;0.033203;1.023438;0;0;70929;0;0;0
2024-11-05_11-11-45.171415;70923;-2000.0;24.6875;0.021667;4.0075;122.0;-0.016602;0.032227;1.030273;0;0;71089;0;0;0
2024-11-05_11-11-45.234211;71065;-2000.0;24.6875;0.021667;4.0075;124.0;-0.015625;0.024414;1.048828;0;0;71151;0;0;0
2024-11-05_11-11-45.563322;71345;-2000.0;24.625;0.021667;4.0075;122.0;-0.007812;0.029297;1.067383;0;0;71475;0;0;0
2024-11-05_11-11-45.814017;71625;-2000.0;24.625;0.021667;4.0075;124.0;-0.017578;0.011719;1.116211;0;0;71711;0;0;0
2024-11-05_11-11-45.957084;71762;-2000.0;24.625;0.021667;4.0075;122.0;-0.009766;0.017578;1.124023;0;0;71869;0;0;0
2024-11-05_11-11-46.019872;71762;-2000.0;24.625;0.021667;4.0075;122.0;-0.009766;0.017578;1.124023;0;0;71937;0;0;0
2024-11-05_11-11-46.177297;71906;-2000.0;24.6875;0.021667;4.0075;122.0;-0.013672;0.030273;1.132812;0;0;72078;0;0;0
2024-11-05_11-11-46.334109;72052;-2000.0;24.625;0.021667;4.0075;121.0;-0.012695;0.019531;1.140625;0;0;72248;0;0;0
2024-11-05_11-11-46.537640;72336;-2000.0;24.6875;0.021667;4.0075;123.0;-0.009766;0.025391;1.139648;0;0;72449;0;0;0
2024-11-05_11-11-46.742118;72472;-2000.0;24.625;0.021667;4.0075;122.0;-0.013672;0.025391;1.15332;0;0;72659;0;0;0
2024-11-05_11-11-46.914954;72615;-2000.0;24.625;0.021667;4.0075;125.0;-0.009766;0.021484;1.166992;0;0;72829;0;0;0
2024-11-05_11-11-47.134947;72900;-2000.0;24.625;0.02125;4.0075;125.0;-0.007812;0.023438;1.183594;0;0;73044;0;0;0
2024-11-05_11-11-47.479358;73177;-2000.0;24.6875;0.021667;4.0075;124.0;-0.008789;0.030273;1.168945;0;0;73394;0;0;0
2024-11-05_11-11-47.574746;73322;-2000.0;24.625;0.021667;4.0075;124.0;-0.009766;0.036133;1.148438;0;0;73490;0;0;0
2024-11-05_11-11-47.859648;73609;-2000.0;24.625;0.021667;4.0075;126.0;-0.014648;0.03125;1.125977;0;0;73772;0;0;0
2024-11-05_11-11-48.076142;73905;-2000.0;24.625;0.021667;4.0075;125.0;-0.013672;0.02832;1.102539;0;0;73999;0;0;0
2024-11-05_11-11-48.201132;73905;-2000.0;24.625;0.021667;4.0075;125.0;-0.013672;0.02832;1.102539;0;0;74109;0;0;0
2024-11-05_11-11-48.406022;74192;-2000.0;24.625;0.021667;4.0075;129.0;-0.014648;0.021484;1.057617;0;0;74329;0;0;0
2024-11-05_11-11-48.765651;74472;-2000.0;24.625;0.021667;4.0075;124.0;-0.020508;0.025391;1.014648;0;0;74661;0;0;0
2024-11-05_11-11-48.843778;74615;-2000.0;24.625;0.021667;4.0075;124.0;-0.017578;0.023438;1.016602;0;0;74741;0;0;0
2024-11-05_11-11-49.031947;74754;-2000.0;24.625;0.021667;4.0075;124.0;-0.020508;0.02832;0.988281;0;0;74930;0;0;0
2024-11-05_11-11-49.329444;75032;-2000.0;24.625;0.021667;4.0075;123.0;-0.020508;0.021484;0.960938;0;0;75247;0;0;0
2024-11-05_11-11-49.502070;75312;-2000.0;24.625;0.021667;4.0075;124.0;-0.015625;0.027344;0.953125;0;0;75409;0;0;0
2024-11-05_11-11-49.608106;75312;-2000.0;24.625;0.021667;4.0075;124.0;-0.015625;0.027344;0.953125;0;0;75520;0;0;0
2024-11-05_11-11-49.768350;75456;-2000.0;24.625;0.021667;4.0075;123.0;-0.017578;0.026367;0.943359;0;0;75677;0;0;0
2024-11-05_11-11-49.941073;75742;-2000.0;24.625;0.021667;4.004583;125.0;-0.017578;0.03125;0.969727;0;0;75860;0;0;0
2024-11-05_11-11-50.129807;75888;-2000.0;24.625;0.021667;4.00625;125.0;-0.018555;0.019531;0.955078;0;0;76035;0;0;0
2024-11-05_11-11-50.380951;76175;-2000.0;24.625;0.021667;4.002501;122.0;-0.019531;0.023438;0.979492;0;0;76296;0;0;0
2024-11-05_11-11-50.538067;76313;-2000.0;24.625;0.021667;4.002501;123.0;-0.022461;0.025391;0.950195;0;0;76453;0;0;0
2024-11-05_11-11-50.899536;76718;-2000.0;24.625;0.021667;4.002501;123.0;-0.020508;0.026367;0.983398;0;0;76809;0;0;0
2024-11-05_11-11-51.055580;76865;-2000.0;24.625;4.002083;4.002083;124.0;-0.019531;0.020508;0.974609;0;0;76970;0;0;0
2024-11-05_11-11-51.149332;76865;-2000.0;24.625;4.002083;4.002083;124.0;-0.019531;0.020508;0.974609;0;0;77070;0;0;0
2024-11-05_11-11-51.415924;77156;-2000.0;24.625;0.021667;4.002083;126.0;-0.020508;0.024414;0.982422;0;0;77339;0;0;0
2024-11-05_11-11-51.479370;77292;-2000.0;24.625;0.021667;4.002083;124.0;-0.017578;0.027344;0.993164;0;0;77387;0;0;0
2024-11-05_11-11-51.824165;77585;-2000.0;24.625;0.021667;4.002083;126.0;-0.020508;0.030273;0.994141;0;0;77731;0;0;0
2024-11-05_11-11-51.966790;77723;-2000.0;24.625;0.021667;4.002083;125.0;-0.021484;0.032227;1.001953;0;0;77883;0;0;0
2024-11-05_11-11-52.092449;77866;-2000.0;24.625;0.021667;4.002083;123.0;-0.019531;0.03418;1.021484;0;0;78020;0;0;0
2024-11-05_11-11-52.264991;78002;-2000.0;24.625;0.021667;4.002083;124.0;-0.016602;0.030273;1.019531;0;0;78180;0;0;0
2024-11-05_11-11-52.452498;78147;-2000.0;24.625;0.021667;4.002083;122.0;-0.016602;0.027344;1.036133;0;0;78366;0;0;0
2024-11-05_11-11-52.577870;78292;-2000.0;24.625;0.021667;4.002501;124.0;-0.016602;0.025391;1.040039;0;0;78490;0;0;0
2024-11-05_11-11-52.734257;78574;-2000.0;24.625;0.021667;4.002501;123.0;-0.015625;0.017578;1.064453;0;0;78650;0;0;0
2024-11-05_11-11-52.891334;78715;-2000.0;24.625;0.021667;4.002501;124.0;-0.011719;0.011719;1.079102;0;0;78810;0;0;0
2024-11-05_11-11-53.428122;79136;-2000.0;24.625;0.021667;4.002083;125.0;-0.012695;0.019531;1.09082;0;0;79211;0;0;0
2024-11-05_11-11-53.522227;79274;-2000.0;24.5625;0.021667;4.002083;123.0;-0.017578;0.021484;1.072266;0;0;79438;0;0;0
2024-11-05_11-11-53.678484;79400;-2000.0;24.625;0.021667;4.002083;122.0;-0.013672;0.02832;1.073242;0;0;79600;0;0;0
2024-11-05_11-11-53.897981;79685;-2000.0;24.625;0.021667;4.002501;124.0;-0.019531;0.023438;1.060547;0;0;79813;0;0;0
2024-11-05_11-11-53.997972;79830;-2000.0;24.625;0.021667;3.997084;122.0;-0.017578;0.021484;1.055664;0;0;79920;0;0;0
2024-11-05_11-11-54.435765;80265;-2000.0;24.625;0.021667;3.997084;123.0;-0.014648;0.024414;1.0625;0;0;80348;0;0;0
2024-11-05_11-11-54.477281;80265;-2000.0;24.625;0.021667;3.997084;123.0;-0.014648;0.024414;1.0625;0;0;80399;0;0;0
2024-11-05_11-11-54.712068;80404;-18.666626;24.625;0.021667;4.002083;124.0;-0.009766;0.020508;1.071289;0;0;80598;0;0;0
2024-11-05_11-11-55.002053;80822;-16.0;24.625;0.021667;4.001667;126.0;-0.012695;0.026367;1.070312;0;0;80909;0;0;0
2024-11-05_11-11-55.137519;80965;-17.333374;24.5625;0.021667;4.000417;123.0;-0.015625;0.030273;1.09375;0;0;81047;0;0;0
2024-11-05_11-11-55.475728;81245;-17.333374;24.625;0.021667;3.998334;126.0;-0.007812;0.02832;1.116211;0;0;81391;0;0;0
2024-11-05_11-11-55.592501;81384;-20.0;24.5625;0.021667;3.997084;124.0;-0.012695;0.027344;1.128906;0;0;81510;0;0;0
2024-11-05_11-11-55.892303;81662;-22.666626;24.5625;0.021667;3.997084;125.0;-0.003906;0.027344;1.138672;0;0;81803;0;0;0
2024-11-05_11-11-56.183190;81953;-22.666626;24.625;0.021667;3.997084;127.0;-0.015625;0.024414;1.131836;0;0;82088;0;0;0
2024-11-05_11-11-56.370685;82096;-22.666626;24.5625;0.021667;3.997084;125.0;-0.006836;0.015625;1.139648;0;0;82278;0;0;0
2024-11-05_11-11-56.527891;82229;-20.0;24.5625;0.021667;3.997084;123.0;-0.013672;0.017578;1.136719;0;0;82449;0;0;0
2024-11-05_11-11-56.685178;82367;-17.333374;24.5625;0.021667;3.997084;125.0;-0.010742;0.012695;1.12207;0;0;82600;0;0;0
2024-11-05_11-11-56.952560;82665;-16.0;24.5625;3.996667;3.996667;124.0;-0.010742;0.013672;1.09082;0;0;82860;0;0;0
2024-11-05_11-11-57.110254;82809;-17.333374;24.5625;0.02125;3.997084;122.0;-0.016602;0.02832;1.067383;0;0;83023;0;0;0
2024-11-05_11-11-57.172760;82958;-5.333374;24.5625;0.021667;3.997084;122.0;-0.014648;0.026367;1.050781;0;0;83089;0;0;0
2024-11-05_11-11-57.502776;83245;-4.0;24.5625;0.021667;3.997084;123.0;-0.020508;0.027344;1.012695;0;0;83405;0;0;0
2024-11-05_11-11-57.674920;83382;-1.333374;24.5625;0.021667;3.997084;124.0;-0.019531;0.037109;0.993164;0;0;83567;0;0;0
2024-11-05_11-11-57.832163;83525;0.0;24.5625;0.021667;3.997084;124.0;-0.013672;0.013672;0.996094;0;0;83734;0;0;0
2024-11-05_11-11-57.988635;83805;-2.666626;24.5625;0.021667;3.996667;124.0;-0.018555;0.019531;0.972656;0;0;83893;0;0;0
2024-11-05_11-11-58.083613;83805;-2.666626;24.5625;0.021667;3.996667;124.0;-0.018555;0.019531;0.972656;0;0;83997;0;0;0
2024-11-05_11-11-58.255184;83947;0.0;24.5625;0.021667;3.997084;123.0;-0.018555;0.033203;0.986328;0;0;84158;0;0;0
2024-11-05_11-11-58.412336;84235;-1.333374;24.5625;0.021667;3.996667;125.0;-0.018555;0.020508;0.979492;0;0;84317;0;0;0
2024-11-05_11-11-58.554334;84374;0.0;24.5625;0.021667;3.996667;122.0;-0.019531;0.019531;0.988281;0;0;84470;0;0;0
2024-11-05_11-11-58.805566;84515;-1.333374;24.5625;0.021667;3.996667;124.0;-0.015625;0.015625;1.0;0;0;84703;0;0;0
2024-11-05_11-11-58.883669;84652;-1.333374;24.5625;0.021667;3.997084;121.0;-0.017578;0.024414;1.000977;0;0;84790;0;0;0
2024-11-05_11-11-59.041796;84795;0.0;24.5625;0.021667;3.997084;125.0;-0.011719;0.022461;1.009766;0;0;84943;0;0;0
2024-11-05_11-11-59.183746;84933;-4.0;24.5625;0.021667;3.997084;124.0;-0.017578;0.022461;1.0;0;0;85099;0;0;0
2024-11-05_11-11-59.434496;85228;-4.0;24.5625;0.021667;3.997084;125.0;-0.013672;0.02832;1.014648;0;0;85350;0;0;0
2024-11-05_11-11-59.498156;85228;-4.0;24.5625;0.021667;3.997084;125.0;-0.013672;0.02832;1.014648;0;0;85420;0;0;0
2024-11-05_11-11-59.656129;85374;-4.0;24.5625;0.021667;3.997084;122.0;-0.012695;0.022461;1.014648;0;0;85579;0;0;0
2024-11-05_11-11-59.812801;85520;-8.0;24.5625;0.021667;3.997084;125.0;-0.008789;0.027344;1.023438;0;0;85736;0;0;0
2024-11-05_11-11-59.969410;85666;-16.0;24.5625;0.021667;3.996667;125.0;0.0;0.030273;1.043945;0;0;85890;0;0;0
2024-11-05_11-12-00.315867;86105;-16.0;24.5625;0.021667;3.997084;125.0;0.012695;0.035156;1.067383;0;0;86220;0;0;0
2024-11-05_11-12-00.441633;86243;-21.333374;24.5625;0.021667;3.997084;124.0;0.010742;0.013672;1.053711;0;0;86352;0;0;0
2024-11-05_11-12-00.708582;86522;-16.0;24.5625;0.021667;3.997084;122.0;0.014648;0.020508;1.098633;0;0;86629;0;0;0
2024-11-05_11-12-00.786704;86522;-16.0;24.5625;0.021667;3.997084;122.0;0.014648;0.020508;1.098633;0;0;86700;0;0;0
2024-11-05_11-12-01.090030;86802;-4.0;24.5625;0.021667;3.992084;124.0;0.014648;0.013672;1.0625;0;0;87005;0;0;0
2024-11-05_11-12-01.226361;86945;-4.0;24.5625;0.021667;3.991667;124.0;0.010742;0.016602;1.025391;0;0;87140;0;0;0
2024-11-05_11-12-01.382852;87222;12.0;24.5;0.02125;3.991667;123.0;0.005859;0.016602;0.920898;0;0;87300;0;0;0
2024-11-05_11-12-01.555462;87366;14.666626;24.5625;0.021667;3.991667;126.0;0.003906;0.026367;0.892578;0;0;87457;0;0;0
2024-11-05_11-12-01.696420;87512;18.666626;24.5;0.021667;3.991667;124.0;0.001953;0.026367;0.854492;0;0;87610;0;0;0
2024-11-05_11-12-01.963727;87792;30.666626;24.5625;0.021667;3.991667;122.0;-0.000977;0.033203;0.808594;0;0;87878;0;0;0
2024-11-05_11-12-02.167495;87935;30.666626;24.5;0.021667;3.991667;122.0;-0.00293;0.033203;0.794922;0;0;88079;0;0;0
2024-11-05_11-12-02.340017;88079;21.333374;24.5625;0.021667;3.991667;125.0;0.0;0.032227;0.801758;0;0;88249;0;0;0
2024-11-05_11-12-02.498203;88218;32.0;24.5;0.021667;3.991667;121.0;0.001953;0.026367;0.814453;0;0;88413;0;0;0
2024-11-05_11-12-02.659002;88494;16.0;24.5;3.991667;3.991667;125.0;0.0;0.032227;0.844727;0;0;88573;0;0;0
2024-11-05_11-12-02.874375;88623;8.0;24.5;0.021667;3.991667;126.0;0.0;0.032227;0.896484;0;0;88787;0;0;0
2024-11-05_11-12-02.968869;88755;-1.333374;24.5;0.021667;3.991667;124.0;0.0;0.035156;0.923828;0;0;88894;0;0;0
2024-11-05_11-12-03.116877;88885;1.333374;24.5;0.021667;3.991667;124.0;0.000977;0.03418;0.982422;0;0;89030;0;0;0
2024-11-05_11-12-03.268312;89035;-8.0;24.5;0.021667;3.991667;123.0;0.005859;0.021484;1.015625;0;0;89180;0;0;0
2024-11-05_11-12-03.394153;89177;-4.0;24.5;0.021667;3.991667;123.0;0.001953;0.025391;1.024414;0;0;89318;0;0;0
2024-11-05_11-12-03.582310;89327;-13.333374;24.5;0.021667;3.991667;121.0;0.005859;0.021484;1.033203;0;0;89487;0;0;0
2024-11-05_11-12-03.786042;89612;-10.666626;24.5;0.021667;3.991667;124.0;0.005859;0.022461;1.05957;0;0;89709;0;0;0
2024-11-05_11-12-03.974845;89756;-13.333374;24.5;0.021667;3.991667;123.0;0.004883;0.029297;1.047852;0;0;89878;0;0;0
2024-11-05_11-12-04.194522;89893;-5.333374;24.5;0.021667;3.991667;124.0;0.007812;0.024414;1.050781;0;0;90078;0;0;0
2024-11-05_11-12-04.366655;90172;-10.666626;24.5;0.021667;3.99;120.0;0.004883;0.02832;1.055664;0;0;90264;0;0;0
2024-11-05_11-12-04.507723;90315;-16.0;24.5;0.021667;3.98625;124.0;0.006836;0.023438;1.040039;0;0;90420;0;0;0
2024-11-05_11-12-04.757931;90452;-1.333374;24.5;0.021667;3.991667;122.0;0.006836;0.020508;1.020508;0;0;90667;0;0;0
2024-11-05_11-12-04.821576;90595;-5.333374;24.5;0.021667;3.991667;123.0;0.003906;0.026367;1.005859;0;0;90740;0;0;0
2024-11-05_11-12-05.058158;90875;4.0;24.5;0.021667;3.991667;124.0;0.005859;0.017578;0.96582;0;0;90979;0;0;0
2024-11-05_11-12-05.137448;90875;4.0;24.5;0.021667;3.991667;124.0;0.005859;0.017578;0.96582;0;0;91050;0;0;0
2024-11-05_11-12-05.300023;91012;0.0;24.5;0.021667;3.991667;126.0;0.00293;0.026367;0.961914;0;0;91210;0;0;0
2024-11-05_11-12-05.499493;91296;0.0;24.5;0.021667;3.991667;123.0;0.006836;0.013672;0.958008;0;0;91409;0;0;0
2024-11-05_11-12-05.609899;91432;4.0;24.5;0.021667;3.991667;124.0;0.000977;0.027344;0.956055;0;0;91520;0;0;0
2024-11-05_11-12-05.813778;91560;0.0;24.5;0.021667;3.991667;125.0;0.005859;0.022461;0.976562;0;0;91731;0;0;0
2024-11-05_11-12-05.923480;91692;-2.666626;24.5;0.021667;3.991667;122.0;0.00293;0.03125;0.977539;0;0;91840;0;0;0
2024-11-05_11-12-06.270523;91989;-5.333374;24.5;0.021667;3.991667;124.0;0.006836;0.030273;0.993164;0;0;92176;0;0;0
2024-11-05_11-12-06.379396;92134;-4.0;24.5;0.021667;3.9875;123.0;0.006836;0.024414;1.008789;0;0;92290;0;0;0
2024-11-05_11-12-06.755842;92555;-8.0;24.5;0.021667;3.98625;125.0;0.011719;0.024414;1.036133;0;0;92669;0;0;0
2024-11-05_11-12-06.850061;92555;-8.0;24.5;0.021667;3.98625;125.0;0.011719;0.024414;1.036133;0;0;92767;0;0;0
2024-11-05_11-12-07.117376;92834;-22.666626;24.5;0.021667;3.986667;124.0;0.014648;0.032227;1.084961;0;0;93009;0;0;0
2024-11-05_11-12-07.258966;92975;-20.0;24.5;0.021667;3.98625;125.0;0.015625;0.027344;1.111328;0;0;93179;0;0;0
2024-11-05_11-12-07.306050;93112;-17.333374;24.5;0.021667;3.98625;124.0;0.017578;0.024414;1.125;0;0;93230;0;0;0
2024-11-05_11-12-07.479241;93256;-34.666626;24.5;0.021667;3.98625;125.0;0.020508;0.029297;1.134766;0;0;93390;0;0;0
2024-11-05_11-12-07.667829;93393;-34.666626;24.5;0.021667;3.98625;123.0;0.021484;0.030273;1.15332;0;0;93579;0;0;0
2024-11-05_11-12-07.794136;93535;-30.666626;24.5;0.021667;3.98625;124.0;0.022461;0.027344;1.163086;0;0;93710;0;0;0
2024-11-05_11-12-07.981450;93815;-50.666626;24.5;0.021667;3.98625;122.0;0.027344;0.026367;1.214844;0;0;93899;0;0;0
2024-11-05_11-12-08.090952;93815;-50.666626;24.5;0.021667;3.98625;122.0;0.027344;0.026367;1.214844;0;0;94009;0;0;0
2024-11-05_11-12-08.278911;94095;-48.0;24.5;0.021667;3.98625;124.0;0.032227;0.020508;1.216797;0;0;94173;0;0;0
2024-11-05_11-12-08.436741;94232;-48.0;24.5;0.021667;3.98625;125.0;0.03418;0.021484;1.22168;0;0;94348;0;0;0
2024-11-05_11-12-08.641141;94376;-38.666626;24.5;0.021667;3.98625;125.0;0.036133;0.013672;1.212891;0;0;94556;0;0;0
2024-11-05_11-12-08.735548;94512;-32.0;24.5;0.021667;3.98625;124.0;0.038086;0.019531;1.18457;0;0;94649;0;0;0
2024-11-05_11-12-08.876395;94653;-29.333374;24.5;3.986667;3.98625;122.0;0.039062;0.017578;1.166992;0;0;94799;0;0;0
2024-11-05_11-12-09.064425;94795;-25.333374;24.5;0.021667;3.98625;124.0;0.040039;0.017578;1.139648;0;0;94980;0;0;0
2024-11-05_11-12-09.221317;94937;-13.333374;24.5;0.021667;3.98625;123.0;0.035156;0.015625;1.105469;0;0;95141;0;0;0
2024-11-05_11-12-09.440807;95233;-17.333374;24.5;0.021667;3.986667;126.0;0.040039;0.022461;1.06543;0;0;95363;0;0;0
2024-11-05_11-12-09.519321;95233;-17.333374;24.5;0.021667;3.986667;126.0;0.040039;0.022461;1.06543;0;0;95430;0;0;0
2024-11-05_11-12-09.801547;95515;-25.333374;24.4375;0.021667;3.98625;122.0;0.036133;0.022461;1.029297;0;0;95700;0;0;0
2024-11-05_11-12-10.020431;95805;-13.333374;24.5;0.021667;3.986667;122.0;0.036133;0.025391;0.992188;0;0;95920;0;0;0
2024-11-05_11-12-10.166032;95943;0.0;24.5;0.021667;3.98625;125.0;0.037109;0.037109;0.994141;0;0;96067;0;0;0
2024-11-05_11-12-10.302302;96085;14.666626;24.4375;0.021667;3.98625;125.0;0.035156;0.02832;0.984375;0;0;96218;0;0;0
2024-11-05_11-12-10.458551;96224;12.0;24.4375;0.021667;3.98625;127.0;0.039062;0.030273;0.986328;0;0;96370;0;0;0
2024-11-05_11-12-10.614748;96365;-4.0;24.4375;0.021667;3.98625;124.0;0.035156;0.032227;0.982422;0;0;96530;0;0;0
2024-11-05_11-12-10.771048;96504;-10.666626;24.4375;0.021667;3.98625;122.0;0.032227;0.033203;0.987305;0;0;96690;0;0;0
2024-11-05_11-12-10.927296;96645;-18.666626;24.4375;0.021667;3.98625;125.0;0.036133;0.032227;0.999023;0;0;96840;0;0;0
2024-11-05_11-12-11.208938;96926;-13.333374;24.4375;0.021667;3.98625;124.0;0.040039;0.029297;1.026367;0;0;97109;0;0;0
2024-11-05_11-12-11.396451;97214;1.333374;24.4375;0.021667;3.98625;123.0;0.042969;0.023438;1.03418;0;0;97310;0;0;0
2024-11-05_11-12-11.537069;97355;-1.333374;24.4375;0.021667;3.98625;124.0;0.044922;0.021484;1.03125;0;0;97460;0;0;0
2024-11-05_11-12-11.755823;97494;-25.333374;24.4375;0.021667;3.985417;124.0;0.049805;0.015625;1.041992;0;0;97669;0;0;0
2024-11-05_11-12-11.927697;97638;-20.0;24.4375;0.021667;3.982917;122.0;0.051758;0.020508;1.044922;0;0;97840;0;0;0
2024-11-05_11-12-12.256467;98079;-21.333374;24.5;0.021667;3.98125;123.0;0.057617;0.021484;1.036133;0;0;98169;0;0;0
2024-11-05_11-12-12.334585;98079;-21.333374;24.5;0.021667;3.98125;123.0;0.057617;0.021484;1.036133;0;0;98240;0;0;0
2024-11-05_11-12-12.615830;98373;-18.666626;24.4375;0.021667;3.98125;121.0;0.066406;0.023438;1.077148;0;0;98522;0;0;0
2024-11-05_11-12-12.803342;98513;-16.0;24.4375;0.02125;3.980834;123.0;0.06543;0.029297;1.078125;0;0;98717;0;0;0
2024-11-05_11-12-12.959624;98792;-13.333374;24.4375;0.021667;3.98125;125.0;0.072266;0.025391;1.070312;0;0;98879;0;0;0
2024-11-05_11-12-13.115838;98937;-18.666626;24.4375;0.021667;3.98125;125.0;0.071289;0.030273;1.083008;0;0;99030;0;0;0
2024-11-05_11-12-13.350708;99082;-16.0;24.4375;0.021667;3.985;126.0;0.074219;0.030273;1.073242;0;0;99259;0;0;0
2024-11-05_11-12-13.553837;99362;-10.666626;24.4375;0.021667;3.984584;120.0;0.079102;0.019531;1.064453;0;0;99467;0;0;0
2024-11-05_11-12-14.075857;99785;-18.666626;24.4375;0.021667;3.980834;126.0;0.084961;0.020508;1.058594;0;0;99973;0;0;0
2024-11-05_11-12-14.233905;100065;-16.0;24.4375;0.021667;3.980834;124.0;0.085938;0.022461;1.070312;0;0;100159;0;0;0
2024-11-05_11-12-14.374660;100206;-18.666626;24.4375;0.021667;3.98125;126.0;0.09082;0.017578;1.092773;0;0;100290;0;0;0
2024-11-05_11-12-14.509848;100206;-18.666626;24.4375;0.021667;3.98125;126.0;0.09082;0.017578;1.092773;0;0;100431;0;0;0
2024-11-05_11-12-14.743400;100497;-17.333374;24.4375;0.021667;3.980834;123.0;0.092773;0.019531;1.073242;0;0;100664;0;0;0
2024-11-05_11-12-14.843234;100642;-16.0;24.4375;0.021667;3.980834;124.0;0.089844;0.022461;1.063477;0;0;100760;0;0;0
2024-11-05_11-12-15.093112;100791;-4.0;24.4375;0.021667;3.98125;123.0;0.09082;0.019531;1.046875;0;0;101014;0;0;0
2024-11-05_11-12-15.159821;100938;-1.333374;24.4375;0.021667;3.98125;124.0;0.088867;0.021484;0.999023;0;0;101077;0;0;0
2024-11-05_11-12-15.339547;101074;0.0;24.4375;0.021667;3.98125;124.0;0.085938;0.020508;0.966797;0;0;101248;0;0;0
2024-11-05_11-12-15.448929;101205;1.333374;24.4375;0.021667;3.980834;124.0;0.085938;0.021484;0.956055;0;0;101367;0;0;0
2024-11-05_11-12-15.652050;101472;8.0;24.4375;0.021667;3.98125;125.0;0.083008;0.024414;0.90625;0;0;101570;0;0;0
2024-11-05_11-12-15.761424;101472;8.0;24.4375;0.021667;3.98125;125.0;0.083008;0.024414;0.90625;0;0;101680;0;0;0
2024-11-05_11-12-16.089560;101885;10.666626;24.4375;0.021667;3.980834;122.0;0.079102;0.026367;0.894531;0;0;102009;0;0;0
2024-11-05_11-12-16.247707;102022;8.0;24.4375;0.021667;3.980834;126.0;0.079102;0.029297;0.921875;0;0;102158;0;0;0
2024-11-05_11-12-16.418244;102167;4.0;24.4375;0.021667;3.98125;122.0;0.085938;0.025391;0.950195;0;0;102327;0;0;0
2024-11-05_11-12-16.590399;102315;5.333374;24.4375;0.021667;3.98125;125.0;0.085938;0.024414;0.945312;0;0;102471;0;0;0
2024-11-05_11-12-16.715392;102453;-2.666626;24.4375;0.021667;3.98125;121.0;0.084961;0.019531;0.945312;0;0;102630;0;0;0
2024-11-05_11-12-16.918513;102742;0.0;24.4375;0.021667;3.980834;122.0;0.082031;0.019531;0.964844;0;0;102827;0;0;0
2024-11-05_11-12-17.027900;102742;0.0;24.4375;0.021667;3.980834;122.0;0.082031;0.019531;0.964844;0;0;102940;0;0;0
2024-11-05_11-12-17.184141;103024;-1.333374;24.4375;0.021667;3.98125;124.0;0.083984;0.022461;0.9375;0;0;103100;0;0;0
2024-11-05_11-12-17.434616;103165;8.0;24.4375;0.021667;3.980834;125.0;0.085938;0.025391;0.958008;0;0;103349;0;0;0
2024-11-05_11-12-17.497126;103302;0.0;24.4375;0.021667;3.98125;123.0;0.087891;0.03125;0.956055;0;0;103410;0;0;0
2024-11-05_11-12-17.684613;103446;1.333374;24.4375;0.021667;3.980834;123.0;0.084961;0.023438;0.951172;0;0;103574;0;0;0
2024-11-05_11-12-18.060074;103877;1.333374;24.4375;0.021667;3.980834;123.0;0.088867;0.024414;0.945312;0;0;103963;0;0;0
2024-11-05_11-12-18.263204;104022;1.333374;24.4375;0.021667;3.98125;124.0;0.088867;0.025391;0.943359;0;0;104173;0;0;0
2024-11-05_11-12-18.497859;104318;-4.0;24.375;0.021667;3.98125;123.0;0.086914;0.023438;0.964844;0;0;104410;0;0;0
2024-11-05_11-12-18.591608;104318;-4.0;24.375;0.021667;3.98125;123.0;0.086914;0.023438;0.964844;0;0;104510;0;0;0
2024-11-05_11-12-18.888484;104598;-2.666626;24.4375;0.021667;3.98125;124.0;0.091797;0.019531;0.979492;0;0;104780;0;0;0
2024-11-05_11-12-19.107233;104884;-4.0;24.375;0.021667;3.98125;122.0;0.09082;0.018555;0.977539;0;0;105007;0;0;0
2024-11-05_11-12-19.216611;105026;-1.333374;24.375;0.021667;3.98125;125.0;0.089844;0.024414;0.967773;0;0;105130;0;0;0
2024-11-05_11-12-19.482710;105305;0.0;24.375;0.021667;3.980834;126.0;0.087891;0.023438;0.948242;0;0;105389;0;0;0
2024-11-05_11-12-19.513972;105305;0.0;24.375;0.021667;3.980834;126.0;0.087891;0.023438;0.948242;0;0;105440;0;0;0
2024-11-05_11-12-19.685830;105444;4.0;24.375;0.021667;3.980834;126.0;0.088867;0.03418;0.928711;0;0;105609;0;0;0
2024-11-05_11-12-19.904580;105722;4.0;24.375;0.02125;3.98125;122.0;0.079102;0.027344;0.891602;0;0;105829;0;0;0
2024-11-05_11-12-19.998335;105722;4.0;24.375;0.02125;3.98125;122.0;0.079102;0.027344;0.891602;0;0;105910;0;0;0
2024-11-05_11-12-20.170215;105865;4.0;24.375;0.021667;3.98125;122.0;0.083984;0.027344;0.90332;0;0;106075;0;0;0
2024-11-05_11-12-20.358390;106146;10.666626;24.375;0.021667;3.98125;125.0;0.086914;0.033203;0.888672;0;0;106269;0;0;0
2024-11-05_11-12-20.467757;106283;8.0;24.375;0.021667;3.980834;123.0;0.085938;0.02832;0.896484;0;0;106380;0;0;0
2024-11-05_11-12-20.624005;106427;10.666626;24.375;0.021667;3.98125;124.0;0.083984;0.032227;0.901367;0;0;106539;0;0;0
2024-11-05_11-12-20.780257;106575;10.666626;24.375;0.021667;3.98125;123.0;0.080078;0.026367;0.920898;0;0;106700;0;0;0
2024-11-05_11-12-20.952140;106716;8.0;24.375;3.980834;3.98125;122.0;0.081055;0.021484;0.923828;0;0;106860;0;0;0
2024-11-05_11-12-21.092760;106861;0.0;24.375;0.021667;3.980834;125.0;0.084961;0.03125;0.922852;0;0;107009;0;0;0
2024-11-05_11-12-21.374780;107147;-16.0;24.375;0.021667;3.979167;126.0;0.082031;0.016602;0.998047;0;0;107292;0;0;0
2024-11-05_11-12-21.577907;107298;-21.333374;24.375;0.021667;3.979167;123.0;0.085938;0.019531;1.063477;0;0;107499;0;0;0
2024-11-05_11-12-21.890407;107712;-36.0;24.375;0.021667;3.975834;126.0;0.095703;0.017578;1.166016;0;0;107816;0;0;0
2024-11-05_11-12-22.031029;107859;-45.333374;24.375;0.021667;3.975834;123.0;0.092773;0.013672;1.192383;0;0;107950;0;0;0
2024-11-05_11-12-22.187283;107994;-49.333374;24.375;0.021667;0.021667;121.0;0.094727;0.014648;1.21875;0;0;108100;0;0;0
2024-11-05_11-12-22.327907;108139;-48.0;24.375;0.021667;3.975834;125.0;0.101562;0.017578;1.234375;0;0;108249;0;0;0
2024-11-05_11-12-22.500264;108285;-50.666626;24.375;0.021667;3.975417;123.0;0.101562;0.014648;1.238281;0;0;108409;0;0;0
2024-11-05_11-12-22.656514;108422;-50.666626;24.375;0.021667;3.975834;125.0;0.095703;0.016602;1.240234;0;0;108569;0;0;0
2024-11-05_11-12-22.812759;108566;-57.333374;24.375;0.021667;3.975834;120.0;0.094727;0.012695;1.246094;0;0;108729;0;0;0
2024-11-05_11-12-22.969002;108715;-53.333374;24.375;0.021667;3.975834;122.0;0.095703;0.012695;1.248047;0;0;108889;0;0;0
2024-11-05_11-12-23.156512;108852;-53.333374;24.375;0.021667;3.975834;125.0;0.098633;0.013672;1.253906;0;0;109037;0;0;0
2024-11-05_11-12-23.328389;109142;-53.333374;24.375;0.021667;3.975834;125.0;0.097656;0.016602;1.244141;0;0;109229;0;0;0
2024-11-05_11-12-23.438018;109142;-53.333374;24.375;0.021667;3.975834;125.0;0.097656;0.016602;1.244141;0;0;109350;0;0;0
2024-11-05_11-12-23.594278;109424;-50.666626;24.375;0.021667;3.975834;123.0;0.09082;0.022461;1.249023;0;0;109510;0;0;0
2024-11-05_11-12-23.828645;109565;-50.666626;24.375;0.021667;3.975834;126.0;0.094727;0.025391;1.258789;0;0;109749;0;0;0
2024-11-05_11-12-23.984894;109702;-45.333374;24.375;0.021667;3.975834;126.0;0.100586;0.016602;1.257812;0;0;109905;0;0;0
2024-11-05_11-12-24.063023;109845;-50.666626;24.375;0.021667;3.975834;124.0;0.094727;0.02832;1.238281;0;0;109980;0;0;0
2024-11-05_11-12-24.438458;110264;-49.333374;24.375;3.975834;3.975834;124.0;0.094727;0.021484;1.236328;0;0;110353;0;0;0
2024-11-05_11-12-24.610929;110405;-50.666626;24.375;0.021667;3.975834;124.0;0.099609;0.029297;1.246094;0;0;110523;0;0;0
2024-11-05_11-12-24.814058;110539;-50.666626;24.375;0.021667;3.975834;125.0;0.09668;0.019531;1.241211;0;0;110729;0;0;0
2024-11-05_11-12-25.001554;110810;-53.333374;24.375;0.021667;3.975417;125.0;0.094727;0.023438;1.265625;0;0;110920;0;0;0
2024-11-05_11-12-25.189054;110952;-50.666626;24.375;0.021667;3.975834;123.0;0.094727;0.019531;1.269531;0;0;111114;0;0;0
2024-11-05_11-12-25.298437;111093;-50.666626;24.375;0.021667;3.975417;124.0;0.09668;0.027344;1.25;0;0;111220;0;0;0
2024-11-05_11-12-25.470893;111237;-50.666626;24.375;0.021667;3.975834;125.0;0.092773;0.03125;1.233398;0;0;111390;0;0;0
2024-11-05_11-12-25.845897;111675;-36.0;24.375;0.021667;3.975834;124.0;0.09082;0.020508;1.171875;0;0;111759;0;0;0
2024-11-05_11-12-25.924017;111675;-36.0;24.375;0.021667;3.975834;124.0;0.09082;0.020508;1.171875;0;0;111849;0;0;0
2024-11-05_11-12-26.174014;111954;-25.333374;24.3125;0.021667;3.975834;124.0;0.092773;0.019531;1.124023;0;0;112079;0;0;0
2024-11-05_11-12-26.252142;111954;-25.333374;24.3125;0.021667;3.975834;124.0;0.092773;0.019531;1.124023;0;0;112168;0;0;0
2024-11-05_11-12-26.413245;112234;-17.333374;24.3125;0.021667;3.975;123.0;0.084961;0.018555;1.040039;0;0;112330;0;0;0
2024-11-05_11-12-26.643260;112375;-5.333374;24.3125;0.021667;3.975834;124.0;0.083984;0.011719;1.042969;0;0;112563;0;0;0
2024-11-05_11-12-26.721873;112512;-4.0;24.375;0.021667;3.974584;123.0;0.085938;0.010742;1.0;0;0;112640;0;0;0
2024-11-05_11-12-26.878257;112655;-5.333374;24.3125;0.021667;3.974167;126.0;0.084961;0.016602;0.986328;0;0;112790;0;0;0
2024-11-05_11-12-27.065755;112793;-1.333374;24.3125;0.021667;3.974167;125.0;0.082031;0.021484;0.970703;0;0;112984;0;0;0
2024-11-05_11-12-27.190756;112935;-2.666626;24.3125;0.021667;3.975;125.0;0.079102;0.017578;0.982422;0;0;113110;0;0;0
2024-11-05_11-12-27.456903;113216;-8.0;24.3125;0.021667;3.971667;123.0;0.082031;0.014648;0.999023;0;0;113373;0;0;0
2024-11-05_11-12-27.660031;113497;-18.666626;24.3125;0.021667;3.970417;124.0;0.084961;0.019531;1.052734;0;0;113579;0;0;0
2024-11-05_11-12-27.941287;113763;-18.666626;24.3125;0.021667;3.970417;125.0;0.083984;0.023438;1.060547;0;0;113857;0;0;0
2024-11-05_11-12-28.113156;113900;-17.333374;24.3125;0.021667;3.970417;125.0;0.087891;0.021484;1.040039;0;0;114030;0;0;0
2024-11-05_11-12-28.269416;114047;-13.333374;24.3125;0.021667;3.970417;125.0;0.081055;0.014648;1.019531;0;0;114190;0;0;0
2024-11-05_11-12-28.410041;114193;-4.0;24.3125;0.021667;3.970417;124.0;0.081055;0.021484;0.986328;0;0;114330;0;0;0
2024-11-05_11-12-28.597969;114341;-1.333374;24.3125;0.021667;3.970417;123.0;0.088867;0.013672;0.994141;0;0;114507;0;0;0
2024-11-05_11-12-28.738593;114486;2.666626;24.3125;0.02125;3.970417;124.0;0.083008;0.027344;0.950195;0;0;114659;0;0;0
2024-11-05_11-12-28.910483;114622;1.333374;24.3125;0.021667;3.970417;122.0;0.081055;0.03418;0.920898;0;0;114818;0;0;0
2024-11-05_11-12-29.066726;114767;12.0;24.3125;0.021667;3.970417;122.0;0.081055;0.016602;0.884766;0;0;114978;0;0;0
2024-11-05_11-12-29.207350;114912;14.666626;24.3125;0.021667;3.970417;124.0;0.075195;0.020508;0.861328;0;0;115120;0;0;0
2024-11-05_11-12-29.441717;115197;8.0;24.3125;0.021667;3.970417;121.0;0.075195;0.024414;0.890625;0;0;115359;0;0;0
2024-11-05_11-12-29.520063;115342;0.0;24.3125;0.021667;3.970417;124.0;0.071289;0.007812;0.943359;0;0;115440;0;0;0
2024-11-05_11-12-29.707551;115485;-13.333374;24.3125;0.021667;3.970417;124.0;0.079102;0.004883;0.993164;0;0;115600;0;0;0
2024-11-05_11-12-29.832551;115624;-22.666626;24.3125;0.021667;3.970417;128.0;0.084961;0.021484;1.109375;0;0;115749;0;0;0
2024-11-05_11-12-30.160675;115902;-76.0;24.3125;0.021667;3.970417;124.0;0.091797;0.03125;1.338867;0;0;116064;0;0;0
2024-11-05_11-12-30.426827;116182;-116.0;24.3125;0.021667;3.970417;123.0;0.109375;0.016602;1.629883;0;0;116328;0;0;0
2024-11-05_11-12-30.614681;116326;-133.333374;24.3125;0.021667;3.970417;124.0;0.119141;0.018555;1.693359;0;0;116530;0;0;0
2024-11-05_11-12-30.974061;116759;-158.666626;24.3125;0.021667;3.970417;123.0;0.134766;0.023438;1.886719;0;0;116878;0;0;0
2024-11-05_11-12-31.083439;116901;-164.0;24.3125;0.021667;3.970834;124.0;0.133789;0.019531;1.946289;0;0;117001;0;0;0
2024-11-05_11-12-31.239681;117033;-172.0;24.3125;0.021667;3.970417;124.0;0.134766;0.008789;1.964844;0;0;117157;0;0;0
2024-11-05_11-12-31.474061;117171;-168.0;24.3125;0.021667;3.970417;124.0;0.126953;0.015625;1.973633;0;0;117368;0;0;0
2024-11-05_11-12-31.552643;117302;-170.666626;24.3125;0.021667;3.970417;122.0;0.137695;0.022461;1.976562;0;0;117470;0;0;0
2024-11-05_11-12-31.724521;117439;-172.0;24.3125;0.021667;3.970417;125.0;0.134766;0.020508;1.993164;0;0;117638;0;0;0
2024-11-05_11-12-31.865138;117587;-174.666626;24.3125;0.021667;3.970417;124.0;0.134766;0.011719;1.989258;0;0;117780;0;0;0
2024-11-05_11-12-32.021396;117732;-178.666626;24.3125;0.021667;3.970417;125.0;0.138672;0.004883;1.986328;0;0;117940;0;0;0
2024-11-05_11-12-32.177641;118014;-164.0;24.3125;0.021667;3.970417;125.0;0.131836;0.006836;1.945312;0;0;118090;0;0;0
2024-11-05_11-12-32.427640;118155;-161.333374;24.3125;0.021667;3.970417;123.0;0.135742;0.010742;1.924805;0;0;118339;0;0;0
2024-11-05_11-12-32.510499;118295;-153.333374;24.3125;0.021667;3.970417;122.0;0.129883;-0.000977;1.878906;0;0;118411;0;0;0
2024-11-05_11-12-32.709270;118434;-154.666626;24.3125;0.021667;3.970417;125.0;0.130859;0.014648;1.84668;0;0;118610;0;0;0
2024-11-05_11-12-32.787403;118575;-145.333374;24.3125;0.021667;3.970417;123.0;0.125977;0.019531;1.828125;0;0;118709;0;0;0
2024-11-05_11-12-32.974930;118714;-142.666626;24.3125;0.021667;3.970417;124.0;0.123047;0.010742;1.794922;0;0;118878;0;0;0
2024-11-05_11-12-33.240516;118992;-137.333374;24.3125;0.021667;3.970417;125.0;0.124023;0.019531;1.775391;0;0;119149;0;0;0
2024-11-05_11-12-33.459992;119272;-142.666626;24.3125;0.021667;3.970417;126.0;0.12207;0.017578;1.787109;0;0;119357;0;0;0
2024-11-05_11-12-33.663829;119417;-142.666626;24.25;0.021667;3.970417;126.0;0.12793;0.018555;1.800781;0;0;119580;0;0;0
2024-11-05_11-12-33.741951;119565;-142.666626;24.3125;0.021667;3.970417;124.0;0.126953;0.015625;1.816406;0;0;119660;0;0;0
2024-11-05_11-12-33.882862;119704;-152.0;24.3125;0.021667;3.970417;126.0;0.12793;0.007812;1.825195;0;0;119805;0;0;0
2024-11-05_11-12-34.039102;119833;-152.0;24.3125;0.021667;3.970417;125.0;0.125977;0.012695;1.836914;0;0;119960;0;0;0
2024-11-05_11-12-34.382864;120113;-158.666626;24.3125;3.97;3.970417;124.0;0.131836;0.005859;1.878906;0;0;120287;0;0;0
2024-11-05_11-12-34.555297;120243;-158.666626;24.25;0.021667;3.96875;124.0;0.131836;0.008789;1.899414;0;0;120469;0;0;0
2024-11-05_11-12-34.742935;120525;-158.666626;24.25;0.021667;3.96875;125.0;0.134766;0.010742;1.915039;0;0;120669;0;0;0
2024-11-05_11-12-34.836689;120665;-153.333374;24.3125;0.021667;3.966667;125.0;0.132812;0.018555;1.897461;0;0;120750;0;0;0
2024-11-05_11-12-35.133552;120815;-157.333374;24.3125;0.021667;3.967084;124.0;0.137695;0.023438;1.895508;0;0;121008;0;0;0
2024-11-05_11-12-35.305438;121096;-153.333374;24.3125;0.021667;3.965417;124.0;0.130859;0.012695;1.863281;0;0;121219;0;0;0
2024-11-05_11-12-35.461677;121245;-150.666626;24.3125;0.021667;3.965834;124.0;0.132812;0.010742;1.862305;0;0;121378;0;0;0
2024-11-05_11-12-35.634213;121384;-152.0;24.25;0.021667;3.965;123.0;0.130859;0.010742;1.855469;0;0;121549;0;0;0
2024-11-05_11-12-35.774830;121525;-145.333374;24.25;0.021667;3.965;122.0;0.129883;0.009766;1.842773;0;0;121690;0;0;0
2024-11-05_11-12-35.931080;121664;-144.0;24.25;0.021667;3.965;122.0;0.128906;0.009766;1.831055;0;0;121850;0;0;0
2024-11-05_11-12-36.134211;121942;-142.666626;24.3125;0.021667;3.965;127.0;0.133789;0.016602;1.816406;0;0;122049;0;0;0
2024-11-05_11-12-36.259205;122085;-152.0;24.25;0.021667;3.965;122.0;0.130859;0.019531;1.814453;0;0;122164;0;0;0
2024-11-05_11-12-36.415456;122222;-144.0;24.25;0.021667;3.965;124.0;0.131836;0.025391;1.824219;0;0;122330;0;0;0
2024-11-05_11-12-36.587671;122366;-142.666626;24.25;0.021667;3.965417;121.0;0.133789;0.017578;1.831055;0;0;122489;0;0;0
2024-11-05_11-12-36.837804;122655;-154.666626;24.25;3.965417;3.965;125.0;0.136719;0.023438;1.841797;0;0;122753;0;0;0
2024-11-05_11-12-37.119053;122935;-152.0;24.25;3.965;3.965;124.0;0.134766;0.017578;1.834961;0;0;123040;0;0;0
2024-11-05_11-12-37.165930;122935;-152.0;24.25;3.965;3.965;124.0;0.134766;0.017578;1.834961;0;0;123090;0;0;0
2024-11-05_11-12-37.400314;123224;-152.0;24.25;3.965417;3.965417;125.0;0.136719;0.016602;1.848633;0;0;123320;0;0;0
2024-11-05_11-12-37.494052;123224;-152.0;24.25;3.965417;3.965417;125.0;0.136719;0.016602;1.848633;0;0;123410;0;0;0
2024-11-05_11-12-37.682071;123371;-153.333374;24.25;3.965417;3.965417;125.0;0.141602;0.014648;1.849609;0;0;123571;0;0;0
2024-11-05_11-12-38.041482;123795;-153.333374;24.25;0.021667;3.965;125.0;0.144531;0.006836;1.850586;0;0;123943;0;0;0
2024-11-05_11-12-38.119577;123934;-153.333374;24.25;0.021667;3.965417;125.0;0.141602;0.005859;1.854492;0;0;124039;0;0;0
2024-11-05_11-12-38.291452;124075;-152.0;24.25;0.021667;3.965;125.0;0.141602;0.012695;1.861328;0;0;124197;0;0;0
2024-11-05_11-12-38.432079;124212;-152.0;24.25;0.021667;3.965;126.0;0.138672;0.012695;1.847656;0;0;124348;0;0;0
2024-11-05_11-12-38.619969;124357;-150.666626;24.25;0.021667;3.964583;125.0;0.148438;0.013672;1.832031;0;0;124517;0;0;0
2024-11-05_11-12-38.745095;124505;-152.0;24.25;0.021667;3.964167;123.0;0.146484;0.012695;1.836914;0;0;124660;0;0;0
2024-11-05_11-12-38.916983;124642;-153.333374;24.25;0.021667;3.961667;123.0;0.146484;0.012695;1.827148;0;0;124834;0;0;0
2024-11-05_11-12-39.088854;124785;-146.666626;24.25;0.021667;3.962917;126.0;0.142578;0.007812;1.829102;0;0;124974;0;0;0
2024-11-05_11-12-39.214512;124922;-153.333374;24.25;0.021667;3.96125;122.0;0.146484;0.010742;1.829102;0;0;125130;0;0;0
2024-11-05_11-12-39.386398;125202;-152.0;24.25;0.021667;3.96;126.0;0.145508;0.013672;1.845703;0;0;125309;0;0;0
2024-11-05_11-12-39.605148;125345;-153.333374;24.25;0.021667;3.960834;124.0;0.148438;0.008789;1.845703;0;0;125521;0;0;0
2024-11-05_11-12-39.683619;125483;-150.666626;24.25;3.96;3.96;127.0;0.149414;0.013672;1.856445;0;0;125590;0;0;0
2024-11-05_11-12-39.855423;125628;-153.333374;24.25;0.021667;3.96;123.0;0.148438;0.010742;1.835938;0;0;125760;0;0;0
2024-11-05_11-12-39.996467;125765;-153.333374;24.25;3.96;3.96;125.0;0.151367;0.022461;1.849609;0;0;125920;0;0;0
2024-11-05_11-12-40.262577;126060;-156.0;24.25;0.021667;3.959583;123.0;0.151367;0.015625;1.84082;0;0;126175;0;0;0
2024-11-05_11-12-40.325077;126060;-156.0;24.25;0.021667;3.959583;123.0;0.151367;0.015625;1.84082;0;0;126237;0;0;0
2024-11-05_11-12-40.481343;126199;-154.666626;24.25;0.021667;3.959583;124.0;0.152344;0.017578;1.851562;0;0;126390;0;0;0
2024-11-05_11-12-40.653619;126471;-153.333374;24.25;0.021667;3.96;124.0;0.15625;0.011719;1.847656;0;0;126555;0;0;0
2024-11-05_11-12-40.934996;126745;-154.666626;24.25;0.02125;3.96;124.0;0.157227;0.017578;1.848633;0;0;126833;0;0;0
2024-11-05_11-12-41.200631;126887;-152.0;24.25;0.021667;3.96;124.0;0.164062;0.017578;1.848633;0;0;127107;0;0;0
2024-11-05_11-12-41.278779;127032;-152.0;24.25;0.021667;3.96;122.0;0.163086;0.016602;1.841797;0;0;127190;0;0;0
2024-11-05_11-12-41.388132;127175;-153.333374;24.25;0.021667;3.96;124.0;0.161133;0.015625;1.833008;0;0;127308;0;0;0
2024-11-05_11-12-41.701369;127455;-154.666626;24.25;0.021667;3.96;123.0;0.161133;0.015625;1.833008;0;0;127600;0;0;0
2024-11-05_11-12-41.873239;127594;-152.0;24.25;0.02125;3.96;124.0;0.160156;0.018555;1.818359;0;0;127798;0;0;0
2024-11-05_11-12-42.061025;127872;-152.0;24.25;0.021667;3.96;122.0;0.161133;0.013672;1.825195;0;0;127979;0;0;0
2024-11-05_11-12-42.186691;128016;-150.666626;24.25;0.021667;3.96;127.0;0.163086;0.024414;1.828125;0;0;128100;0;0;0
2024-11-05_11-12-42.343341;128165;-144.0;24.25;0.021667;3.96;123.0;0.160156;0.017578;1.827148;0;0;128260;0;0;0
2024-11-05_11-12-42.499582;128304;-145.333374;24.25;0.021667;3.96;122.0;0.164062;0.016602;1.814453;0;0;128419;0;0;0
2024-11-05_11-12-42.677440;128445;-138.666626;24.25;0.021667;3.959583;124.0;0.166016;0.010742;1.808594;0;0;128578;0;0;0
2024-11-05_11-12-43.015839;128728;-145.333374;24.25;0.021667;3.96;126.0;0.170898;0.008789;1.808594;0;0;128934;0;0;0
2024-11-05_11-12-43.125209;128873;-142.666626;24.25;0.021667;3.96;121.0;0.168945;0.007812;1.806641;0;0;129037;0;0;0
2024-11-05_11-12-43.390836;129155;-152.0;24.25;0.021667;3.954167;125.0;0.166992;0.013672;1.807617;0;0;129304;0;0;0
2024-11-05_11-12-43.437704;129155;-152.0;24.25;0.021667;3.954167;125.0;0.166992;0.013672;1.807617;0;0;129356;0;0;0
2024-11-05_11-12-43.735051;129575;-145.333374;24.25;0.021667;3.96;124.0;0.173828;0.008789;1.80957;0;0;129650;0;0;0
2024-11-05_11-12-43.906927;129702;-140.0;24.25;0.021667;3.96;123.0;0.178711;0.012695;1.801758;0;0;129820;0;0;0
2024-11-05_11-12-44.172555;129985;-138.666626;24.25;0.021667;3.959583;125.0;0.174805;0.013672;1.77832;0;0;130073;0;0;0
2024-11-05_11-12-44.219426;129985;-138.666626;24.25;0.021667;3.959583;125.0;0.174805;0.013672;1.77832;0;0;130131;0;0;0
2024-11-05_11-12-44.391303;130132;-138.666626;24.25;0.021667;3.96;122.0;0.176758;0.014648;1.779297;0;0;130299;0;0;0
2024-11-05_11-12-44.594423;130412;-136.0;24.25;0.021667;3.958333;122.0;0.177734;0.013672;1.746094;0;0;130519;0;0;0
2024-11-05_11-12-44.708446;130412;-136.0;24.25;0.021667;3.958333;122.0;0.177734;0.013672;1.746094;0;0;130617;0;0;0
2024-11-05_11-12-44.875958;130555;-138.666626;24.25;0.021667;3.958333;125.0;0.177734;0.015625;1.727539;0;0;130765;0;0;0
2024-11-05_11-12-45.000950;130836;-133.333374;24.25;0.021667;3.955;123.0;0.171875;0.009766;1.699219;0;0;130920;0;0;0
2024-11-05_11-12-45.267073;130985;-125.333374;24.1875;0.021667;3.954583;123.0;0.177734;0.008789;1.698242;0;0;131178;0;0;0
2024-11-05_11-12-45.335378;131122;-125.333374;24.25;0.021667;3.954583;123.0;0.182617;0.015625;1.713867;0;0;131250;0;0;0
2024-11-05_11-12-45.580521;131412;-138.666626;24.25;0.021667;3.954583;125.0;0.1875;0.008789;1.729492;0;0;131499;0;0;0
2024-11-05_11-12-45.627401;131412;-138.666626;24.25;0.021667;3.954583;125.0;0.1875;0.008789;1.729492;0;0;131549;0;0;0
2024-11-05_11-12-45.799542;131557;-138.666626;24.1875;0.021667;3.954583;124.0;0.188477;0.010742;1.735352;0;0;131719;0;0;0
2024-11-05_11-12-45.987046;131705;-138.666626;24.1875;0.021667;3.954583;126.0;0.192383;0.008789;1.749023;0;0;131879;0;0;0
2024-11-05_11-12-46.096410;131842;-138.666626;24.1875;0.021667;3.954583;123.0;0.191406;0.015625;1.772461;0;0;132011;0;0;0
2024-11-05_11-12-46.299537;132135;-153.333374;24.1875;3.954583;3.954583;123.0;0.204102;0.032227;1.842773;0;0;132219;0;0;0
2024-11-05_11-12-46.424542;132135;-153.333374;24.1875;3.954583;3.954583;123.0;0.204102;0.032227;1.842773;0;0;132340;0;0;0
2024-11-05_11-12-46.596417;132426;-153.333374;24.1875;0.021667;3.954583;124.0;0.206055;0.027344;1.837891;0;0;132510;0;0;0
2024-11-05_11-12-46.721409;132426;-153.333374;24.1875;0.021667;3.954583;124.0;0.206055;0.027344;1.837891;0;0;132640;0;0;0
2024-11-05_11-12-46.924833;132724;-145.333374;24.25;0.021667;3.954583;126.0;0.205078;0.03418;1.842773;0;0;132840;0;0;0
2024-11-05_11-12-47.034211;132724;-145.333374;24.25;0.021667;3.954583;126.0;0.205078;0.03418;1.842773;0;0;132949;0;0;0
2024-11-05_11-12-47.362341;133152;-152.0;24.1875;0.021667;3.954583;126.0;0.210938;0.020508;1.821289;0;0;133266;0;0;0
2024-11-05_11-12-47.502975;133296;-142.666626;24.1875;0.021667;3.954583;125.0;0.212891;0.013672;1.81543;0;0;133419;0;0;0
2024-11-05_11-12-47.659214;133432;-140.0;24.1875;0.021667;3.954583;126.0;0.211914;0.012695;1.786133;0;0;133568;0;0;0
2024-11-05_11-12-47.831454;133577;-137.333374;24.1875;0.021667;3.954583;125.0;0.212891;0.009766;1.78418;0;0;133739;0;0;0
2024-11-05_11-12-48.050204;133862;-145.333374;24.1875;0.021667;3.954583;124.0;0.21582;0.010742;1.762695;0;0;133959;0;0;0
2024-11-05_11-12-48.128770;133862;-145.333374;24.1875;0.021667;3.954583;124.0;0.21582;0.010742;1.762695;0;0;134050;0;0;0
2024-11-05_11-12-48.285156;134006;-138.666626;24.1875;0.021667;3.954583;127.0;0.209961;0.012695;1.776367;0;0;134200;0;0;0
2024-11-05_11-12-48.441404;134152;-137.333374;24.1875;0.021667;3.954583;124.0;0.205078;0.018555;1.769531;0;0;134359;0;0;0
2024-11-05_11-12-48.613276;134434;-145.333374;24.1875;0.021667;3.954583;122.0;0.192383;-0.000977;1.750977;0;0;134515;0;0;0
2024-11-05_11-12-48.847970;134575;-136.0;24.1875;0.021667;3.954583;124.0;0.1875;0.00293;1.734375;0;0;134764;0;0;0
2024-11-05_11-12-48.894846;134712;-136.0;24.1875;0.021667;3.954583;125.0;0.178711;0.001953;1.702148;0;0;134819;0;0;0
2024-11-05_11-12-49.066721;134855;-125.333374;24.1875;0.021667;3.954583;125.0;0.175781;0.0;1.698242;0;0;134979;0;0;0
2024-11-05_11-12-49.285482;134995;-118.666626;24.1875;0.021667;3.954583;126.0;0.166016;0.001953;1.677734;0;0;135192;0;0;0
2024-11-05_11-12-49.613598;135417;-121.333374;24.1875;0.021667;3.954583;124.0;0.148438;0.005859;1.619141;0;0;135533;0;0;0
2024-11-05_11-12-50.373455;136116;-38.666626;24.1875;0.021667;3.954583;125.0;0.076172;0.026367;1.150391;-60000;-60000;136279;0;0;0
2024-11-05_11-12-50.518705;136262;8.0;24.1875;0.075417;3.955417;119.0;0.054688;0.02832;1.007812;-60000;-60000;136420;0;0;0
2024-11-05_11-12-50.659838;136405;14.666626;24.1875;0.04375;3.957917;112.0;0.041016;0.03418;0.881836;-60000;-60000;136580;0;0;0
2024-11-05_11-12-50.823278;136547;36.0;24.1875;0.171667;3.979584;101.0;0.02832;0.032227;0.728516;-60000;-60000;136730;0;0;0
2024-11-05_11-12-51.007375;136698;60.0;24.1875;0.077083;3.953334;91.0;0.018555;0.032227;0.608398;20000;20000;136910;1;0;0
2024-11-05_11-12-51.157437;136845;73.333252;24.1875;0.09375;4.170417;89.0;0.012695;0.033203;0.53418;20000;20000;137056;1;0;0
2024-11-05_11-12-51.290738;137122;98.666748;24.1875;0.440833;3.999167;93.0;0.001953;0.023438;0.349609;20000;20000;137200;1;0;0
2024-11-05_11-12-51.524277;137266;109.333252;24.1875;0.616667;4.19;95.0;-0.000977;0.029297;0.292969;20000;20000;137429;0;0;0
2024-11-05_11-12-51.641003;137402;117.333252;24.1875;0.08125;3.965417;96.0;0.00293;0.03125;0.250977;20000;20000;137537;0;0;0
2024-11-05_11-12-51.832604;137547;121.333252;24.1875;0.090833;3.95;96.0;0.000977;0.022461;0.208984;20000;20000;137719;0;0;0
2024-11-05_11-12-51.942166;137692;136.0;24.1875;0.14125;3.965417;95.0;0.0;0.026367;0.145508;20000;20000;137850;0;0;0
2024-11-05_11-12-52.082793;137835;140.0;24.1875;0.075833;3.949583;96.0;-0.000977;0.022461;0.124023;20000;20000;138000;0;0;0
2024-11-05_11-12-52.239040;137974;140.0;24.1875;0.022083;3.949167;95.0;-0.000977;0.022461;0.094727;20000;20000;138159;0;0;0
2024-11-05_11-12-52.521887;138244;146.666748;24.1875;0.021667;3.949167;96.0;-0.000977;0.027344;0.071289;1000;1000;171;0;0;0
2024-11-05_11-12-52.725804;138517;-18.666626;24.125;0.159583;3.971667;94.0;-0.001953;0.026367;0.0625;1333;1333;381;0;0;0
2024-11-05_11-12-52.898160;138668;-18.666626;24.1875;0.123333;3.950834;96.0;-0.003906;0.026367;0.048828;1666;1666;567;0;0;0
2024-11-05_11-12-53.070261;138817;-21.333374;24.1875;0.081667;3.967084;97.0;-0.005859;0.030273;0.047852;2000;2000;733;0;2;0
2024-11-05_11-12-53.179758;138968;-18.666626;24.1875;0.100417;3.951667;94.0;-0.005859;0.029297;0.057617;2333;2333;850;0;0;0
2024-11-05_11-12-53.351676;139120;-16.0;24.1875;0.074583;3.971667;97.0;-0.006836;0.026367;0.054688;3000;3000;1015;0;0;0
2024-11-05_11-12-53.539550;139263;-16.0;24.1875;0.14875;3.95;97.0;-0.007812;0.024414;0.05957;3666;3666;1158;0;0;0
2024-11-05_11-12-53.664973;139393;-21.333374;24.1875;0.152917;3.9575;100.0;-0.005859;0.026367;0.05957;4666;4666;1331;0;2;0
2024-11-05_11-12-53.821715;139537;-13.333374;24.1875;0.094167;3.968333;100.0;-0.008789;0.02832;0.050781;5333;5333;1465;0;0;0
2024-11-05_11-12-53.978352;139682;-17.333374;24.1875;0.089583;3.949167;100.0;-0.009766;0.029297;0.040039;6666;6666;1639;0;0;0
2024-11-05_11-12-54.151150;139975;-17.333374;24.1875;0.132917;3.957917;99.0;-0.003906;0.036133;0.02832;8000;8000;1802;0;0;0
2024-11-05_11-12-54.275580;140115;-13.333374;24.125;0.103333;3.95875;104.0;-0.005859;0.038086;0.025391;10666;10666;1942;0;0;0
2024-11-05_11-12-54.432283;140259;-16.0;24.1875;0.107917;3.958333;105.0;-0.009766;0.032227;0.019531;12000;12000;2094;0;0;0
2024-11-05_11-12-54.620239;140407;-5.333374;24.1875;0.14875;3.954583;107.0;-0.007812;0.03418;0.016602;14666;14666;2256;0;0;0
2024-11-05_11-12-54.776481;140553;-13.333374;24.1875;0.047083;3.95;105.0;-0.005859;0.032227;0.005859;18666;18666;2429;0;0;0
2024-11-05_11-12-54.932823;140695;-16.0;24.1875;0.137083;3.961667;112.0;-0.010742;0.03125;0.00293;24000;24000;2582;0;2;0
2024-11-05_11-12-55.171342;140839;-8.0;24.1875;0.050833;3.950417;114.0;-0.010742;0.029297;0.001953;29333;29333;2810;0;0;0
2024-11-05_11-12-55.371332;141127;-8.0;24.125;0.127083;3.949167;123.0;-0.012695;0.026367;-0.004883;42666;42666;3041;0;0;0
2024-11-05_11-12-55.653063;141418;-5.333374;24.1875;0.067083;3.9525;140.0;-0.011719;0.02832;-0.011719;53333;53333;3322;0;0;0
2024-11-05_11-12-55.856324;141552;-10.666626;24.1875;3.949583;3.949583;147.0;-0.007812;0.03125;-0.014648;64000;64000;3511;0;2;0
2024-11-05_11-12-55.998156;141835;-8.0;24.1875;0.122917;3.9575;164.0;-0.012695;0.035156;-0.024414;64000;64000;3660;0;0;0
2024-11-05_11-12-56.280159;141965;-18.666626;24.125;0.135417;3.957084;176.0;-0.009766;0.035156;-0.016602;64000;64000;3820;0;0;0
2024-11-05_11-12-56.686406;142375;-21.333374;24.125;0.064583;3.952917;209.0;-0.012695;0.03418;-0.014648;64000;64000;4339;0;0;0
2024-11-05_11-12-56.842645;142652;-22.666626;24.125;0.375417;3.843333;223.0;-0.015625;0.035156;-0.008789;26000;26000;4510;0;0;0
2024-11-05_11-12-56.952688;142652;-22.666626;24.125;0.375417;3.843333;223.0;-0.015625;0.035156;-0.008789;-12000;-12000;4609;0;0;0
2024-11-05_11-12-57.125306;142932;-32.0;24.1875;0.739583;3.809167;225.0;-0.010742;0.035156;-0.000977;-50000;-50000;4790;0;0;0
2024-11-05_11-12-57.266314;143076;-16.0;24.1875;0.768333;3.7725;217.0;-0.012695;0.033203;0.00293;-50000;-50000;4921;0;0;0
2024-11-05_11-12-57.423039;143225;14.666626;24.125;0.836667;3.76375;209.0;-0.012695;0.03125;0.005859;-50000;-50000;5071;0;0;0
2024-11-05_11-12-57.579198;143364;38.666626;24.1875;0.855833;3.757917;200.0;-0.014648;0.035156;0.012695;-50000;-50000;5239;0;0;0
2024-11-05_11-12-57.720294;143506;62.666748;24.1875;0.9125;3.753333;190.0;-0.015625;0.032227;0.003906;-50000;-50000;5389;0;0;0
2024-11-05_11-12-57.908442;143644;73.333252;24.125;0.92;3.757083;183.0;-0.013672;0.036133;0.018555;-50000;-50000;5560;0;0;0
2024-11-05_11-12-58.049487;143785;117.333252;24.1875;0.960417;3.74875;174.0;-0.016602;0.040039;0.019531;-50000;-50000;5711;0;0;0
2024-11-05_11-12-58.205800;143924;148.0;24.125;0.976667;3.755417;169.0;-0.014648;0.033203;0.020508;-50000;-50000;5861;0;0;0
2024-11-05_11-12-58.393792;144202;136.0;24.1875;0.995;3.75625;147.0;-0.014648;0.03125;0.025391;-50000;-50000;6060;0;0;0
2024-11-05_11-12-58.515640;144202;136.0;24.1875;0.995;3.75625;147.0;-0.014648;0.03125;0.025391;-50000;-50000;6160;0;0;0
2024-11-05_11-12-58.738155;144482;204.0;24.125;1.003333;3.754167;134.0;-0.014648;0.03418;0.03125;-60000;-60000;6391;0;0;0
2024-11-05_11-12-58.816319;144629;221.333252;24.1875;1.005;3.7475;127.0;-0.015625;0.03418;0.033203;-60000;-60000;6468;0;0;0
2024-11-05_11-12-58.957006;144761;245.333252;24.1875;0.950833;3.7475;120.0;-0.017578;0.032227;0.032227;-60000;-60000;6622;0;0;0
2024-11-05_11-12-59.113386;144906;278.666748;24.125;0.811667;3.747083;104.0;-0.015625;0.033203;0.038086;-60000;-60000;6771;0;0;0
2024-11-05_11-12-59.269881;145052;237.333252;24.125;0.74;3.751667;97.0;-0.018555;0.03125;0.038086;-60000;-60000;6934;0;0;0
2024-11-05_11-12-59.443516;145191;-4.0;24.125;0.655;3.759584;85.0;-0.014648;0.03125;0.047852;20000;20000;7111;1;0;0
2024-11-05_11-12-59.584112;145326;-10.666626;24.1875;3.752917;3.770833;87.0;-0.015625;0.027344;0.042969;20000;20000;7251;1;0;0
2024-11-05_11-12-59.741442;145453;-13.333374;24.125;0.877083;3.879167;92.0;-0.014648;0.02832;0.021484;20000;20000;7403;1;0;0
2024-11-05_11-13-00.039694;145724;-16.0;24.125;0.4575;3.877917;95.0;-0.016602;0.027344;0.041016;20000;20000;7681;0;0;0
2024-11-05_11-13-00.431140;146145;-16.0;24.1875;0.115417;3.759167;96.0;-0.018555;0.02832;0.03125;20000;20000;8095;0;0;0
2024-11-05_11-13-00.650510;146425;-8.0;24.125;0.0425;3.753751;97.0;-0.014648;0.026367;0.025391;20000;20000;8307;0;0;0
2024-11-05_11-13-00.963474;146702;-17.333374;24.125;0.02125;3.758333;97.0;-0.018555;0.025391;0.019531;1000;1000;5;0;0;0
2024-11-05_11-13-01.198003;146983;-17.333374;24.125;0.139167;0.057917;97.0;-0.017578;0.027344;0.016602;1333;1333;235;0;0;0
2024-11-05_11-13-01.464161;147262;-20.0;24.125;0.096667;3.7725;94.0;-0.015625;0.02832;0.019531;1833;1833;505;0;2;0
2024-11-05_11-13-01.652622;147405;-17.333374;24.125;0.049583;3.764167;97.0;-0.018555;0.024414;0.007812;2000;2000;668;0;0;0
2024-11-05_11-13-01.777561;147544;-20.0;24.1875;0.1275;3.768333;99.0;-0.016602;0.023438;0.014648;2666;2666;816;0;2;0
2024-11-05_11-13-01.965620;147687;-16.0;24.125;0.064583;3.75875;97.0;-0.015625;0.025391;0.000977;3333;3333;995;0;0;0
2024-11-05_11-13-02.106703;147833;-17.333374;24.125;0.055;3.758333;99.0;-0.016602;0.024414;0.006836;4000;4000;1136;0;0;0
2024-11-05_11-13-02.262989;147982;-13.333374;24.125;0.046667;3.7725;97.0;-0.015625;0.024414;0.005859;5333;5333;1296;0;0;0
2024-11-05_11-13-02.435314;148128;-17.333374;24.125;0.12125;3.762917;100.0;-0.018555;0.023438;0.0;6666;6666;1466;0;2;0
2024-11-05_11-13-02.654018;148428;-16.0;24.125;0.107083;3.7725;102.0;-0.017578;0.021484;0.004883;8000;8000;1695;0;0;0
2024-11-05_11-13-02.779827;148581;-16.0;24.1875;0.07875;3.758333;105.0;-0.017578;0.024414;0.004883;9333;9333;1826;0;0;0
2024-11-05_11-13-02.920472;148732;-16.0;24.125;0.09875;3.772084;103.0;-0.015625;0.023438;-0.000977;12000;12000;1941;0;0;0
2024-11-05_11-13-03.061543;148861;-17.333374;24.125;0.1025;3.758333;105.0;-0.016602;0.022461;0.00293;14666;14666;2093;0;0;0
2024-11-05_11-13-03.265282;148998;-21.333374;24.125;0.075;3.759167;107.0;-0.017578;0.023438;-0.001953;18666;18666;2294;0;0;0
2024-11-05_11-13-03.405961;149142;-16.0;24.1875;0.08625;3.758333;110.0;-0.016602;0.026367;0.000977;21333;21333;2436;0;0;0
2024-11-05_11-13-03.609898;149291;-18.666626;24.125;0.125;3.75875;113.0;-0.018555;0.021484;-0.004883;26666;26666;2635;0;0;0
2024-11-05_11-13-03.922881;149715;-18.666626;24.125;0.085;3.762917;127.0;-0.017578;0.021484;0.0;37333;37333;2964;0;0;0
2024-11-05_11-13-04.251840;149999;-18.666626;24.125;0.09375;3.759584;140.0;-0.022461;0.022461;0.0;53333;53333;3290;0;0;0
2024-11-05_11-13-04.533775;150283;-17.333374;24.1875;0.119167;3.763334;158.0;-0.019531;0.022461;0.003906;64000;64000;3566;0;2;0
2024-11-05_11-13-04.658686;150425;-21.333374;24.125;0.0825;3.763334;168.0;-0.018555;0.023438;0.011719;64000;64000;3696;0;0;0
2024-11-05_11-13-04.799397;150565;-30.666626;24.1875;0.065833;3.763334;180.0;-0.017578;0.021484;0.010742;64000;64000;3833;0;0;0
2024-11-05_11-13-04.909557;150706;-21.333374;24.1875;0.1075;3.76625;193.0;-0.020508;0.025391;0.005859;64000;64000;3945;0;0;0
2024-11-05_11-13-05.082327;150852;-21.333374;24.1875;0.1025;3.76375;199.0;-0.021484;0.024414;0.014648;64000;64000;4111;0;0;0
2024-11-05_11-13-05.207393;150996;-34.666626;24.125;0.045417;3.755417;216.0;-0.020508;0.024414;0.016602;26000;26000;4246;0;0;0
2024-11-05_11-13-05.363590;151139;-36.0;24.1875;0.79625;3.66125;222.0;-0.020508;0.023438;0.018555;-31000;-31000;4406;0;0;0
2024-11-05_11-13-05.520566;151279;-36.0;24.1875;0.745833;3.599583;211.0;-0.021484;0.025391;0.018555;-50000;-50000;4550;0;0;0
2024-11-05_11-13-05.676813;151411;-18.666626;24.1875;0.7225;3.595834;204.0;-0.020508;0.025391;0.023438;-50000;-50000;4716;0;0;0
2024-11-05_11-13-05.833075;151548;12.0;24.1875;0.75125;3.59;194.0;-0.019531;0.027344;0.019531;-50000;-50000;4876;0;0;0
2024-11-05_11-13-06.021000;151838;86.666748;24.1875;0.86625;3.572917;182.0;-0.022461;0.024414;0.021484;-50000;-50000;5056;0;0;0
2024-11-05_11-13-06.192993;151989;102.666748;24.1875;0.900833;3.5725;167.0;-0.021484;0.022461;0.029297;-50000;-50000;5224;0;0;0
2024-11-05_11-13-06.411954;152135;109.333252;24.1875;0.922917;3.56625;158.0;-0.023438;0.025391;0.017578;-50000;-50000;5445;0;0;0
2024-11-05_11-13-06.615428;152425;138.666748;24.1875;0.986667;3.569167;143.0;-0.023438;0.024414;0.019531;-50000;-50000;5655;0;0;0
2024-11-05_11-13-06.771586;152562;142.666748;24.1875;0.961667;3.5675;135.0;-0.020508;0.025391;0.029297;-50000;-50000;5815;0;0;0
2024-11-05_11-13-06.959802;152705;109.333252;24.1875;0.972917;3.567084;127.0;-0.023438;0.022461;0.03125;-60000;-60000;5982;0;0;0
2024-11-05_11-13-07.148457;152985;0.0;24.1875;0.895;3.56625;110.0;-0.022461;0.024414;0.023438;-60000;-60000;6195;0;0;0
2024-11-05_11-13-07.382889;153127;-13.333374;24.1875;0.782917;3.57;101.0;-0.024414;0.023438;0.022461;-60000;-60000;6413;0;0;0
2024-11-05_11-13-07.554715;153272;-17.333374;24.1875;0.655417;3.573334;89.0;-0.022461;0.022461;0.024414;20000;20000;6596;0;0;0
2024-11-05_11-13-07.711321;153552;-17.333374;24.1875;0.49625;3.578334;94.0;-0.023438;0.023438;0.010742;20000;20000;6756;0;0;0
2024-11-05_11-13-07.930586;153695;-18.666626;24.1875;0.38375;3.577917;91.0;-0.021484;0.018555;0.021484;20000;20000;6945;0;0;0
2024-11-05_11-13-08.212409;153975;-18.666626;24.1875;0.08875;3.57375;93.0;-0.021484;0.022461;0.016602;20000;20000;7230;0;0;0
2024-11-05_11-13-08.390063;154113;-16.0;24.1875;0.043333;3.5725;90.0;-0.025391;0.020508;0.014648;20000;20000;7425;0;0;0
2024-11-05_11-13-08.546316;154255;-17.333374;24.1875;0.022917;3.5725;94.0;-0.024414;0.022461;0.011719;20000;20000;7580;0;0;0
2024-11-05_11-13-08.727676;154528;-16.0;24.1875;0.021667;3.5725;92.0;-0.025391;0.021484;0.005859;20000;20000;7756;0;0;0
2024-11-05_11-13-08.878945;154664;-16.0;24.1875;3.572917;3.5725;92.0;-0.026367;0.023438;0.0;20000;20000;7925;0;0;0
2024-11-05_11-13-09.013091;154796;-21.333374;24.1875;3.57625;3.5725;91.0;-0.025391;0.023438;0.006836;1000;1000;31;0;0;0
2024-11-05_11-13-09.278992;155076;-17.333374;24.1875;0.110833;3.577917;93.0;-0.025391;0.025391;0.003906;1500;1500;297;0;0;0
2024-11-05_11-13-09.526381;155332;-13.333374;24.1875;0.08;3.580834;93.0;-0.026367;0.021484;0.003906;1833;1833;523;0;0;0
2024-11-05_11-13-09.651720;155476;-13.333374;24.1875;0.05625;3.577917;91.0;-0.027344;0.023438;0.003906;2333;2333;681;0;0;0
2024-11-05_11-13-09.807931;155622;-17.333374;24.1875;0.051667;3.577917;97.0;-0.02832;0.021484;0.003906;2666;2666;818;0;0;0
2024-11-05_11-13-09.964182;155770;-17.333374;24.1875;0.0575;3.584584;92.0;-0.02832;0.021484;0.00293;3333;3333;984;0;0;0
2024-11-05_11-13-10.125264;155902;-13.333374;24.1875;0.048333;3.583333;92.0;-0.026367;0.021484;0.004883;3666;3666;1131;0;0;0
2024-11-05_11-13-10.261555;156047;-18.666626;24.1875;0.046667;3.577917;94.0;-0.027344;0.019531;0.011719;4666;4666;1291;0;0;0
2024-11-05_11-13-10.418224;156196;-16.0;24.1875;0.127917;3.597917;95.0;-0.029297;0.018555;0.004883;6000;6000;1430;0;0;0
2024-11-05_11-13-10.684284;156485;-18.666626;24.1875;0.092083;3.577917;99.0;-0.029297;0.021484;0.011719;8000;8000;1711;0;0;0
2024-11-05_11-13-10.887549;156626;-16.0;24.1875;0.045417;3.577917;99.0;-0.02832;0.020508;0.006836;10666;10666;1911;0;0;0
2024-11-05_11-13-11.012511;156764;-16.0;24.1875;0.113333;3.585;101.0;-0.029297;0.022461;0.010742;13333;13333;2040;0;0;0
2024-11-05_11-13-11.200360;156905;-17.333374;24.1875;0.110417;3.58625;103.0;-0.03125;0.020508;0.009766;16000;16000;2211;0;0;0
2024-11-05_11-13-11.372232;157189;-16.0;24.25;0.126667;3.57875;110.0;-0.026367;0.021484;0.008789;21333;21333;2391;0;0;0
2024-11-05_11-13-11.497275;157326;-17.333374;24.25;0.040417;3.585833;110.0;-0.030273;0.020508;0.013672;24000;24000;2521;0;0;0
2024-11-05_11-13-11.669141;157468;-17.333374;24.1875;0.099583;3.580834;116.0;-0.030273;0.019531;0.010742;29333;29333;2680;0;0;0
2024-11-05_11-13-11.809762;157614;-17.333374;24.25;0.085;3.58625;120.0;-0.032227;0.016602;0.005859;32000;32000;2821;0;0;0
2024-11-05_11-13-11.950467;157753;-13.333374;24.25;0.083333;3.58125;124.0;-0.03125;0.019531;0.001953;42666;42666;2977;0;0;0
2024-11-05_11-13-12.122825;157890;-18.666626;24.25;0.082917;3.585;134.0;-0.03125;0.019531;0.0;53333;53333;3139;0;0;0
2024-11-05_11-13-12.264449;158035;-17.333374;24.25;0.07875;3.582916;142.0;-0.033203;0.021484;-0.007812;64000;64000;3291;0;0;0
2024-11-05_11-13-12.436653;158186;-16.0;24.25;0.037083;0.032083;152.0;-0.032227;0.021484;-0.011719;64000;64000;3451;0;0;0
2024-11-05_11-13-12.577283;158335;-17.333374;24.25;0.085833;3.583333;166.0;-0.033203;0.024414;-0.00293;64000;64000;3611;0;0;0
2024-11-05_11-13-12.733678;158487;-18.666626;24.25;0.042083;3.58375;178.0;-0.035156;0.022461;-0.015625;64000;64000;3760;0;0;0
2024-11-05_11-13-12.968057;158775;-21.333374;24.25;0.109583;3.583333;198.0;-0.035156;0.020508;-0.017578;64000;64000;3996;0;0;0
2024-11-05_11-13-13.139896;158914;-30.666626;24.25;0.222917;3.433334;208.0;-0.036133;0.022461;-0.015625;26000;26000;4151;0;0;0
2024-11-05_11-13-13.311893;159056;-32.0;24.25;0.7875;3.601667;206.0;-0.036133;0.020508;-0.018555;7000;7000;4321;0;0;0
2024-11-05_11-13-13.421269;159194;-30.666626;24.25;0.975;3.562917;217.0;-0.037109;0.020508;-0.015625;-50000;-50000;4432;0;0;0
2024-11-05_11-13-13.719793;159472;-13.333374;24.25;0.774167;3.410834;195.0;-0.037109;0.017578;-0.014648;-50000;-50000;4740;0;0;0
2024-11-05_11-13-13.829210;159615;-1.333374;24.25;0.839583;3.405833;190.0;-0.038086;0.018555;-0.017578;-50000;-50000;4850;0;0;0
2024-11-05_11-13-14.001594;159752;8.0;24.25;0.811667;3.4;180.0;-0.038086;0.020508;0.000977;-50000;-50000;5025;0;0;0
2024-11-05_11-13-14.148491;159896;4.0;24.25;0.69875;3.391667;171.0;-0.039062;0.018555;0.000977;-50000;-50000;5170;0;0;0
2024-11-05_11-13-14.316736;160045;-10.666626;24.25;0.628333;3.387917;165.0;-0.039062;0.024414;0.014648;-50000;-50000;5330;0;0;0
2024-11-05_11-13-14.441134;160182;-16.0;24.25;0.572917;3.388333;157.0;-0.038086;0.024414;0.033203;-50000;-50000;5464;0;0;0
2024-11-05_11-13-14.582173;160329;-17.333374;24.25;0.566667;3.372917;144.0;-0.042969;0.026367;0.038086;-50000;-50000;5615;0;0;0
2024-11-05_11-13-14.786214;160609;-22.666626;24.25;0.449167;3.354167;128.0;-0.045898;0.024414;0.06543;-50000;-50000;5811;0;0;0
2024-11-05_11-13-14.927179;160609;-22.666626;24.25;0.449167;3.354167;128.0;-0.045898;0.024414;0.06543;-60000;-60000;5941;0;0;0
2024-11-05_11-13-15.067829;160757;-32.0;24.25;0.43375;3.3575;121.0;-0.047852;0.022461;0.102539;-60000;-60000;6092;0;0;0
2024-11-05_11-13-15.241085;161050;-60.0;24.25;0.062917;3.34625;105.0;-0.045898;0.023438;0.235352;-60000;-60000;6251;0;0;0
2024-11-05_11-13-15.460618;161194;-70.666626;24.25;0.077917;3.348333;93.0;-0.043945;0.025391;0.34082;20000;20000;6490;1;0;0
2024-11-05_11-13-15.677324;161485;-116.0;24.25;0.51125;3.492917;91.0;-0.032227;0.027344;0.532227;20000;20000;6690;1;0;0
2024-11-05_11-13-15.862520;161623;-128.0;24.3125;0.427083;3.561667;93.0;-0.019531;0.025391;0.670898;20000;20000;6891;0;0;0
2024-11-05_11-13-16.050020;161765;-145.333374;24.25;0.242917;3.479167;97.0;-0.013672;0.023438;0.765625;20000;20000;7054;0;0;0
2024-11-05_11-13-16.180938;161902;-168.0;24.3125;0.050833;3.352917;96.0;-0.000977;0.023438;0.913086;20000;20000;7209;0;0;0
2024-11-05_11-13-16.313615;162047;-184.0;24.3125;0.097917;3.350834;95.0;0.005859;0.024414;1.005859;20000;20000;7351;0;0;0
2024-11-05_11-13-16.480432;162195;-202.666626;24.3125;0.03875;3.354584;96.0;0.010742;0.030273;1.12793;20000;20000;7501;0;0;0
2024-11-05_11-13-16.863448;162622;-245.333374;24.3125;0.02125;3.354584;97.0;0.038086;0.025391;1.411133;20000;20000;7869;0;0;0
2024-11-05_11-13-16.963768;162766;-258.666626;24.3125;0.021667;3.354584;99.0;0.042969;0.023438;1.470703;20000;20000;7973;0;0;0
2024-11-05_11-13-17.123610;162906;-262.666626;24.3125;0.021667;3.359584;97.0;0.054688;0.025391;1.532227;0;0;12;0;0;0
2024-11-05_11-13-17.311538;163039;-17.333374;24.3125;0.052083;3.360417;96.0;0.063477;0.029297;1.584961;0;0;218;0;0;0
2024-11-05_11-13-17.420917;163185;-18.666626;24.3125;0.072917;3.366667;96.0;0.064453;0.024414;1.632812;0;0;323;0;0;0
2024-11-05_11-13-17.686537;163464;-25.333374;24.3125;0.083333;3.365;96.0;0.069336;0.021484;1.683594;0;0;595;0;0;0
2024-11-05_11-13-17.764664;163464;-25.333374;24.3125;0.083333;3.365;96.0;0.069336;0.021484;1.683594;0;0;663;0;0;0
2024-11-05_11-13-17.905288;163607;-34.666626;24.3125;0.080417;3.365417;96.0;0.072266;0.027344;1.731445;0;0;813;0;0;0
2024-11-05_11-13-18.045917;163757;-50.666626;24.3125;0.027917;3.365;97.0;0.079102;0.03418;1.755859;0;0;954;0;0;0
2024-11-05_11-13-18.233416;163904;-60.0;24.3125;0.021667;3.365;95.0;0.074219;0.025391;1.776367;0;0;1100;0;0;0
2024-11-05_11-13-18.374504;164192;-45.333374;24.3125;0.021667;3.369167;99.0;0.0625;0.048828;1.733398;0;0;1264;0;0;0
2024-11-05_11-13-18.530755;164327;-30.666626;24.3125;0.021667;3.370417;97.0;0.05957;0.035156;1.693359;0;0;1434;0;0;0
2024-11-05_11-13-18.687319;164464;-34.666626;24.3125;0.021667;3.370417;98.0;0.047852;0.026367;1.734375;0;0;1582;0;0;0
2024-11-05_11-13-18.827943;164604;-21.333374;24.3125;0.021667;3.370417;95.0;0.058594;0.038086;1.71582;0;0;1734;0;0;0
2024-11-05_11-13-19.171694;164882;-25.333374;24.375;0.021667;3.370417;96.0;0.048828;0.033203;1.677734;0;0;2081;0;0;0
2024-11-05_11-13-19.327959;165025;-22.666626;24.375;0.021667;3.375834;94.0;0.052734;0.027344;1.677734;0;0;2204;0;0;0
2024-11-05_11-13-19.452961;165162;-21.333374;24.3125;0.02125;3.375834;97.0;0.047852;0.035156;1.677734;0;0;2343;0;0;0
2024-11-05_11-13-19.702959;165455;-25.333374;24.375;0.02125;3.375834;97.0;0.048828;0.03418;1.680664;0;0;2613;0;0;0
2024-11-05_11-13-19.765462;165592;-32.0;24.375;0.021667;3.375834;96.0;0.044922;0.030273;1.694336;0;0;2663;0;0;0
2024-11-05_11-13-19.937336;165737;-30.666626;24.375;0.021667;3.375834;97.0;0.046875;0.032227;1.700195;0;0;2831;0;0;0
2024-11-05_11-13-20.093585;165882;-36.0;24.375;0.02125;3.380833;93.0;0.044922;0.025391;1.728516;0;0;2991;0;0;0
2024-11-05_11-13-20.234243;166025;-36.0;24.375;0.021667;3.38125;96.0;0.049805;0.029297;1.750977;0;0;3131;0;0;0
2024-11-05_11-13-20.421798;166164;-50.666626;24.375;0.021667;3.38125;97.0;0.050781;0.025391;1.772461;0;0;3310;0;0;0
2024-11-05_11-13-20.578049;166305;-42.666626;24.375;0.02125;3.38125;97.0;0.047852;0.016602;1.779297;0;0;3480;0;0;0
2024-11-05_11-13-20.703048;166445;-53.333374;24.375;0.021667;3.380833;95.0;0.053711;0.026367;1.830078;0;0;3604;0;0;0
2024-11-05_11-13-20.859300;166581;-64.0;24.375;0.021667;3.380833;95.0;0.052734;0.022461;1.856445;0;0;3764;0;0;0
2024-11-05_11-13-21.234300;167016;-70.666626;24.375;0.021667;3.38125;97.0;0.048828;0.023438;1.891602;0;0;4138;0;0;0
2024-11-05_11-13-21.343956;167169;-70.666626;24.375;0.021667;3.383334;98.0;0.058594;0.024414;1.896484;0;0;4243;0;0;0
2024-11-05_11-13-21.484583;167317;-70.666626;24.375;0.021667;3.38625;96.0;0.048828;0.022461;1.879883;0;0;4391;0;0;0
2024-11-05_11-13-21.640833;167462;-64.0;24.375;0.021667;3.38625;95.0;0.048828;0.008789;1.881836;0;0;4544;0;0;0
2024-11-05_11-13-21.812707;167605;-58.666626;24.375;0.02125;3.386667;96.0;0.050781;0.003906;1.859375;0;0;4694;0;0;0
2024-11-05_11-13-21.984582;167744;-50.666626;24.4375;0.021667;3.38625;97.0;0.043945;0.010742;1.841797;0;0;4893;0;0;0
2024-11-05_11-13-22.218958;168022;-53.333374;24.375;0.021667;3.38625;96.0;0.039062;0.016602;1.8125;0;0;5113;0;0;0
2024-11-05_11-13-22.281459;168022;-53.333374;24.375;0.021667;3.38625;96.0;0.039062;0.016602;1.8125;0;0;5177;0;0;0
2024-11-05_11-13-22.422509;168165;-48.0;24.4375;0.021667;3.38625;95.0;0.037109;0.019531;1.799805;0;0;5323;0;0;0
2024-11-05_11-13-22.578755;168302;-49.333374;24.4375;0.021667;3.387917;98.0;0.03418;0.018555;1.785156;0;0;5481;0;0;0
2024-11-05_11-13-22.750634;168447;-38.666626;24.4375;0.021667;3.391667;97.0;0.03418;0.017578;1.77832;0;0;5641;0;0;0
2024-11-05_11-13-22.906881;168595;-38.666626;24.4375;0.021667;3.391667;96.0;0.029297;0.011719;1.769531;0;0;5793;0;0;0
2024-11-05_11-13-23.125631;168877;-38.666626;24.4375;0.021667;3.391667;94.0;0.027344;0.008789;1.754883;0;0;6023;0;0;0
2024-11-05_11-13-23.203760;169022;-36.0;24.4375;0.021667;3.391667;97.0;0.025391;0.011719;1.760742;0;0;6104;0;0;0
2024-11-05_11-13-23.360084;169165;-36.0;24.4375;0.02125;3.391667;97.0;0.025391;0.015625;1.755859;0;0;6264;0;0;0
2024-11-05_11-13-23.516344;169304;-38.666626;24.4375;0.021667;3.392083;99.0;0.024414;0.026367;1.764648;0;0;6414;0;0;0
2024-11-05_11-13-23.672596;169445;-48.0;24.4375;3.392083;3.391667;96.0;0.021484;0.03125;1.763672;0;0;6573;0;0;0
2024-11-05_11-13-23.828856;169585;-40.0;24.4375;0.021667;3.392083;99.0;0.019531;0.032227;1.775391;0;0;6726;0;0;0
2024-11-05_11-13-24.000721;169726;-50.666626;24.4375;0.021667;3.391667;97.0;0.018555;0.03125;1.78418;0;0;6894;0;0;0
2024-11-05_11-13-24.156971;169875;-50.666626;24.4375;3.391667;3.39375;97.0;0.019531;0.030273;1.794922;0;0;7047;0;0;0
2024-11-05_11-13-24.313222;170008;-57.333374;24.4375;0.021667;3.400417;95.0;0.017578;0.029297;1.803711;0;0;7207;0;0;0
2024-11-05_11-13-24.454102;170157;-50.666626;24.4375;0.021667;3.400417;97.0;0.020508;0.027344;1.822266;0;0;7363;0;0;0
2024-11-05_11-13-24.625978;170453;-58.666626;24.4375;0.02125;3.4;98.0;0.020508;0.027344;1.84668;0;0;7521;0;0;0
2024-11-05_11-13-24.766602;170586;-58.666626;24.4375;0.021667;3.400417;95.0;0.020508;0.02832;1.860352;0;0;7664;0;0;0
2024-11-05_11-13-24.922852;170732;-57.333374;24.5;0.02125;3.400417;98.0;0.019531;0.020508;1.863281;0;0;7824;0;0;0
2024-11-05_11-13-25.063476;170877;-57.333374;24.5;0.021667;3.400417;97.0;0.021484;0.019531;1.868164;0;0;7973;0;0;0
2024-11-05_11-13-25.266603;171025;-57.333374;24.5;0.02125;3.400417;99.0;0.020508;0.023438;1.882812;0;0;8143;0;0;0
2024-11-05_11-13-25.407308;171163;-58.666626;24.5;0.021667;3.400417;98.0;0.017578;0.021484;1.87207;0;0;8300;0;0;0
2024-11-05_11-13-25.563564;171306;-62.666626;24.5;0.021667;3.400417;96.0;0.016602;0.017578;1.867188;0;0;8463;0;0;0
2024-11-05_11-13-25.704185;171455;-58.666626;24.5;0.021667;3.400417;95.0;0.014648;0.019531;1.861328;0;0;8604;0;0;0
2024-11-05_11-13-25.860437;171594;-60.0;24.5;0.021667;3.4;98.0;0.014648;0.012695;1.858398;0;0;8764;0;0;0
2024-11-05_11-13-26.032311;171735;-58.666626;24.5;0.02125;3.400417;97.0;0.013672;0.014648;1.849609;0;0;8912;0;0;0
2024-11-05_11-13-26.172934;171874;-58.666626;24.5;0.021667;3.40125;100.0;0.012695;0.015625;1.851562;0;0;9071;0;0;0
2024-11-05_11-13-26.329188;172154;-57.333374;24.5;0.021667;3.40375;97.0;0.007812;0.020508;1.848633;0;0;9234;0;0;0
2024-11-05_11-13-26.689172;172432;-53.333374;24.5;0.02125;3.405833;96.0;0.006836;0.015625;1.844727;0;0;9577;0;0;0
2024-11-05_11-13-26.798549;172575;-53.333374;24.5;0.021667;3.405833;97.0;0.007812;0.021484;1.854492;0;0;9693;0;0;0
2024-11-05_11-13-26.954802;172704;-53.333374;24.5625;3.405833;3.405833;98.0;0.001953;0.022461;1.832031;0;0;9854;0;0;0
2024-11-05_11-13-27.126676;172832;-50.666626;24.5625;0.021667;3.405833;96.0;0.00293;0.020508;1.804688;0;0;10023;0;0;0
2024-11-05_11-13-27.282926;172966;-38.666626;24.5625;0.02125;3.405833;99.0;-0.003906;0.017578;1.768555;0;0;10164;0;0;0
2024-11-05_11-13-27.423907;173246;-22.666626;24.5625;0.021667;3.405417;99.0;-0.013672;0.021484;1.682617;0;0;10324;0;0;0
2024-11-05_11-13-27.580167;173398;-17.333374;24.5625;0.021667;3.405833;96.0;-0.014648;0.020508;1.637695;0;0;10484;0;0;0
2024-11-05_11-13-27.736414;173538;-16.0;24.5625;0.021667;3.405833;96.0;-0.027344;0.023438;1.582031;0;0;10633;0;0;0
2024-11-05_11-13-27.908288;173673;-1.333374;24.5625;0.021667;3.405833;96.0;-0.027344;0.019531;1.548828;0;0;10792;0;0;0
2024-11-05_11-13-28.048915;173816;8.0;24.5625;0.021667;3.405417;96.0;-0.03125;0.011719;1.506836;0;0;10954;0;0;0
2024-11-05_11-13-28.205166;173954;14.666626;24.5625;0.021667;3.406667;98.0;-0.039062;0.016602;1.445312;0;0;11102;0;0;0
2024-11-05_11-13-28.361415;174095;12.0;24.5625;0.021667;3.40875;97.0;-0.037109;0.017578;1.427734;0;0;11263;0;0;0
2024-11-05_11-13-28.517930;174232;14.666626;24.5625;0.021667;3.409583;99.0;-0.046875;0.014648;1.415039;0;0;11422;0;0;0
2024-11-05_11-13-28.689807;174376;12.0;24.5625;0.021667;3.409167;96.0;-0.042969;0.020508;1.423828;0;0;11582;0;0;0
2024-11-05_11-13-28.846057;174664;16.0;24.5625;0.02125;3.410834;96.0;-0.044922;0.019531;1.413086;0;0;11734;0;0;0
2024-11-05_11-13-28.986679;174805;10.666626;24.5625;0.02125;3.41125;98.0;-0.045898;0.021484;1.420898;0;0;11885;0;0;0
2024-11-05_11-13-29.142930;174945;14.666626;24.625;0.02125;3.41125;98.0;-0.043945;0.024414;1.439453;0;0;12043;0;0;0
2024-11-05_11-13-29.299180;175085;8.0;24.5625;0.021667;3.410834;96.0;-0.046875;0.024414;1.425781;0;0;12202;0;0;0
2024-11-05_11-13-29.455893;175224;12.0;24.625;0.02125;3.41125;96.0;-0.043945;0.022461;1.453125;0;0;12354;0;0;0
2024-11-05_11-13-29.612154;175365;8.0;24.625;0.02125;3.410834;96.0;-0.044922;0.02832;1.459961;0;0;12514;0;0;0
2024-11-05_11-13-29.752777;175504;5.333374;24.5625;0.021667;3.410834;94.0;-0.045898;0.022461;1.454102;0;0;12657;0;0;0
2024-11-05_11-13-29.909027;175648;4.0;24.625;0.021667;0.021667;97.0;-0.041016;0.020508;1.46582;0;0;12814;0;0;0
2024-11-05_11-13-30.080902;175798;8.0;24.625;0.02125;3.41125;95.0;-0.042969;0.019531;1.472656;0;0;12974;0;0;0
2024-11-05_11-13-30.331302;176083;8.0;24.625;0.021667;3.41125;97.0;-0.045898;0.016602;1.457031;0;0;13231;0;0;0
2024-11-05_11-13-30.393802;176212;12.0;24.625;0.021667;3.41125;97.0;-0.048828;0.017578;1.443359;0;0;13291;0;0;0
2024-11-05_11-13-30.550432;176345;5.333374;24.625;0.02125;3.41125;96.0;-0.048828;0.020508;1.449219;0;0;13453;0;0;0
2024-11-05_11-13-30.706688;176489;10.666626;24.625;0.021667;3.41125;97.0;-0.049805;0.021484;1.44043;0;0;13613;0;0;0
2024-11-05_11-13-31.034808;176785;12.0;24.625;3.410834;3.41125;98.0;-0.055664;0.021484;1.417969;0;0;13943;0;0;0
2024-11-05_11-13-31.175435;176915;17.333374;24.625;0.021667;3.41125;97.0;-0.053711;0.019531;1.431641;0;0;14074;0;0;0
2024-11-05_11-13-31.331693;177052;14.666626;24.625;0.02125;3.41125;95.0;-0.051758;0.023438;1.425781;0;0;14234;0;0;0
2024-11-05_11-13-31.503885;177195;8.0;24.625;0.02125;3.410834;98.0;-0.051758;0.015625;1.419922;0;0;14393;0;0;0
2024-11-05_11-13-31.628883;177334;8.0;24.625;0.021667;3.410834;97.0;-0.052734;0.023438;1.412109;0;0;14535;0;0;0
2024-11-05_11-13-31.832007;177614;10.666626;24.6875;0.02125;3.410834;96.0;-0.055664;0.027344;1.413086;0;0;14722;0;0;0
2024-11-05_11-13-31.972632;177755;10.666626;24.6875;0.021667;3.41125;97.0;-0.055664;0.021484;1.415039;0;0;14872;0;0;0
2024-11-05_11-13-32.300762;178042;14.666626;24.625;0.021667;3.410834;94.0;-0.051758;0.024414;1.429688;0;0;15201;0;0;0
2024-11-05_11-13-32.425768;178185;14.666626;24.6875;0.021667;3.41125;96.0;-0.057617;0.025391;1.420898;0;0;15324;0;0;0
2024-11-05_11-13-32.613313;178324;14.666626;24.6875;0.021667;3.41125;97.0;-0.055664;0.024414;1.412109;0;0;15484;0;0;0
2024-11-05_11-13-32.753941;178465;17.333374;24.6875;0.021667;3.41125;96.0;-0.053711;0.02832;1.408203;0;0;15642;0;0;0
2024-11-05_11-13-32.910197;178604;17.333374;24.6875;0.021667;3.41125;95.0;-0.057617;0.03125;1.391602;0;0;15802;0;0;0
2024-11-05_11-13-33.050816;178745;17.333374;24.6875;0.02125;3.41125;96.0;-0.0625;0.027344;1.378906;0;0;15954;0;0;0
2024-11-05_11-13-33.207065;179038;30.666626;24.6875;0.02125;3.410834;97.0;-0.063477;0.030273;1.331055;0;0;16114;0;0;0
2024-11-05_11-13-33.363314;179186;38.666626;24.6875;0.021667;3.41125;95.0;-0.068359;0.026367;1.308594;0;0;16264;0;0;0
2024-11-05_11-13-33.519642;179336;37.333374;24.6875;0.02125;3.41125;95.0;-0.069336;0.023438;1.28125;0;0;16424;0;0;0
2024-11-05_11-13-33.691525;179484;38.666626;24.6875;0.021667;3.41125;94.0;-0.066406;0.023438;1.269531;0;0;16593;0;0;0
2024-11-05_11-13-33.816524;179634;44.0;24.6875;0.021667;3.410834;95.0;-0.070312;0.020508;1.260742;0;0;16721;0;0;0
2024-11-05_11-13-34.035275;179763;46.666626;24.75;0.021667;3.41125;97.0;-0.073242;0.020508;1.253906;0;0;16924;0;0;0
2024-11-05_11-13-34.185401;179895;44.0;24.75;0.021667;3.41125;97.0;-0.072266;0.022461;1.251953;0;0;17072;0;0;0
2024-11-05_11-13-34.316544;180034;45.333374;24.75;0.02125;3.41125;94.0;-0.072266;0.012695;1.264648;0;0;17214;0;0;0
2024-11-05_11-13-34.457164;180175;38.666626;24.6875;0.021667;3.41125;97.0;-0.069336;0.011719;1.279297;0;0;17352;0;0;0
2024-11-05_11-13-34.613520;180314;41.333374;24.6875;0.021667;3.41125;95.0;-0.068359;0.023438;1.289062;0;0;17511;0;0;0
2024-11-05_11-13-34.918066;180735;18.666626;24.75;0.02125;3.41125;96.0;-0.068359;0.029297;1.369141;0;0;17804;0;0;0
2024-11-05_11-13-35.118210;180872;21.333374;24.75;0.021667;3.410834;98.0;-0.066406;0.03418;1.37793;0;0;17996;0;0;0
2024-11-05_11-13-35.267864;181018;16.0;24.75;0.02125;3.410834;97.0;-0.067383;0.025391;1.378906;0;0;18161;0;0;0
2024-11-05_11-13-35.401862;181165;17.333374;24.75;0.021667;3.41125;96.0;-0.067383;0.026367;1.391602;0;0;18304;0;0;0
2024-11-05_11-13-35.563716;181302;16.0;24.75;0.021667;3.41125;97.0;-0.068359;0.020508;1.375;0;0;18464;0;0;0
2024-11-05_11-13-35.751219;181447;18.666626;24.75;0.021667;3.410834;92.0;-0.061523;0.019531;1.390625;0;0;18651;0;0;0
2024-11-05_11-13-35.969972;181732;14.666626;24.75;0.021667;3.41125;95.0;-0.061523;0.014648;1.423828;0;0;18864;0;0;0
2024-11-05_11-13-36.048095;181883;21.333374;24.75;0.02125;3.410834;96.0;-0.05957;0.015625;1.399414;0;0;18954;0;0;0
2024-11-05_11-13-36.235602;182022;30.666626;24.8125;0.02125;3.410834;94.0;-0.064453;0.013672;1.354492;0;0;19125;0;0;0
2024-11-05_11-13-36.329349;182153;21.333374;24.75;0.021667;3.410834;96.0;-0.063477;0.019531;1.336914;0;0;19236;0;0;0
2024-11-05_11-13-36.532472;182289;30.666626;24.75;0.02125;3.410834;96.0;-0.06543;0.021484;1.310547;0;0;19424;0;0;0
2024-11-05_11-13-36.673190;182440;38.666626;24.75;0.021667;3.41125;97.0;-0.073242;0.013672;1.299805;0;0;19574;0;0;0
2024-11-05_11-13-36.813816;182585;44.0;24.8125;0.021667;3.41125;95.0;-0.072266;0.018555;1.258789;0;0;19714;0;0;0
2024-11-05_11-13-36.970062;182739;49.333252;24.8125;0.021667;3.41125;97.0;-0.075195;0.024414;1.246094;0;0;19864;0;0;0
2024-11-05_11-13-37.126319;182874;54.666748;24.8125;3.41125;3.410834;96.0;-0.079102;0.017578;1.213867;0;0;20022;0;0;0
2024-11-05_11-13-37.282565;183012;60.0;24.8125;0.021667;3.41125;96.0;-0.080078;0.020508;1.172852;0;0;20183;0;0;0
2024-11-05_11-13-37.567995;183293;58.666748;24.8125;0.021667;3.410834;95.0;-0.082031;0.023438;1.15625;0;0;20452;0;0;0
2024-11-05_11-13-37.751514;183574;58.666748;24.8125;0.021667;3.410834;98.0;-0.080078;0.033203;1.152344;0;0;20654;0;0;0
2024-11-05_11-13-37.907763;183715;62.666748;24.8125;0.021667;3.41125;96.0;-0.080078;0.036133;1.151367;0;0;20814;0;0;0
2024-11-05_11-13-38.204637;183995;54.666748;24.8125;0.021667;3.41125;96.0;-0.083984;0.033203;1.179688;0;0;21110;0;0;0
2024-11-05_11-13-38.376514;184133;53.333252;24.8125;0.021667;3.41125;97.0;-0.082031;0.026367;1.188477;0;0;21273;0;0;0
2024-11-05_11-13-38.532770;184275;49.333252;24.8125;0.02125;3.41125;95.0;-0.078125;0.026367;1.207031;0;0;21433;0;0;0
2024-11-05_11-13-38.741900;184412;49.333252;24.8125;0.021667;3.41125;95.0;-0.076172;0.026367;1.203125;0;0;21607;0;0;0
2024-11-05_11-13-38.970761;184706;46.666626;24.8125;0.021667;3.41125;94.0;-0.079102;0.016602;1.217773;0;0;21861;0;0;0
2024-11-05_11-13-39.168746;184997;45.333374;24.8125;0.021667;3.410834;98.0;-0.079102;0.021484;1.230469;0;0;22073;0;0;0
2024-11-05_11-13-39.335297;185151;45.333374;24.8125;0.021667;3.41125;94.0;-0.077148;0.017578;1.255859;0;0;22221;0;0;0
2024-11-05_11-13-39.468580;185300;37.333374;24.875;0.021667;3.410834;97.0;-0.073242;0.013672;1.270508;0;0;22374;0;0;0
2024-11-05_11-13-39.618600;185444;38.666626;24.8125;0.021667;3.41125;97.0;-0.074219;0.014648;1.267578;0;0;22514;0;0;0
2024-11-05_11-13-39.926994;185737;41.333374;24.8125;0.021667;3.41125;97.0;-0.071289;0.019531;1.28125;0;0;22805;0;0;0
2024-11-05_11-13-39.984018;185737;41.333374;24.8125;0.021667;3.41125;97.0;-0.071289;0.019531;1.28125;0;0;22888;0;0;0
2024-11-05_11-13-40.093495;185873;45.333374;24.875;0.021667;3.41125;96.0;-0.075195;0.023438;1.264648;0;0;22992;0;0;0
2024-11-05_11-13-40.265398;186017;44.0;24.875;0.02125;3.41125;96.0;-0.080078;0.015625;1.242188;0;0;23163;0;0;0
2024-11-05_11-13-40.405945;186165;48.0;24.875;0.021667;3.41125;95.0;-0.075195;0.026367;1.25293;0;0;23304;0;0;0
2024-11-05_11-13-40.562278;186302;45.333374;24.875;0.021667;3.410834;97.0;-0.077148;0.02832;1.256836;0;0;23464;0;0;0
2024-11-05_11-13-40.734339;186447;45.333374;24.875;0.021667;3.41125;98.0;-0.082031;0.032227;1.232422;0;0;23624;0;0;0
2024-11-05_11-13-40.875015;186592;45.333374;24.875;0.021667;3.410834;97.0;-0.078125;0.02832;1.239258;0;0;23774;0;0;0
2024-11-05_11-13-41.046891;186874;48.0;24.875;0.021667;3.41125;96.0;-0.081055;0.023438;1.216797;0;0;23935;0;0;0
2024-11-05_11-13-41.171897;187016;48.0;24.875;0.021667;3.410834;97.0;-0.079102;0.021484;1.226562;0;0;24084;0;0;0
2024-11-05_11-13-41.359392;187154;45.333374;24.875;0.021667;3.41125;98.0;-0.078125;0.02832;1.25293;0;0;24251;0;0;0
2024-11-05_11-13-41.531266;187295;37.333374;24.875;0.021667;3.41125;95.0;-0.077148;0.023438;1.262695;0;0;24412;0;0;0
2024-11-05_11-13-41.656735;187434;38.666626;24.875;0.02125;3.41125;99.0;-0.074219;0.018555;1.290039;0;0;24554;0;0;0
2024-11-05_11-13-41.813056;187575;34.666626;24.875;0.021667;3.41125;95.0;-0.074219;0.016602;1.327148;0;0;24714;0;0;0
2024-11-05_11-13-41.969299;187714;28.0;24.875;0.021667;3.41125;95.0;-0.071289;0.021484;1.345703;0;0;24869;0;0;0
2024-11-05_11-13-42.141098;187858;28.0;24.875;0.021667;3.41125;98.0;-0.069336;0.016602;1.353516;0;0;25027;0;0;0
2024-11-05_11-13-42.422345;188154;28.0;24.875;0.021667;3.410834;95.0;-0.074219;0.018555;1.355469;0;0;25320;0;0;0
2024-11-05_11-13-42.609902;188430;32.0;24.875;0.021667;3.41125;99.0;-0.070312;0.024414;1.348633;0;0;25500;0;0;0
2024-11-05_11-13-42.751050;188582;34.666626;24.875;0.02125;3.41125;94.0;-0.075195;0.019531;1.320312;0;0;25654;0;0;0
2024-11-05_11-13-42.907371;188728;44.0;24.875;0.02125;3.41125;97.0;-0.070312;0.02832;1.30957;0;0;25804;0;0;0
2024-11-05_11-13-43.329228;189158;48.0;24.9375;0.02125;3.410834;95.0;-0.080078;0.022461;1.229492;0;0;26223;0;0;0
2024-11-05_11-13-43.438544;189158;48.0;24.9375;0.02125;3.410834;95.0;-0.080078;0.022461;1.229492;0;0;26334;0;0;0
2024-11-05_11-13-43.532362;189295;49.333252;24.9375;0.021667;3.41125;98.0;-0.080078;0.020508;1.211914;0;0;26434;0;0;0
2024-11-05_11-13-43.720296;189435;49.333252;24.9375;0.021667;3.41125;97.0;-0.081055;0.024414;1.197266;0;0;26591;0;0;0
2024-11-05_11-13-43.860939;189573;50.666748;24.9375;0.021667;3.410834;97.0;-0.082031;0.029297;1.181641;0;0;26756;0;0;0
2024-11-05_11-13-44.001505;189726;53.333252;24.9375;0.021667;3.410834;99.0;-0.080078;0.015625;1.180664;0;0;26904;0;0;0
2024-11-05_11-13-44.157813;189878;50.666748;24.9375;0.021667;3.41125;96.0;-0.082031;0.022461;1.169922;0;0;27054;0;0;0
2024-11-05_11-13-44.345313;190162;65.333252;24.9375;0.021667;3.410834;95.0;-0.081055;0.025391;1.157227;0;0;27238;0;0;0
2024-11-05_11-13-44.470341;190306;57.333252;24.9375;0.021667;3.41125;97.0;-0.085938;0.021484;1.149414;0;0;27374;0;0;0
2024-11-05_11-13-44.642141;190458;64.0;24.9375;0.02125;3.41125;96.0;-0.082031;0.02832;1.149414;0;0;27544;0;0;0
2024-11-05_11-13-44.783114;190598;60.0;24.9375;0.02125;3.410834;98.0;-0.082031;0.020508;1.149414;0;0;27676;0;0;0
2024-11-05_11-13-44.955281;190734;54.666748;24.9375;0.02125;3.41125;96.0;-0.082031;0.027344;1.171875;0;0;27848;0;0;0
2024-11-05_11-13-45.095951;190866;54.666748;24.9375;0.021667;3.41125;97.0;-0.083984;0.025391;1.158203;0;0;27994;0;0;0
2024-11-05_11-13-45.252182;191002;53.333252;24.9375;0.02125;3.41125;96.0;-0.083008;0.027344;1.158203;0;0;28154;0;0;0
2024-11-05_11-13-45.424030;191146;54.666748;24.9375;0.021667;3.41125;95.0;-0.080078;0.022461;1.165039;0;0;28324;0;0;0
2024-11-05_11-13-45.564674;191292;50.666748;24.9375;0.021667;3.410834;97.0;-0.082031;0.023438;1.173828;0;0;28464;0;0;0
2024-11-05_11-13-45.721160;191436;50.666748;25.0;0.02125;3.41125;98.0;-0.081055;0.027344;1.180664;0;0;28615;0;0;0
2024-11-05_11-13-45.908747;191590;49.333252;25.0;0.021667;3.41125;99.0;-0.082031;0.026367;1.192383;0;0;28803;0;0;0
2024-11-05_11-13-46.033660;191736;50.666748;25.0;0.02125;3.410834;94.0;-0.082031;0.020508;1.199219;0;0;28928;0;0;0
2024-11-05_11-13-46.205587;192027;50.666748;25.0;0.021667;3.41125;96.0;-0.076172;0.019531;1.203125;0;0;29095;0;0;0
2024-11-05_11-13-46.439960;192181;49.333252;25.0;0.02125;3.41125;97.0;-0.080078;0.020508;1.200195;0;0;29334;0;0;0
2024-11-05_11-13-46.518543;192322;45.333374;25.0;3.41125;3.410834;96.0;-0.080078;0.022461;1.214844;0;0;29414;0;0;0
2024-11-05_11-13-46.722233;192472;45.333374;25.0;0.021667;3.41125;97.0;-0.076172;0.021484;1.229492;0;0;29626;0;0;0
2024-11-05_11-13-46.815981;192618;44.0;25.0;0.021667;3.41125;95.0;-0.078125;0.021484;1.231445;0;0;29712;0;0;0
2024-11-05_11-13-46.956659;192756;46.666626;24.9375;3.41125;3.410834;98.0;-0.075195;0.025391;1.253906;0;0;29863;0;0;0
2024-11-05_11-13-47.112853;192885;46.666626;25.0;0.021667;3.41125;95.0;-0.072266;0.025391;1.265625;0;0;30014;0;0;0
2024-11-05_11-13-47.253560;193038;37.333374;25.0;0.021667;3.41125;97.0;-0.076172;0.024414;1.260742;0;0;30164;0;0;0
2024-11-05_11-13-47.440980;193178;38.666626;25.0;0.02125;3.41125;96.0;-0.068359;0.021484;1.264648;0;0;30334;0;0;0
2024-11-05_11-13-47.581685;193325;44.0;25.0;0.021667;3.410834;97.0;-0.070312;0.025391;1.261719;0;0;30484;0;0;0
2024-11-05_11-13-47.738432;193463;45.333374;25.0;0.02125;3.410417;97.0;-0.072266;0.022461;1.255859;0;0;30643;0;0;0
2024-11-05_11-13-47.941481;193753;49.333252;25.0;3.410417;3.41125;97.0;-0.069336;0.020508;1.241211;0;0;30823;0;0;0
2024-11-05_11-13-48.097731;193895;46.666626;25.0;0.02125;3.407917;96.0;-0.069336;0.017578;1.237305;0;0;30988;0;0;0
2024-11-05_11-13-48.222729;194033;41.333374;25.0;0.02125;3.409167;94.0;-0.06543;0.021484;1.238281;0;0;31109;0;0;0
2024-11-05_11-13-48.379070;194178;49.333252;25.0;0.02125;3.409583;97.0;-0.063477;0.019531;1.241211;0;0;31283;0;0;0
2024-11-05_11-13-48.519613;194329;45.333374;25.0;0.021667;3.41125;97.0;-0.0625;0.018555;1.251953;0;0;31424;0;0;0
2024-11-05_11-13-48.739047;194479;50.666748;25.0;0.021667;3.405833;95.0;-0.063477;0.020508;1.242188;0;0;31633;0;0;0
2024-11-05_11-13-48.848523;194617;48.0;25.0;0.021667;3.405833;100.0;-0.057617;0.021484;1.245117;0;0;31754;0;0;0
2024-11-05_11-13-49.082934;194915;44.0;25.0;0.021667;3.407084;97.0;-0.056641;0.020508;1.259766;0;0;31983;0;0;0
2024-11-05_11-13-49.254802;195060;44.0;25.0;0.021667;3.405417;97.0;-0.049805;0.025391;1.257812;0;0;32151;0;0;0
2024-11-05_11-13-49.301596;195060;44.0;25.0;0.021667;3.405417;97.0;-0.049805;0.025391;1.257812;0;0;32206;0;0;0
2024-11-05_11-13-49.457928;195198;38.666626;25.0;0.021667;3.405833;96.0;-0.045898;0.030273;1.280273;0;0;32364;0;0;0
2024-11-05_11-13-49.614530;195350;34.666626;25.0;0.02125;3.405417;97.0;-0.043945;0.032227;1.291992;0;0;32513;0;0;0
2024-11-05_11-13-49.787047;195496;32.0;25.0;0.021667;3.405417;94.0;-0.040039;0.021484;1.285156;0;0;32687;0;0;0
2024-11-05_11-13-49.943259;195651;37.333374;25.0;0.02125;3.405417;96.0;-0.032227;0.024414;1.287109;0;0;32834;0;0;0
2024-11-05_11-13-50.083912;195798;37.333374;25.0625;0.021667;3.405833;97.0;-0.026367;0.020508;1.296875;0;0;32993;0;0;0
2024-11-05_11-13-50.240140;195947;37.333374;25.0;0.021667;3.405833;97.0;-0.015625;0.017578;1.296875;0;0;33143;0;0;0
2024-11-05_11-13-50.380965;196225;36.0;25.0;0.02125;3.405833;94.0;-0.008789;0.016602;1.279297;0;0;33288;0;0;0
2024-11-05_11-13-50.568462;196365;44.0;25.0;0.021667;3.405833;98.0;-0.00293;0.023438;1.277344;0;0;33462;0;0;0
2024-11-05_11-13-50.724688;196505;44.0;25.0;0.02125;3.405833;96.0;0.000977;0.015625;1.248047;0;0;33622;0;0;0
2024-11-05_11-13-50.881289;196644;46.666626;25.0;0.021667;3.405833;97.0;0.003906;0.024414;1.22168;0;0;33782;0;0;0
2024-11-05_11-13-51.022194;196785;50.666748;25.0;0.021667;3.405833;99.0;0.001953;0.019531;1.192383;0;0;33924;0;0;0
2024-11-05_11-13-51.162821;196922;50.666748;25.0625;0.021667;3.405833;96.0;0.001953;0.024414;1.161133;0;0;34073;0;0;0
2024-11-05_11-13-51.350324;197067;57.333252;25.0625;0.021667;3.405833;96.0;-0.001953;0.020508;1.135742;0;0;34234;0;0;0
2024-11-05_11-13-51.522203;197212;68.0;25.0625;0.021667;3.405833;99.0;-0.004883;0.02832;1.110352;0;0;34395;0;0;0
2024-11-05_11-13-51.640654;197356;62.666748;25.0625;0.021667;3.405833;97.0;-0.005859;0.024414;1.087891;0;0;34534;0;0;0
2024-11-05_11-13-51.909002;197635;73.333252;25.0625;0.021667;3.405833;97.0;-0.008789;0.03125;1.05957;0;0;34807;0;0;0
2024-11-05_11-13-51.956088;197775;73.333252;25.0625;0.02125;3.405417;97.0;-0.010742;0.03125;1.049805;0;0;34863;0;0;0
2024-11-05_11-13-52.127966;197912;78.666748;25.0625;0.021667;3.405833;97.0;-0.008789;0.032227;1.037109;0;0;35024;0;0;0
2024-11-05_11-13-52.268760;198055;73.333252;25.0625;0.02125;3.405417;96.0;-0.008789;0.026367;1.040039;0;0;35174;0;0;0
2024-11-05_11-13-52.440642;198201;78.666748;25.0625;0.021667;3.405833;97.0;-0.009766;0.026367;1.037109;0;0;35344;0;0;0
2024-11-05_11-13-52.659386;198352;73.333252;25.0625;0.021667;3.405833;96.0;-0.006836;0.021484;1.032227;0;0;35542;0;0;0
2024-11-05_11-13-52.737490;198498;70.666748;25.0625;0.021667;3.405833;99.0;-0.004883;0.02832;1.029297;0;0;35648;0;0;0
2024-11-05_11-13-52.878644;198644;70.666748;25.0625;0.021667;3.405833;97.0;-0.009766;0.021484;1.037109;0;0;35784;0;0;0
2024-11-05_11-13-53.269280;199066;73.333252;25.0625;0.021667;3.405833;96.0;-0.006836;0.024414;1.041992;0;0;36161;0;0;0
2024-11-05_11-13-53.585800;199345;78.666748;25.0625;0.021667;3.405417;97.0;-0.008789;0.023438;1.023438;0;0;36484;0;0;0
2024-11-05_11-13-53.682987;199493;80.0;25.0625;0.065417;3.23;95.0;-0.004883;0.017578;1.010742;0;0;36593;0;0;0
2024-11-05_11-13-53.949233;199632;82.666748;25.0625;0.212917;3.252917;98.0;-0.007812;0.023438;1.003906;0;0;36814;0;0;0
2024-11-05_11-13-54.027277;199775;81.333252;25.0625;0.254583;3.242083;97.0;-0.004883;0.025391;1.001953;0;0;36914;0;0;0
2024-11-05_11-13-54.165733;199914;85.333252;25.0625;0.272917;3.235;97.0;-0.008789;0.024414;0.991211;0;0;37062;0;0;0
2024-11-05_11-13-54.498946;200335;81.333252;25.0625;0.274167;3.204583;94.0;-0.012695;0.021484;0.987305;0;0;37405;0;0;0
2024-11-05_11-13-54.632363;200472;78.666748;25.0625;0.272917;3.194167;97.0;-0.016602;0.023438;0.984375;0;0;37543;0;0;0
2024-11-05_11-13-54.849829;200617;76.0;25.0625;0.272917;3.18375;93.0;-0.019531;0.025391;0.995117;0;0;37763;0;0;0
2024-11-05_11-13-54.964631;200765;78.666748;25.125;0.2675;3.172917;96.0;-0.014648;0.025391;1.011719;0;0;37873;0;0;0
2024-11-05_11-13-55.152130;200902;73.333252;25.125;0.338333;3.162083;98.0;-0.016602;0.025391;1.021484;0;0;38039;0;0;0
2024-11-05_11-13-55.292683;201047;78.666748;25.0625;0.58375;3.15125;96.0;-0.016602;0.020508;1.027344;0;0;38193;0;0;0
2024-11-05_11-13-55.464547;201195;69.333252;25.125;0.686667;3.145833;97.0;-0.014648;0.023438;1.048828;0;0;38364;0;0;0
2024-11-05_11-13-55.605177;201331;70.666748;25.125;0.756667;3.140417;97.0;-0.013672;0.019531;1.046875;0;0;38504;0;0;0
2024-11-05_11-13-55.761503;201471;73.333252;25.0625;0.815;3.135417;96.0;-0.014648;0.024414;1.047852;0;0;38664;0;0;0
2024-11-05_11-13-56.011868;201759;78.666748;25.125;0.903333;3.124583;97.0;-0.015625;0.023438;1.033203;0;0;38914;0;0;0
2024-11-05_11-13-56.058827;201895;80.0;25.125;0.933333;3.124583;97.0;-0.015625;0.029297;1.037109;0;0;38973;0;0;0
2024-11-05_11-13-56.230619;202040;81.333252;25.0625;0.96;3.119167;97.0;-0.013672;0.024414;1.032227;0;0;39129;0;0;0
2024-11-05_11-13-56.558824;202325;85.333252;25.0625;0.984583;3.119167;96.0;-0.012695;0.024414;1.019531;0;0;39458;0;0;0
2024-11-05_11-13-56.699369;202464;81.333252;25.125;0.99;3.119167;97.0;-0.015625;0.030273;1.001953;0;0;39603;0;0;0
2024-11-05_11-13-56.840357;202605;80.0;25.125;0.99;3.119167;97.0;-0.015625;0.024414;0.991211;0;0;39754;0;0;0
2024-11-05_11-13-57.012361;202745;85.333252;25.125;0.952083;3.121667;101.0;-0.016602;0.030273;0.988281;0;0;39914;0;0;0
2024-11-05_11-13-57.168772;202884;82.666748;25.125;0.811667;3.124583;94.0;-0.013672;0.029297;0.991211;0;0;40076;0;0;0
2024-11-05_11-13-57.325085;203026;82.666748;25.125;0.694583;3.124583;96.0;-0.017578;0.02832;0.97168;0;0;40224;0;0;0
2024-11-05_11-13-57.606369;203315;88.0;25.125;0.502083;3.124583;97.0;-0.014648;0.02832;0.961914;0;0;40509;0;0;0
2024-11-05_11-13-57.776133;203583;86.666748;25.125;0.04;3.128333;94.0;-0.017578;0.026367;0.948242;0;0;40677;0;0;0
2024-11-05_11-13-57.951865;203721;85.333252;25.125;0.021667;3.13;98.0;-0.018555;0.02832;0.962891;0;0;40844;0;0;0
2024-11-05_11-13-58.123748;203868;90.666748;25.125;0.021667;3.13;97.0;-0.015625;0.027344;0.955078;0;0;41025;0;0;0
2024-11-05_11-13-58.264392;204012;81.333252;25.125;0.021667;3.13;95.0;-0.018555;0.030273;0.976562;0;0;41164;0;0;0
2024-11-05_11-13-58.436266;204163;73.333252;25.125;0.021667;3.13;97.0;-0.016602;0.027344;1.001953;0;0;41334;0;0;0
2024-11-05_11-13-58.576900;204308;73.333252;25.125;0.021667;3.13;95.0;-0.016602;0.029297;1.030273;0;0;41484;0;0;0
2024-11-05_11-13-58.733121;204445;69.333252;25.125;0.02125;3.130417;97.0;-0.011719;0.022461;1.057617;0;0;41633;0;0;0
2024-11-05_11-13-58.905663;204726;65.333252;25.125;0.021667;3.135417;96.0;-0.011719;0.019531;1.097656;0;0;41806;0;0;0
2024-11-05_11-13-59.140065;204878;61.333252;25.125;0.021667;3.135417;98.0;-0.006836;0.021484;1.125;0;0;42044;0;0;0
2024-11-05_11-13-59.186975;205015;62.666748;25.125;0.021667;3.135417;96.0;-0.008789;0.018555;1.136719;0;0;42096;0;0;0
2024-11-05_11-13-59.404294;205152;60.0;25.125;0.021667;3.135417;97.0;-0.008789;0.029297;1.149414;0;0;42304;0;0;0
2024-11-05_11-13-59.606600;205442;60.0;25.125;0.021667;3.135417;94.0;-0.008789;0.029297;1.137695;0;0;42514;0;0;0
2024-11-05_11-13-59.669134;205442;60.0;25.125;0.021667;3.135417;94.0;-0.008789;0.029297;1.137695;0;0;42573;0;0;0
2024-11-05_11-13-59.825297;205588;57.333252;25.125;0.02125;3.135;96.0;-0.005859;0.014648;1.144531;0;0;42724;0;0;0
2024-11-05_11-14-00.092093;205886;62.666748;25.125;3.135417;3.135417;95.0;-0.004883;0.020508;1.135742;0;0;42984;0;0;0
2024-11-05_11-14-00.142186;205886;62.666748;25.125;3.135417;3.135417;95.0;-0.004883;0.020508;1.135742;0;0;43038;0;0;0
2024-11-05_11-14-00.291847;206023;66.666748;25.125;0.021667;3.136667;96.0;-0.006836;0.033203;1.133789;0;0;43189;0;0;0
2024-11-05_11-14-00.442497;206158;62.666748;25.125;0.021667;3.140417;94.0;-0.009766;0.03418;1.121094;0;0;43354;0;0;0
2024-11-05_11-14-00.608603;206445;65.333252;25.125;0.021667;3.140417;97.0;-0.012695;0.035156;1.103516;0;0;43513;0;0;0
2024-11-05_11-14-00.852247;206583;64.0;25.125;0.021667;3.140417;97.0;-0.012695;0.030273;1.085938;0;0;43754;0;0;0
2024-11-05_11-14-00.915094;206732;68.0;25.125;0.021667;3.140834;97.0;-0.010742;0.025391;1.083008;0;0;43814;0;0;0
2024-11-05_11-14-01.087066;206873;68.0;25.125;0.021667;3.140417;96.0;-0.009766;0.029297;1.095703;0;0;43985;0;0;0
2024-11-05_11-14-01.258932;207008;68.0;25.1875;0.021667;3.140417;98.0;-0.008789;0.029297;1.079102;0;0;44167;0;0;0
2024-11-05_11-14-01.399497;207152;70.666748;25.125;0.021667;3.140834;96.0;-0.008789;0.024414;1.083984;0;0;44293;0;0;0
2024-11-05_11-14-01.524530;207298;65.333252;25.125;0.021667;3.140834;95.0;-0.012695;0.016602;1.071289;0;0;44434;0;0;0
2024-11-05_11-14-01.712063;207447;68.0;25.125;0.021667;3.140417;95.0;-0.006836;0.016602;1.074219;0;0;44600;0;0;0
2024-11-05_11-14-01.852682;207599;66.666748;25.125;0.021667;3.14125;95.0;-0.006836;0.020508;1.072266;0;0;44764;0;0;0
2024-11-05_11-14-02.009143;207744;70.666748;25.125;0.02125;3.145833;99.0;-0.001953;0.020508;1.054688;0;0;44914;0;0;0
2024-11-05_11-14-02.165385;207886;73.333252;25.125;0.02125;3.14625;96.0;-0.001953;0.023438;1.040039;0;0;45074;0;0;0
2024-11-05_11-14-02.321788;208035;78.666748;25.125;0.02125;3.145833;98.0;-0.001953;0.024414;1.013672;0;0;45214;0;0;0
2024-11-05_11-14-02.478115;208179;81.333252;25.125;0.021667;3.14625;96.0;-0.000977;0.024414;1.013672;0;0;45384;0;0;0
2024-11-05_11-14-02.634362;208464;81.333252;25.1875;0.02125;3.145833;92.0;-0.000977;0.021484;0.982422;0;0;45536;0;0;0
2024-11-05_11-14-02.790608;208616;90.666748;25.125;0.021667;3.145833;94.0;0.0;0.017578;0.980469;0;0;45694;0;0;0
2024-11-05_11-14-02.947070;208758;81.333252;25.1875;0.021667;3.147917;97.0;-0.001953;0.025391;0.979492;0;0;45854;0;0;0
2024-11-05_11-14-03.118906;208895;81.333252;25.1875;3.14875;3.15;98.0;-0.00293;0.024414;0.980469;0;0;46016;0;0;0
2024-11-05_11-14-03.259570;209027;73.333252;25.1875;0.021667;3.15125;99.0;-0.004883;0.029297;0.987305;0;0;46164;0;0;0
2024-11-05_11-14-03.415749;209170;86.666748;25.1875;0.021667;3.15125;95.0;-0.001953;0.024414;0.992188;0;0;46319;0;0;0
2024-11-05_11-14-03.603318;209298;80.0;25.125;0.021667;3.15125;97.0;-0.006836;0.027344;0.984375;0;0;46496;0;0;0
2024-11-05_11-14-03.759511;209438;89.333252;25.1875;0.02125;3.15125;95.0;-0.005859;0.02832;0.983398;0;0;46626;0;0;0
2024-11-05_11-14-03.868951;209713;85.333252;25.1875;0.021667;3.15125;95.0;-0.003906;0.029297;0.966797;0;0;46777;0;0;0
2024-11-05_11-14-04.056686;209855;86.666748;25.125;0.021667;3.151667;97.0;-0.003906;0.03125;0.96875;0;0;46963;0;0;0
2024-11-05_11-14-04.228475;209995;86.666748;25.125;0.021667;3.15125;95.0;-0.006836;0.030273;0.980469;0;0;47123;0;0;0
2024-11-05_11-14-04.353556;210132;86.666748;25.125;0.021667;3.15125;100.0;-0.003906;0.02832;0.989258;0;0;47254;0;0;0
2024-11-05_11-14-04.509721;210279;81.333252;25.1875;0.021667;3.15125;100.0;-0.004883;0.022461;0.967773;0;0;47414;0;0;0
2024-11-05_11-14-04.666058;210413;88.0;25.125;0.021667;3.15125;98.0;-0.004883;0.026367;0.977539;0;0;47574;0;0;0
2024-11-05_11-14-04.837900;210558;85.333252;25.1875;0.021667;3.15125;95.0;-0.006836;0.023438;0.980469;0;0;47727;0;0;0
2024-11-05_11-14-05.103679;210843;88.0;25.1875;0.021667;3.15125;96.0;-0.008789;0.02832;0.983398;0;0;48002;0;0;0
2024-11-05_11-14-05.291667;211112;81.333252;25.1875;0.021667;3.151667;98.0;-0.008789;0.027344;0.981445;0;0;48194;0;0;0
2024-11-05_11-14-05.432208;211258;82.666748;25.1875;0.021667;3.15125;96.0;-0.007812;0.027344;0.996094;0;0;48340;0;0;0
2024-11-05_11-14-05.604129;211409;81.333252;25.1875;0.021667;3.15125;95.0;-0.005859;0.027344;1.008789;0;0;48504;0;0;0
2024-11-05_11-14-05.760422;211563;73.333252;25.125;0.021667;3.15125;98.0;-0.006836;0.030273;1.016602;0;0;48664;0;0;0
2024-11-05_11-14-05.916647;211708;70.666748;25.1875;0.021667;3.15125;95.0;-0.005859;0.032227;1.007812;0;0;48814;0;0;0
2024-11-05_11-14-06.073540;211859;73.333252;25.1875;0.021667;3.15125;96.0;-0.005859;0.03418;1.023438;0;0;48974;0;0;0
2024-11-05_11-14-06.214088;212003;81.333252;25.1875;0.021667;3.15125;94.0;-0.008789;0.029297;1.017578;0;0;49128;0;0;0
2024-11-05_11-14-06.370422;212145;78.666748;25.1875;0.021667;3.15125;96.0;-0.006836;0.027344;1.032227;0;0;49284;0;0;0
2024-11-05_11-14-06.542296;212283;73.333252;25.1875;0.021667;3.15125;96.0;-0.006836;0.029297;1.03418;0;0;49444;0;0;0
2024-11-05_11-14-06.714089;212437;81.333252;25.1875;0.021667;3.15125;97.0;-0.004883;0.022461;1.016602;0;0;49614;0;0;0
2024-11-05_11-14-06.854790;212588;78.666748;25.1875;0.021667;3.15125;99.0;-0.007812;0.025391;1.007812;0;0;49754;0;0;0
2024-11-05_11-14-07.136534;212872;85.333252;25.1875;0.021667;3.15125;97.0;-0.008789;0.020508;0.999023;0;0;50027;0;0;0
2024-11-05_11-14-07.324031;213156;78.666748;25.1875;0.021667;3.1525;97.0;-0.007812;0.018555;1.004883;0;0;50224;0;0;0
2024-11-05_11-14-07.464664;213295;80.0;25.1875;0.02125;3.15625;97.0;-0.004883;0.014648;1.024414;0;0;50374;0;0;0
2024-11-05_11-14-07.636544;213432;80.0;25.1875;0.02125;3.15625;95.0;-0.007812;0.012695;1.027344;0;0;50534;0;0;0
2024-11-05_11-14-07.792792;213579;66.666748;25.1875;0.021667;3.156667;98.0;-0.005859;0.016602;1.030273;0;0;50694;0;0;0
2024-11-05_11-14-07.980204;213725;68.0;25.1875;0.021667;3.156667;97.0;-0.006836;0.019531;1.042969;0;0;50889;0;0;0
2024-11-05_11-14-08.168485;214005;70.666748;25.1875;0.021667;3.156667;98.0;-0.001953;0.026367;1.06543;0;0;51072;0;0;0
2024-11-05_11-14-08.277956;214005;70.666748;25.1875;0.021667;3.156667;98.0;-0.001953;0.026367;1.06543;0;0;51163;0;0;0
2024-11-05_11-14-08.418572;214142;66.666748;25.1875;0.021667;3.156667;96.0;-0.005859;0.023438;1.071289;0;0;51319;0;0;0
2024-11-05_11-14-08.574821;214401;70.666748;25.1875;0.021667;3.156667;97.0;-0.005859;0.030273;1.063477;0;0;51475;0;0;0
2024-11-05_11-14-08.731010;214530;65.333252;25.1875;0.021667;3.156667;95.0;-0.004883;0.024414;1.074219;0;0;51634;0;0;0
2024-11-05_11-14-08.887779;214665;73.333252;25.1875;0.021667;3.156667;96.0;-0.00293;0.02832;1.080078;0;0;51794;0;0;0
2024-11-05_11-14-09.044433;214815;68.0;25.1875;0.021667;3.156667;98.0;-0.004883;0.023438;1.06543;0;0;51955;0;0;0
2024-11-05_11-14-09.200632;214958;73.333252;25.1875;0.021667;3.156667;99.0;-0.006836;0.024414;1.066406;0;0;52102;0;0;0
2024-11-05_11-14-09.357402;215095;73.333252;25.1875;0.021667;3.156667;100.0;-0.003906;0.023438;1.052734;0;0;52264;0;0;0
2024-11-05_11-14-09.513567;215248;70.666748;25.1875;0.021667;3.156667;97.0;-0.008789;0.022461;1.049805;0;0;52414;0;0;0
2024-11-05_11-14-09.670296;215386;66.666748;25.1875;0.021667;3.156667;97.0;-0.006836;0.021484;1.051758;0;0;52574;0;0;0
2024-11-05_11-14-09.842272;215677;73.333252;25.1875;0.021667;3.156667;96.0;-0.004883;0.023438;1.071289;0;0;52743;0;0;0
2024-11-05_11-14-10.061589;215823;65.333252;25.1875;0.021667;3.156667;97.0;-0.00293;0.025391;1.103516;0;0;52976;0;0;0
2024-11-05_11-14-10.139738;215966;62.666748;25.1875;0.021667;3.156667;98.0;-0.003906;0.023438;1.104492;0;0;53043;0;0;0
2024-11-05_11-14-10.358486;216106;68.0;25.1875;3.156667;3.156667;95.0;-0.00293;0.019531;1.121094;0;0;53254;0;0;0
2024-11-05_11-14-10.436612;216235;57.333252;25.1875;0.02125;3.156667;96.0;-0.000977;0.019531;1.124023;0;0;53347;0;0;0
2024-11-05_11-14-10.608489;216366;53.333252;25.1875;0.021667;3.156667;97.0;-0.001953;0.022461;1.15918;0;0;53514;0;0;0
2024-11-05_11-14-10.764733;216512;57.333252;25.1875;0.021667;3.156667;98.0;-0.000977;0.017578;1.171875;0;0;53674;0;0;0
2024-11-05_11-14-10.921364;216653;49.333252;25.1875;0.02125;3.156667;93.0;0.000977;0.021484;1.174805;0;0;53824;0;0;0
2024-11-05_11-14-11.062288;216801;49.333252;25.1875;0.021667;3.156667;95.0;-0.00293;0.021484;1.172852;0;0;53974;0;0;0
2024-11-05_11-14-11.249828;217078;60.0;25.1875;0.021667;3.156667;96.0;0.000977;0.025391;1.186523;0;0;54145;0;0;0
2024-11-05_11-14-11.390540;217213;53.333252;25.1875;0.02125;3.157084;97.0;0.0;0.020508;1.180664;0;0;54291;0;0;0
2024-11-05_11-14-11.562426;217356;49.333252;25.1875;0.021667;3.156667;98.0;0.001953;0.023438;1.181641;0;0;54459;0;0;0
2024-11-05_11-14-11.703049;217508;50.666748;25.1875;0.021667;3.156667;97.0;-0.001953;0.027344;1.18457;0;0;54603;0;0;0
2024-11-05_11-14-11.859293;217647;50.666748;25.1875;0.021667;3.156667;98.0;0.000977;0.023438;1.178711;0;0;54751;0;0;0
2024-11-05_11-14-12.031175;217785;50.666748;25.1875;0.021667;3.156667;97.0;-0.000977;0.027344;1.175781;0;0;54924;0;0;0
2024-11-05_11-14-12.312903;218068;50.666748;25.1875;0.021667;3.156667;94.0;0.00293;0.025391;1.173828;0;0;55214;0;0;0
2024-11-05_11-14-12.562906;218353;58.666748;25.1875;0.021667;3.156667;95.0;0.0;0.024414;1.168945;0;0;55462;0;0;0
2024-11-05_11-14-12.641043;218353;58.666748;25.1875;0.021667;3.156667;95.0;0.0;0.024414;1.168945;0;0;55544;0;0;0
2024-11-05_11-14-12.828535;218643;50.666748;25.1875;0.021667;3.156667;100.0;-0.000977;0.024414;1.157227;0;0;55736;0;0;0
2024-11-05_11-14-12.984779;218795;50.666748;25.1875;0.021667;3.156667;96.0;0.0;0.023438;1.160156;0;0;55868;0;0;0
2024-11-05_11-14-13.110517;218938;62.666748;25.1875;0.021667;3.156667;97.0;0.0;0.026367;1.152344;0;0;56014;0;0;0
2024-11-05_11-14-13.251145;219082;64.0;25.1875;0.021667;3.156667;97.0;-0.000977;0.020508;1.132812;0;0;56156;0;0;0
2024-11-05_11-14-13.438639;219234;62.666748;25.1875;0.021667;3.156667;98.0;0.0;0.022461;1.124023;0;0;56336;0;0;0
2024-11-05_11-14-13.579262;219378;64.0;25.1875;0.021667;3.156667;98.0;-0.001953;0.025391;1.12207;0;0;56477;0;0;0
2024-11-05_11-14-13.735528;219510;65.333252;25.1875;0.021667;3.156667;95.0;-0.004883;0.020508;1.083008;0;0;56643;0;0;0
2024-11-05_11-14-13.891765;219661;66.666748;25.1875;0.021667;3.156667;97.0;-0.00293;0.025391;1.072266;0;0;56794;0;0;0
2024-11-05_11-14-14.032927;219805;73.333252;25.1875;0.021667;3.156667;97.0;-0.003906;0.02832;1.039062;0;0;56944;0;0;0
2024-11-05_11-14-14.268055;220076;80.0;25.1875;3.156667;3.156667;97.0;-0.005859;0.020508;1.011719;0;0;57174;0;0;0
2024-11-05_11-14-14.361803;220076;80.0;25.1875;3.156667;3.156667;97.0;-0.005859;0.020508;1.011719;0;0;57264;0;0;0
2024-11-05_11-14-14.518064;220206;80.0;25.1875;0.021667;3.156667;96.0;-0.003906;0.023438;1.000977;0;0;57414;0;0;0
2024-11-05_11-14-14.674300;220497;86.666748;25.1875;0.021667;3.156667;96.0;-0.008789;0.027344;0.964844;0;0;57586;0;0;0
2024-11-05_11-14-14.861804;220648;81.333252;25.1875;0.021667;3.156667;97.0;-0.009766;0.025391;0.977539;0;0;57760;0;0;0
2024-11-05_11-14-15.033959;220787;85.333252;25.1875;0.021667;3.156667;97.0;-0.010742;0.024414;0.970703;0;0;57936;0;0;0
2024-11-05_11-14-15.159458;220929;88.0;25.1875;0.021667;3.156667;94.0;-0.014648;0.024414;0.955078;0;0;58045;0;0;0
2024-11-05_11-14-15.300085;221066;88.0;25.1875;0.021667;3.156667;99.0;-0.008789;0.030273;0.951172;0;0;58204;0;0;0
2024-11-05_11-14-15.440717;221193;88.0;25.1875;0.021667;3.156667;93.0;-0.011719;0.025391;0.957031;0;0;58344;0;0;0
2024-11-05_11-14-15.612585;221335;81.333252;25.1875;0.02125;3.156667;96.0;-0.010742;0.025391;0.959961;0;0;58505;0;0;0
2024-11-05_11-14-15.768829;221479;81.333252;25.1875;0.021667;3.156667;99.0;-0.008789;0.02832;0.959961;0;0;58674;0;0;0
2024-11-05_11-14-15.925428;221615;85.333252;25.1875;0.021667;3.156667;100.0;-0.008789;0.026367;0.964844;0;0;58824;0;0;0
2024-11-05_11-14-16.081676;221902;86.666748;25.1875;0.021667;3.156667;97.0;-0.010742;0.021484;0.941406;0;0;58994;0;0;0
2024-11-05_11-14-16.238287;222045;90.666748;25.1875;0.021667;3.156667;98.0;-0.008789;0.022461;0.945312;0;0;59144;0;0;0
2024-11-05_11-14-16.394636;222183;89.333252;25.1875;3.156667;3.156667;99.0;-0.008789;0.020508;0.933594;0;0;59302;0;0;0
2024-11-05_11-14-16.535233;222319;86.666748;25.1875;0.021667;3.156667;95.0;-0.010742;0.020508;0.941406;0;0;59446;0;0;0
2024-11-05_11-14-16.691498;222458;90.666748;25.1875;0.02125;3.156667;96.0;-0.011719;0.021484;0.938477;0;0;59599;0;0;0
2024-11-05_11-14-16.863367;222592;86.666748;25.1875;0.02125;3.156667;95.0;-0.008789;0.025391;0.9375;0;0;59776;0;0;0
2024-11-05_11-14-17.035261;222875;88.0;25.1875;0.021667;3.156667;94.0;-0.012695;0.025391;0.933594;0;0;59944;0;0;0
2024-11-05_11-14-17.207414;223013;90.666748;25.1875;0.021667;3.156667;98.0;-0.007812;0.023438;0.943359;0;0;60113;0;0;0
2024-11-05_11-14-17.316756;223155;98.666748;25.1875;0.021667;3.156667;94.0;-0.013672;0.021484;0.926758;0;0;60225;0;0;0
2024-11-05_11-14-17.551172;223294;90.666748;25.1875;0.021667;3.156667;95.0;-0.009766;0.025391;0.920898;0;0;60464;0;0;0
2024-11-05_11-14-17.644933;223439;90.666748;25.1875;0.021667;3.156667;95.0;-0.011719;0.025391;0.913086;0;0;60544;0;0;0
2024-11-05_11-14-17.848044;223574;98.666748;25.1875;0.021667;3.156667;97.0;-0.011719;0.029297;0.931641;0;0;60752;0;0;0
2024-11-05_11-14-18.067493;223866;86.666748;25.1875;0.021667;3.156667;96.0;-0.008789;0.025391;0.93457;0;0;60979;0;0;0
2024-11-05_11-14-18.114366;223866;86.666748;25.1875;0.021667;3.156667;96.0;-0.008789;0.025391;0.93457;0;0;61014;0;0;0
2024-11-05_11-14-18.270876;224014;90.666748;25.1875;3.156667;3.156667;96.0;-0.011719;0.024414;0.931641;0;0;61174;0;0;0
2024-11-05_11-14-18.427137;224157;90.666748;25.1875;0.021667;3.156667;97.0;-0.009766;0.024414;0.916992;0;0;61336;0;0;0
2024-11-05_11-14-18.583985;224299;85.333252;25.1875;0.02125;3.156667;96.0;-0.011719;0.027344;0.925781;0;0;61484;0;0;0
2024-11-05_11-14-18.740737;224568;90.666748;25.1875;0.021667;3.156667;98.0;-0.009766;0.020508;0.955078;0;0;61648;0;0;0
2024-11-05_11-14-18.912616;224720;85.333252;25.1875;0.021667;3.156667;95.0;-0.009766;0.029297;0.962891;0;0;61803;0;0;0
2024-11-05_11-14-19.053711;224852;81.333252;25.1875;0.021667;3.156667;97.0;-0.011719;0.023438;0.969727;0;0;61954;0;0;0
2024-11-05_11-14-19.225930;224997;81.333252;25.1875;0.021667;3.156667;96.0;-0.006836;0.026367;0.986328;0;0;62124;0;0;0
2024-11-05_11-14-19.366632;225144;81.333252;25.1875;0.021667;3.156667;98.0;-0.008789;0.023438;1.003906;0;0;62274;0;0;0
2024-11-05_11-14-19.522883;225272;78.666748;25.1875;0.021667;3.156667;96.0;-0.007812;0.021484;1.021484;0;0;62424;0;0;0
2024-11-05_11-14-19.679135;225415;80.0;25.1875;0.021667;3.156667;96.0;-0.003906;0.017578;1.03125;0;0;62584;0;0;0
2024-11-05_11-14-19.819754;225552;73.333252;25.125;0.021667;3.156667;96.0;-0.005859;0.02832;1.057617;0;0;62734;0;0;0
2024-11-05_11-14-19.991635;225695;78.666748;25.1875;0.021667;3.156667;97.0;-0.005859;0.023438;1.041016;0;0;62886;0;0;0
2024-11-05_11-14-20.163503;225964;78.666748;25.1875;0.021667;3.156667;97.0;-0.006836;0.02832;1.044922;0;0;63052;0;0;0
2024-11-05_11-14-20.304786;226096;70.666748;25.1875;0.021667;3.156667;98.0;-0.005859;0.022461;1.050781;0;0;63204;0;0;0
2024-11-05_11-14-20.461133;226232;78.666748;25.1875;0.021667;3.156667;95.0;-0.005859;0.025391;1.045898;0;0;63365;0;0;0
2024-11-05_11-14-20.617373;226376;80.0;25.1875;0.021667;3.156667;97.0;-0.007812;0.022461;1.041016;0;0;63524;0;0;0
2024-11-05_11-14-20.820493;226525;78.666748;25.1875;0.021667;3.156667;96.0;-0.005859;0.021484;1.022461;0;0;63719;0;0;0
2024-11-05_11-14-20.929879;226665;78.666748;25.1875;3.156667;3.156667;98.0;-0.005859;0.024414;1.014648;0;0;63834;0;0;0
2024-11-05_11-14-21.086116;226809;81.333252;25.1875;0.021667;3.156667;98.0;-0.009766;0.023438;0.999023;0;0;63994;0;0;0
2024-11-05_11-14-21.226930;226952;81.333252;25.1875;0.021667;3.156667;96.0;-0.007812;0.025391;0.996094;0;0;64137;0;0;0
2024-11-05_11-14-21.414564;227223;80.0;25.1875;0.021667;3.156667;97.0;-0.006836;0.022461;1.008789;0;0;64314;0;0;0
2024-11-05_11-14-21.539566;227367;78.666748;25.1875;0.021667;3.156667;95.0;-0.008789;0.027344;1.004883;0;0;64454;0;0;0
2024-11-05_11-14-21.773936;227515;73.333252;25.1875;0.021667;3.156667;97.0;-0.008789;0.020508;1.011719;0;0;64674;0;0;0
2024-11-05_11-14-21.992685;227817;78.666748;25.1875;0.021667;3.156667;96.0;-0.003906;0.027344;1.038086;0;0;64904;0;0;0
2024-11-05_11-14-22.164557;227968;70.666748;25.1875;0.021667;3.156667;98.0;-0.005859;0.021484;1.047852;0;0;65080;0;0;0
2024-11-05_11-14-22.336629;228111;70.666748;25.1875;0.021667;3.156667;98.0;-0.007812;0.020508;1.048828;0;0;65232;0;0;0
2024-11-05_11-14-22.492862;228244;81.333252;25.125;0.021667;3.156667;95.0;-0.003906;0.025391;1.036133;0;0;65394;0;0;0
2024-11-05_11-14-22.649115;228374;70.666748;25.1875;3.156667;3.156667;96.0;-0.001953;0.024414;1.061523;0;0;65557;0;0;0
2024-11-05_11-14-22.789749;228521;70.666748;25.125;0.021667;3.156667;96.0;-0.006836;0.026367;1.057617;0;0;65704;0;0;0
2024-11-05_11-14-22.961622;228663;78.666748;25.1875;3.156667;3.156667;97.0;-0.005859;0.024414;1.045898;0;0;65855;0;0;0
2024-11-05_11-14-23.133486;228942;70.666748;25.1875;0.021667;3.156667;95.0;-0.006836;0.021484;1.043945;0;0;66043;0;0;0
2024-11-05_11-14-23.259118;229085;70.666748;25.125;0.021667;3.156667;97.0;-0.004883;0.02832;1.039062;0;0;66170;0;0;0
2024-11-05_11-14-23.478281;229226;78.666748;25.1875;0.021667;3.156667;97.0;-0.007812;0.029297;1.047852;0;0;66385;0;0;0
2024-11-05_11-14-23.619124;229378;80.0;25.125;0.021667;3.156667;98.0;-0.004883;0.03125;1.040039;0;0;66493;0;0;0
2024-11-05_11-14-23.853589;229663;81.333252;25.125;3.156667;3.156667;96.0;-0.008789;0.040039;1.007812;0;0;66751;0;0;0
2024-11-05_11-14-23.916055;229663;81.333252;25.125;3.156667;3.156667;96.0;-0.008789;0.040039;1.007812;0;0;66809;0;0;0
2024-11-05_11-14-24.134841;229932;88.0;25.1875;0.021667;3.156667;96.0;-0.006836;0.017578;0.922852;0;0;67033;0;0;0
2024-11-05_11-14-24.212955;229932;88.0;25.1875;0.021667;3.156667;96.0;-0.006836;0.017578;0.922852;0;0;67114;0;0;0
2024-11-05_11-14-24.353890;230075;98.666748;25.125;0.02125;3.156667;98.0;-0.008789;0.014648;0.922852;0;0;67268;0;0;0
2024-11-05_11-14-24.525767;230214;80.0;25.125;0.021667;3.156667;95.0;-0.009766;0.021484;0.985352;0;0;67424;0;0;0
2024-11-05_11-14-24.682018;230367;73.333252;25.125;0.021667;3.156667;94.0;-0.001953;0.016602;1.049805;0;0;67584;0;0;0
2024-11-05_11-14-24.853900;230668;73.333252;25.125;0.021667;3.156667;96.0;-0.00293;0.018555;1.050781;0;0;67754;0;0;0
2024-11-05_11-14-24.978893;230803;69.333252;25.125;0.021667;3.156667;98.0;-0.011719;0.011719;1.063477;0;0;67889;0;0;0
2024-11-05_11-14-25.151359;230953;68.0;25.125;0.021667;3.156667;95.0;-0.007812;0.017578;1.051758;0;0;68054;0;0;0
2024-11-05_11-14-25.323587;231083;82.666748;25.125;0.021667;3.156667;95.0;-0.006836;0.02832;0.994141;0;0;68226;0;0;0
2024-11-05_11-14-25.464213;231225;85.333252;25.125;0.021667;3.156667;95.0;-0.014648;0.03125;0.995117;0;0;68374;0;0;0
2024-11-05_11-14-25.627237;231367;81.333252;25.125;0.021667;3.156667;97.0;-0.012695;0.022461;0.964844;0;0;68525;0;0;0
2024-11-05_11-14-25.862303;231659;73.333252;25.125;0.021667;3.156667;97.0;-0.003906;0.015625;1.02832;0;0;68764;0;0;0
2024-11-05_11-14-25.940960;231659;73.333252;25.125;0.021667;3.156667;97.0;-0.003906;0.015625;1.02832;0;0;68834;0;0;0
2024-11-05_11-14-26.081640;231794;69.333252;25.125;0.021667;3.157084;98.0;-0.006836;0.017578;1.053711;0;0;68979;0;0;0
2024-11-05_11-14-26.237899;231937;76.0;25.125;0.021667;3.156667;98.0;-0.00293;0.030273;1.043945;0;0;69137;0;0;0
2024-11-05_11-14-26.394619;232225;73.333252;25.125;0.021667;3.15625;96.0;-0.00293;0.032227;1.085938;0;0;69304;0;0;0
2024-11-05_11-14-26.551469;232356;70.666748;25.125;3.156667;3.156667;96.0;-0.008789;0.019531;1.083008;0;0;69454;0;0;0
2024-11-05_11-14-26.692168;232484;68.0;25.125;0.021667;3.156667;97.0;-0.00293;0.032227;1.072266;0;0;69604;0;0;0
2024-11-05_11-14-26.880579;232625;68.0;25.125;0.021667;3.156667;96.0;-0.007812;0.024414;1.058594;0;0;69783;0;0;0
2024-11-05_11-14-27.021352;232775;68.0;25.125;0.021667;3.156667;92.0;-0.004883;0.039062;1.050781;0;0;69924;0;0;0
2024-11-05_11-14-27.162013;232915;80.0;25.125;0.021667;3.156667;95.0;-0.011719;0.023438;1.040039;0;0;70074;0;0;0
2024-11-05_11-14-27.459564;233055;85.333252;25.125;0.021667;3.156667;95.0;-0.008789;0.035156;1.025391;0;0;70234;0;0;0
2024-11-05_11-14-27.756671;233461;81.333252;25.125;0.021667;3.156667;98.0;-0.003906;0.010742;1.001953;0;0;70650;0;0;0
2024-11-05_11-14-27.803549;233593;80.0;25.125;0.021667;3.156667;94.0;-0.010742;0.016602;0.999023;0;0;70713;0;0;0
2024-11-05_11-14-27.959797;233734;82.666748;25.125;0.02125;3.15125;96.0;0.0;0.022461;1.012695;0;0;70863;0;0;0
2024-11-05_11-14-28.100335;233873;81.333252;25.125;0.021667;3.156667;95.0;-0.009766;0.020508;1.006836;0;0;71013;0;0;0
2024-11-05_11-14-28.287930;234016;73.333252;25.125;0.021667;3.156667;97.0;-0.004883;0.023438;1.015625;0;0;71193;0;0;0
2024-11-05_11-14-28.429161;234165;81.333252;25.125;0.021667;3.156667;93.0;-0.004883;0.015625;0.993164;0;0;71334;0;0;0
2024-11-05_11-14-28.585430;234303;85.333252;25.125;0.021667;3.156667;97.0;-0.007812;0.037109;0.982422;0;0;71487;0;0;0
2024-11-05_11-14-28.741683;234452;82.666748;25.125;0.021667;3.15125;96.0;-0.010742;0.035156;1.005859;0;0;71645;0;0;0
2024-11-05_11-14-28.882313;234592;81.333252;25.125;0.021667;3.15125;96.0;-0.013672;0.02832;0.999023;0;0;71794;0;0;0
2024-11-05_11-14-29.054186;234882;73.333252;25.125;0.021667;3.156667;96.0;-0.008789;0.032227;1.012695;0;0;71960;0;0;0
2024-11-05_11-14-29.194805;235023;73.333252;25.125;0.021667;3.15625;96.0;0.000977;0.035156;1.06543;0;0;72099;0;0;0
2024-11-05_11-14-29.367231;235161;68.0;25.125;0.021667;3.156667;96.0;-0.010742;0.032227;1.041016;0;0;72274;0;0;0
2024-11-05_11-14-29.523494;235305;70.666748;25.125;0.021667;3.156667;96.0;-0.007812;0.02832;1.048828;0;0;72424;0;0;0
2024-11-05_11-14-29.679733;235448;70.666748;25.125;0.021667;3.155417;98.0;-0.004883;0.025391;1.057617;0;0;72584;0;0;0
2024-11-05_11-14-29.883246;235599;70.666748;25.125;0.021667;3.155417;97.0;-0.004883;0.029297;1.071289;0;0;72788;0;0;0
2024-11-05_11-14-30.134054;235866;81.333252;25.125;0.021667;3.153333;96.0;0.0;0.013672;1.027344;0;0;73014;0;0;0
2024-11-05_11-14-30.384470;236133;78.666748;25.125;0.021667;3.15125;97.0;-0.005859;0.023438;1.050781;0;0;73294;0;0;0
2024-11-05_11-14-30.462590;236286;76.0;25.125;0.021667;3.154167;97.0;-0.005859;0.015625;1.046875;0;0;73364;0;0;0
2024-11-05_11-14-30.618765;236438;73.333252;25.125;0.02125;3.151667;95.0;-0.000977;0.027344;1.043945;0;0;73523;0;0;0
2024-11-05_11-14-30.759472;236586;73.333252;25.125;0.021667;3.15125;96.0;-0.00293;0.033203;1.041016;0;0;73674;0;0;0
2024-11-05_11-14-30.931262;236732;78.666748;25.125;0.021667;3.15125;96.0;-0.000977;0.027344;1.047852;0;0;73834;0;0;0
2024-11-05_11-14-31.103658;236875;80.0;25.125;0.021667;3.15125;94.0;-0.008789;0.02832;1.030273;0;0;74012;0;0;0
2024-11-05_11-14-31.260118;237021;73.333252;25.125;0.039583;2.982917;99.0;-0.001953;0.041016;1.020508;0;0;74149;0;0;0
2024-11-05_11-14-31.416635;237163;68.0;25.125;0.425417;3.010417;96.0;-0.008789;0.023438;1.037109;0;0;74304;0;0;0
2024-11-05_11-14-31.541600;237307;73.333252;25.0625;0.6375;3.009167;95.0;-0.007812;0.036133;1.053711;0;0;74453;0;0;0
2024-11-05_11-14-31.763951;237592;68.0;25.125;0.810417;3.009167;99.0;-0.003906;0.026367;1.06543;0;0;74673;0;0;0
2024-11-05_11-14-31.880325;237592;68.0;25.125;0.810417;3.009167;99.0;-0.003906;0.026367;1.06543;0;0;74782;0;0;0
2024-11-05_11-14-32.047216;237882;73.333252;25.125;0.920833;3.00875;99.0;-0.000977;0.023438;1.051758;0;0;74953;0;0;0
2024-11-05_11-14-32.163773;237882;73.333252;25.125;0.920833;3.00875;99.0;-0.000977;0.023438;1.051758;0;0;75065;0;0;0
2024-11-05_11-14-32.346279;238175;66.666748;25.0625;1.000833;3.009167;96.0;-0.005859;0.019531;1.049805;0;0;75244;0;0;0
2024-11-05_11-14-32.589806;238312;70.666748;25.125;1.0175;3.015417;98.0;-0.001953;0.03125;1.055664;0;0;75491;0;0;0
2024-11-05_11-14-32.652303;238455;66.666748;25.0625;1.027917;3.02375;97.0;-0.005859;0.016602;1.071289;0;0;75551;0;0;0
2024-11-05_11-14-32.855438;238591;70.666748;25.0625;1.032917;3.030417;95.0;-0.005859;0.019531;1.055664;0;0;75763;0;0;0
2024-11-05_11-14-32.964807;238725;66.666748;25.0625;3.035833;3.030417;100.0;-0.004883;0.026367;1.066406;0;0;75864;0;0;0
2024-11-05_11-14-33.121044;238858;68.0;25.0625;1.033333;3.040833;97.0;-0.008789;0.035156;1.06543;0;0;76024;0;0;0
2024-11-05_11-14-33.261672;238997;70.666748;25.125;1.032917;3.046667;98.0;-0.009766;0.025391;1.060547;0;0;76174;0;0;0
2024-11-05_11-14-33.434041;239150;73.333252;25.0625;1.032917;3.060417;94.0;-0.00293;0.027344;1.03418;0;0;76344;0;0;0
2024-11-05_11-14-33.606255;239433;70.666748;25.0625;1.033333;3.07125;98.0;-0.008789;0.026367;1.050781;0;0;76513;0;0;0
2024-11-05_11-14-33.747366;239576;70.666748;25.0625;1.032917;3.07625;96.0;-0.006836;0.025391;1.046875;0;0;76654;0;0;0
2024-11-05_11-14-34.026917;239725;69.333252;25.0625;1.032917;3.081667;97.0;-0.011719;0.030273;1.040039;0;0;76906;0;0;0
2024-11-05_11-14-34.261374;240006;70.666748;25.0625;0.856667;3.097917;96.0;-0.004883;0.024414;1.067383;0;0;77161;0;0;0
2024-11-05_11-14-34.430452;240152;69.333252;25.0625;0.744583;3.104167;96.0;-0.004883;0.025391;1.080078;0;0;77323;0;0;0
2024-11-05_11-14-34.530650;240295;66.666748;25.0625;0.650417;3.108334;96.0;-0.000977;0.026367;1.09668;0;0;77422;0;0;0
2024-11-05_11-14-34.746124;240575;65.333252;25.0625;0.458333;3.124583;94.0;-0.00293;0.02832;1.09375;0;0;77643;0;0;0
2024-11-05_11-14-34.862253;240575;65.333252;25.0625;0.458333;3.124583;94.0;-0.00293;0.02832;1.09375;0;0;77752;0;0;0
2024-11-05_11-14-34.980391;240714;68.0;25.0625;0.32875;3.13;96.0;-0.007812;0.02832;1.086914;0;0;77894;0;0;0
2024-11-05_11-14-35.182716;240995;69.333252;25.0625;0.06625;3.1375;95.0;-0.003906;0.025391;1.081055;0;0;78060;0;0;0
2024-11-05_11-14-35.292752;241133;68.0;25.0625;0.025;3.141667;97.0;-0.007812;0.03125;1.069336;0;0;78197;0;0;0
2024-11-05_11-14-35.480825;241278;69.333252;25.0625;0.021667;3.15125;96.0;-0.00293;0.02832;1.053711;0;0;78376;0;0;0
2024-11-05_11-14-35.622376;241428;73.333252;25.0625;0.021667;3.151667;97.0;-0.00293;0.024414;1.06543;0;0;78524;0;0;0
2024-11-05_11-14-35.778195;241572;80.0;25.0625;0.021667;3.159167;96.0;-0.007812;0.033203;1.052734;0;0;78684;0;0;0
2024-11-05_11-14-35.934594;241718;78.666748;25.0625;0.021667;3.1675;94.0;-0.006836;0.021484;1.030273;0;0;78835;0;0;0
2024-11-05_11-14-36.090975;241865;80.0;25.0625;0.021667;3.1725;96.0;-0.004883;0.027344;1.018555;0;0;78994;0;0;0
2024-11-05_11-14-36.247226;242018;81.333252;25.0625;0.021667;3.174583;96.0;-0.007812;0.024414;1.038086;0;0;79150;0;0;0
2024-11-05_11-14-36.403490;242171;80.0;25.0625;0.021667;3.183333;97.0;-0.007812;0.030273;1.020508;0;0;79304;0;0;0
2024-11-05_11-14-36.560287;242318;70.666748;25.0625;0.021667;3.193334;94.0;-0.003906;0.014648;1.00293;0;0;79464;0;0;0
2024-11-05_11-14-36.717091;242456;80.0;25.0625;0.021667;3.198334;97.0;-0.009766;0.033203;1.026367;0;0;79616;0;0;0
2024-11-05_11-14-36.998258;242749;68.0;25.0625;0.021667;3.205;96.0;-0.005859;0.023438;1.039062;0;0;79900;0;0;0
2024-11-05_11-14-37.170216;242888;78.666748;25.0625;0.021667;3.21;95.0;-0.009766;0.029297;1.03418;0;0;80077;0;0;0
2024-11-05_11-14-37.342072;243172;78.666748;25.0625;0.021667;3.22;94.0;-0.005859;0.025391;1.044922;0;0;80253;0;0;0
2024-11-05_11-14-37.498920;243315;73.333252;25.0625;0.021667;3.225834;95.0;-0.00293;0.024414;1.038086;0;0;80404;0;0;0
