datetime;time;load_cell;board_temperature;pressure_macki;pressure_tank;distance;acc_x;acc_y;acc_z;motor1_speed;motor2_speed;procedure_time;mechanical_state;motor1_temperature;motor2_temperature
2024-11-05_10-09-49.481882;457986;-137.333374;23.4375;0.021667;4.03375;95.0;0.041992;0.022461;0.768555;-60000;-60000;154364;0;0;0
2024-11-05_10-09-49.591285;458126;-133.333374;23.4375;0.02625;4.034167;94.0;0.033203;0.015625;0.652344;-60000;-60000;154480;0;0;0
2024-11-05_10-09-49.701276;458266;-116.0;23.4375;0.051667;4.032917;88.0;0.025391;0.019531;0.545898;20000;20000;154603;1;0;0
2024-11-05_10-09-49.857591;458406;-96.0;23.4375;0.14375;4.030417;94.0;0.014648;0.027344;0.4375;20000;20000;154763;1;0;0
2024-11-05_10-09-50.014471;458546;-84.0;23.4375;0.149583;4.030834;95.0;0.011719;0.020508;0.395508;20000;20000;154921;0;0;0
2024-11-05_10-09-50.182650;458686;-76.0;23.375;0.312083;4.032917;96.0;0.007812;0.024414;0.310547;20000;20000;155081;0;0;0
2024-11-05_10-09-50.313535;458966;-58.666626;23.4375;0.1025;4.043334;97.0;0.00293;0.019531;0.214844;20000;20000;155233;0;0;0
2024-11-05_10-09-50.487127;459106;-53.333374;23.375;0.12;4.030417;94.0;0.001953;0.015625;0.1875;20000;20000;155393;0;0;0
2024-11-05_10-09-50.628344;459248;-50.666626;23.4375;0.051667;4.02875;94.0;0.001953;0.018555;0.173828;20000;20000;155540;0;0;0
2024-11-05_10-09-50.774505;459396;-50.666626;23.4375;4.028333;4.02875;96.0;0.000977;0.019531;0.15625;20000;20000;155683;0;0;0
2024-11-05_10-09-50.941704;459528;-50.666626;23.4375;0.021667;4.02875;97.0;0.001953;0.024414;0.116211;20000;20000;155843;0;0;0
2024-11-05_10-09-51.099062;459682;-34.666626;23.4375;0.021667;4.02875;97.0;-0.000977;0.025391;0.09375;20000;20000;156003;0;0;0
2024-11-05_10-09-51.260930;459835;-41.333374;23.4375;0.021667;4.02875;96.0;0.0;0.021484;0.106445;20000;20000;156163;0;0;0
2024-11-05_10-09-51.397871;459976;-38.666626;23.4375;0.021667;4.02875;96.0;-0.001953;0.023438;0.079102;20000;20000;156313;0;0;0
2024-11-05_10-09-51.558019;460115;-34.666626;23.4375;0.021667;4.028333;96.0;0.0;0.019531;0.085938;60000;60000;160;0;0;0
2024-11-05_10-09-51.726784;460256;-18.666626;23.4375;0.021667;4.029167;97.0;-0.00293;0.024414;0.074219;60000;60000;329;0;0;0
2024-11-05_10-09-51.884063;460396;-18.666626;23.4375;0.04625;4.028333;108.0;-0.000977;0.020508;0.083984;60000;60000;489;0;0;0
2024-11-05_10-09-52.025575;460676;-25.333374;23.4375;0.085417;4.035417;125.0;-0.005859;0.021484;0.071289;60000;60000;641;0;0;0
2024-11-05_10-09-52.198667;460816;-22.666626;23.4375;0.117917;4.02875;136.0;-0.005859;0.021484;0.070312;60000;60000;801;0;0;0
2024-11-05_10-09-52.339778;460956;-22.666626;23.4375;0.109167;4.029583;147.0;-0.004883;0.017578;0.079102;60000;60000;950;0;0;0
2024-11-05_10-09-52.497736;461097;-17.333374;23.4375;0.089583;4.03875;156.0;-0.004883;0.024414;0.067383;60000;60000;1109;0;0;0
2024-11-05_10-09-52.669106;461236;-22.666626;23.4375;0.13375;4.035417;165.0;-0.001953;0.020508;0.067383;60000;60000;1280;0;0;0
2024-11-05_10-09-52.810469;461376;-22.666626;23.4375;0.08625;4.02625;173.0;-0.004883;0.021484;0.063477;60000;60000;1421;0;0;0
2024-11-05_10-09-53.014418;461515;-20.0;23.4375;0.125833;4.02625;187.0;-0.004883;0.019531;0.068359;60000;60000;1591;0;0;0
2024-11-05_10-09-53.186638;461794;-20.0;23.4375;0.108333;4.0225;207.0;-0.005859;0.026367;0.042969;50000;50000;1788;0;0;0
2024-11-05_10-09-53.296640;461934;-17.333374;23.4375;0.145833;4.032917;211.0;-0.008789;0.026367;0.041016;39999;39999;1901;0;0;0
2024-11-05_10-09-53.469702;462075;-21.333374;23.4375;4.102084;4.094584;217.0;-0.006836;0.026367;0.038086;20000;20000;2071;0;0;0
2024-11-05_10-09-53.626746;462224;-18.666626;23.4375;0.590417;4.01375;221.0;-0.007812;0.026367;0.029297;0;0;2231;0;0;0
2024-11-05_10-09-53.768442;462383;-16.0;23.4375;0.857917;4.020417;223.0;-0.008789;0.02832;0.03125;-19999;-19999;2371;0;0;0
2024-11-05_10-09-53.910022;462533;-13.333374;23.4375;0.8025;3.893334;216.0;-0.005859;0.025391;0.033203;-40000;-40000;2521;0;2;0
2024-11-05_10-09-54.053548;462683;8.0;23.4375;0.75875;3.837917;211.0;-0.009766;0.030273;0.023438;-60000;-60000;2656;0;0;0
2024-11-05_10-09-54.254731;462816;21.333374;23.4375;0.814583;3.832083;203.0;-0.005859;0.030273;0.018555;-60000;-60000;2850;0;0;0
2024-11-05_10-09-54.380148;462954;65.333252;23.4375;0.880833;3.833334;190.0;-0.007812;0.03125;0.014648;-60000;-60000;2981;0;0;0
2024-11-05_10-09-54.537347;463097;100.0;23.4375;0.917917;3.827084;182.0;-0.004883;0.033203;0.007812;-60000;-60000;3141;0;0;0
2024-11-05_10-09-54.694975;463241;156.0;23.4375;0.961667;3.827917;170.0;-0.008789;0.032227;0.009766;-60000;-60000;3301;0;0;0
2024-11-05_10-09-54.883321;463527;237.333252;23.4375;0.969167;3.82125;148.0;-0.009766;0.033203;0.0;-60000;-60000;3491;0;0;0
2024-11-05_10-09-55.008848;463527;237.333252;23.4375;0.969167;3.82125;148.0;-0.009766;0.033203;0.0;-60000;-60000;3599;0;0;0
2024-11-05_10-09-55.260506;463807;153.333252;23.4375;0.970417;3.819584;128.0;-0.008789;0.030273;0.001953;-60000;-60000;3873;0;0;0
2024-11-05_10-09-55.495784;464087;186.666748;23.4375;0.7725;3.821667;112.0;-0.009766;0.03125;0.013672;-60000;-60000;4088;0;0;0
2024-11-05_10-09-55.636895;464224;130.666748;23.4375;0.673333;3.818334;102.0;-0.013672;0.03125;0.016602;-60000;-60000;4239;0;0;0
2024-11-05_10-09-55.777483;464358;4.0;23.4375;0.632083;3.825;95.0;-0.011719;0.032227;0.019531;20000;20000;4391;1;0;0
2024-11-05_10-09-55.953814;464504;-4.0;23.4375;0.790417;4.060417;93.0;-0.013672;0.032227;0.022461;20000;20000;4553;0;0;0
2024-11-05_10-09-56.092242;464652;-1.333374;23.4375;0.690833;4.03875;95.0;-0.014648;0.032227;0.016602;20000;20000;4697;0;0;0
2024-11-05_10-09-56.264136;464802;-5.333374;23.4375;0.265833;3.825417;95.0;-0.009766;0.02832;0.030273;20000;20000;4862;0;0;0
2024-11-05_10-09-56.640291;465244;-13.333374;23.4375;0.040833;3.82125;96.0;-0.012695;0.029297;0.026367;20000;20000;5230;0;0;0
2024-11-05_10-09-56.750156;465388;-5.333374;23.4375;0.02125;3.821667;96.0;-0.012695;0.030273;0.036133;20000;20000;5361;0;0;0
2024-11-05_10-09-57.000339;465534;-13.333374;23.4375;0.021667;3.821667;95.0;-0.011719;0.030273;0.036133;20000;20000;5604;0;0;0
2024-11-05_10-09-57.200603;465814;-10.666626;23.4375;0.021667;3.821667;94.0;-0.012695;0.03125;0.041016;60000;60000;50;0;2;0
2024-11-05_10-09-57.408881;465956;-5.333374;23.4375;0.04;3.822083;100.0;-0.014648;0.032227;0.036133;60000;60000;274;0;0;0
2024-11-05_10-09-57.518262;466094;-13.333374;23.4375;0.04625;3.821667;113.0;-0.010742;0.035156;0.025391;60000;60000;379;0;0;0
2024-11-05_10-09-57.691308;466236;-4.0;23.4375;0.041667;3.825;121.0;-0.015625;0.036133;0.023438;60000;60000;538;0;0;0
2024-11-05_10-09-57.832691;466372;-16.0;23.4375;0.083333;3.832917;127.0;-0.018555;0.038086;0.038086;60000;60000;680;0;0;0
2024-11-05_10-09-57.989400;466519;-13.333374;23.4375;0.101667;3.834583;140.0;-0.014648;0.03418;0.036133;60000;60000;840;0;0;0
2024-11-05_10-09-58.133267;466666;-13.333374;23.4375;0.122083;3.82875;150.0;-0.013672;0.03418;0.029297;60000;60000;990;0;0;0
2024-11-05_10-09-58.302886;466946;-16.0;23.4375;0.07;3.8275;169.0;-0.009766;0.029297;0.042969;60000;60000;1150;0;0;0
2024-11-05_10-09-58.466223;467084;-17.333374;23.4375;0.054167;3.832917;179.0;-0.009766;0.030273;0.040039;60000;60000;1310;0;0;0
2024-11-05_10-09-58.601284;467226;-18.666626;23.4375;0.051667;3.82875;191.0;-0.009766;0.029297;0.036133;60000;60000;1470;0;0;0
2024-11-05_10-09-58.758229;467369;-20.0;23.4375;0.0575;3.827084;198.0;-0.013672;0.029297;0.035156;60000;60000;1613;0;0;0
2024-11-05_10-09-59.056808;467665;-25.333374;23.4375;3.828334;3.828334;224.0;-0.010742;0.026367;0.038086;39999;39999;1902;0;0;0
2024-11-05_10-09-59.229973;467793;-30.666626;23.4375;0.18375;3.832917;226.0;-0.011719;0.035156;0.023438;20000;20000;2101;0;2;0
2024-11-05_10-09-59.387098;467931;-32.0;23.4375;0.29875;3.699584;230.0;-0.010742;0.03125;0.009766;0;0;2250;0;0;0
2024-11-05_10-09-59.669875;468228;-30.666626;23.4375;0.820833;3.680417;228.0;-0.011719;0.035156;0.017578;-30000;-30000;2519;0;0;0
2024-11-05_10-09-59.899932;468514;1.333374;23.4375;0.779583;3.642083;223.0;-0.012695;0.02832;0.013672;-49999;-49999;2739;0;0;0
2024-11-05_10-10-00.030910;468658;36.0;23.4375;0.837917;3.636667;208.0;-0.012695;0.029297;0.024414;-60000;-60000;2880;0;0;0
2024-11-05_10-10-00.252291;468806;86.666748;23.4375;0.875417;3.63125;200.0;-0.011719;0.025391;0.021484;-60000;-60000;3086;0;0;0
2024-11-05_10-10-00.378292;468945;169.333252;23.4375;0.937083;3.63;190.0;-0.011719;0.027344;0.022461;-60000;-60000;3229;0;0;0
2024-11-05_10-10-00.504161;469087;264.0;23.4375;3.63;3.627084;178.0;-0.009766;0.029297;0.023438;-60000;-60000;3360;0;0;0
2024-11-05_10-10-00.646159;469224;330.666748;23.4375;0.96125;3.625417;169.0;-0.010742;0.032227;0.008789;-60000;-60000;3499;0;0;0
2024-11-05_10-10-00.865259;469367;444.0;23.4375;0.970417;3.62625;160.0;-0.012695;0.03418;0.005859;-60000;-60000;3717;0;0;0
2024-11-05_10-10-01.080819;469656;497.333252;23.4375;0.9875;3.65;139.0;-0.008789;0.029297;-0.017578;0;0;3929;0;2;0
2024-11-05_10-10-01.257281;469797;473.333252;23.4375;0.955417;3.629167;135.0;-0.012695;0.03418;-0.013672;-60000;-60000;4120;0;0;0
2024-11-05_10-10-01.493926;470087;466.666748;23.4375;0.791667;3.631667;118.0;-0.014648;0.02832;-0.012695;-60000;-60000;4362;0;0;0
2024-11-05_10-10-01.603044;470224;358.666748;23.4375;0.6975;3.634583;110.0;-0.012695;0.033203;-0.00293;-60000;-60000;4450;0;0;0
2024-11-05_10-10-01.745608;470355;38.666626;23.4375;0.619583;3.64;102.0;-0.010742;0.033203;-0.00293;-60000;-60000;4600;0;0;0
2024-11-05_10-10-01.886510;470499;-4.0;23.4375;0.515833;3.632917;91.0;-0.017578;0.026367;0.011719;20000;20000;4740;1;0;0
2024-11-05_10-10-02.058382;470653;-2.666626;23.5;0.745;3.855834;92.0;-0.012695;0.026367;0.013672;20000;20000;4911;1;0;0
2024-11-05_10-10-02.199542;470802;-5.333374;23.4375;0.652083;3.717084;97.0;-0.013672;0.030273;0.004883;20000;20000;5061;0;0;0
2024-11-05_10-10-02.514629;471096;-4.0;23.4375;0.112917;3.637083;94.0;-0.014648;0.022461;0.029297;20000;20000;5380;0;0;0
2024-11-05_10-10-02.781098;471374;-5.333374;23.4375;0.087083;3.642083;94.0;-0.014648;0.027344;0.022461;20000;20000;5614;0;0;0
2024-11-05_10-10-03.141466;471667;-8.0;23.4375;0.02625;3.637083;94.0;-0.016602;0.022461;0.036133;20000;20000;5995;0;0;0
2024-11-05_10-10-03.398429;471947;-13.333374;23.5;0.02125;3.642083;93.0;-0.015625;0.029297;0.038086;60000;60000;10;0;0;0
2024-11-05_10-10-03.534768;472084;-18.666626;23.5;0.021667;3.642083;95.0;-0.017578;0.020508;0.036133;60000;60000;140;0;0;0
2024-11-05_10-10-03.647872;472227;-20.0;23.5;0.062083;3.642083;107.0;-0.013672;0.017578;0.033203;60000;60000;250;0;0;0
2024-11-05_10-10-03.802152;472374;-22.666626;23.5;0.045;3.6425;117.0;-0.011719;0.015625;0.045898;60000;60000;401;0;0;0
2024-11-05_10-10-03.943935;472518;-18.666626;23.5;0.132083;3.645833;127.0;-0.013672;0.018555;0.039062;60000;60000;538;0;0;0
2024-11-05_10-10-04.100605;472668;-22.666626;23.5;0.101667;3.647083;137.0;-0.012695;0.014648;0.033203;60000;60000;710;0;0;0
2024-11-05_10-10-04.321301;472957;-22.666626;23.5;0.059167;3.651667;154.0;-0.014648;0.024414;0.017578;60000;60000;933;0;0;0
2024-11-05_10-10-04.416023;472957;-22.666626;23.5;0.059167;3.651667;154.0;-0.014648;0.024414;0.017578;60000;60000;1021;0;0;0
2024-11-05_10-10-04.542029;473092;-22.666626;23.5;0.065833;3.6425;165.0;-0.014648;0.023438;0.013672;60000;60000;1152;0;0;0
2024-11-05_10-10-04.698844;473243;-29.333374;23.5;0.10875;3.6425;178.0;-0.020508;0.018555;0.009766;60000;60000;1310;0;0;0
2024-11-05_10-10-04.934238;473536;-29.333374;23.5;0.042917;3.65;198.0;-0.018555;0.014648;0.00293;60000;60000;1532;0;0;0
2024-11-05_10-10-05.028563;473673;-29.333374;23.5;3.645417;3.647083;207.0;-0.015625;0.016602;0.0;50000;50000;1640;0;0;0
2024-11-05_10-10-05.169849;473673;-29.333374;23.5;3.645417;3.647083;207.0;-0.015625;0.016602;0.0;30000;30000;1781;0;0;0
2024-11-05_10-10-05.477336;473983;-36.0;23.5;0.292083;3.477083;218.0;-0.018555;0.009766;0.006836;10000;10000;2043;0;0;0
2024-11-05_10-10-05.657505;474269;-61.333374;23.5;0.791667;3.57125;222.0;-0.014648;0.007812;-0.005859;-19999;-19999;2260;0;0;0
2024-11-05_10-10-05.814085;474417;-36.0;23.5;0.719167;3.537917;220.0;-0.016602;0.010742;-0.016602;-30000;-30000;2418;0;0;0
2024-11-05_10-10-05.955196;474554;-13.333374;23.5;0.78375;3.473333;214.0;-0.015625;0.010742;-0.019531;-49999;-49999;2569;0;0;0
2024-11-05_10-10-06.127511;474698;8.0;23.5;0.827917;3.466667;206.0;-0.015625;0.010742;-0.020508;-60000;-60000;2738;0;0;0
2024-11-05_10-10-06.253581;474846;48.0;23.5;0.893333;3.465417;193.0;-0.020508;0.014648;-0.024414;-60000;-60000;2870;0;0;0
2024-11-05_10-10-06.415400;474984;89.333252;23.5;0.921667;3.459584;184.0;-0.020508;0.012695;-0.026367;-60000;-60000;3020;0;0;0
2024-11-05_10-10-06.895809;475416;260.0;23.5;0.96;3.455833;155.0;-0.021484;0.014648;-0.03125;-60000;-60000;3490;0;0;0
2024-11-05_10-10-07.098648;475697;245.333252;23.5;1.046667;3.80125;136.0;-0.021484;0.017578;-0.032227;-60000;-60000;3699;0;2;0
2024-11-05_10-10-07.255602;475834;112.0;23.5;0.970833;3.457083;131.0;-0.019531;0.017578;-0.025391;-60000;-60000;3864;0;0;0
2024-11-05_10-10-07.434212;475990;65.333252;23.5;0.890417;3.459584;124.0;-0.019531;0.017578;-0.024414;-60000;-60000;4040;0;0;0
2024-11-05_10-10-07.554151;476144;68.0;23.5;0.757917;3.459584;113.0;-0.021484;0.018555;-0.018555;-60000;-60000;4159;0;0;0
2024-11-05_10-10-07.679113;476293;8.0;23.5;0.677917;3.459584;102.0;-0.022461;0.018555;-0.014648;-60000;-60000;4280;0;0;0
2024-11-05_10-10-07.836096;476443;-13.333374;23.5;0.597917;3.464167;92.0;-0.024414;0.018555;-0.015625;-60000;-60000;4440;0;0;0
2024-11-05_10-10-08.024538;476593;-17.333374;23.5;0.659583;3.585;89.0;-0.026367;0.015625;-0.005859;20000;20000;4601;1;0;0
2024-11-05_10-10-08.135232;476737;-21.333374;23.5;0.666667;3.539167;92.0;-0.024414;0.019531;-0.009766;20000;20000;4750;1;0;0
2024-11-05_10-10-08.307524;476877;-20.0;23.5;0.53875;3.618333;95.0;-0.022461;0.016602;0.00293;20000;20000;4910;0;1;0
2024-11-05_10-10-08.457885;477014;-16.0;23.5;0.130833;3.470834;96.0;-0.024414;0.018555;0.007812;20000;20000;5060;0;0;0
2024-11-05_10-10-08.605096;477157;-22.666626;23.5;0.071667;3.465;95.0;-0.022461;0.020508;0.016602;20000;20000;5220;0;0;0
2024-11-05_10-10-08.776977;477304;-18.666626;23.5625;0.051667;3.465834;97.0;-0.024414;0.020508;0.020508;20000;20000;5380;0;0;0
2024-11-05_10-10-08.933224;477586;-18.666626;23.5;0.034583;3.464584;96.0;-0.025391;0.020508;0.021484;20000;20000;5540;0;0;0
2024-11-05_10-10-09.136897;477727;-21.333374;23.5625;0.021667;3.464584;95.0;-0.023438;0.019531;0.026367;20000;20000;5706;0;0;0
2024-11-05_10-10-09.358202;477869;-21.333374;23.5625;0.021667;3.47;96.0;-0.026367;0.017578;0.02832;60000;60000;171;0;0;0
2024-11-05_10-10-09.562839;478157;-21.333374;23.5625;0.084583;3.47;115.0;-0.026367;0.014648;0.033203;60000;60000;363;0;0;0
2024-11-05_10-10-09.703821;478295;-22.666626;23.5625;0.119583;3.469167;124.0;-0.02832;0.019531;0.035156;60000;60000;523;0;0;0
2024-11-05_10-10-09.875705;478436;-25.333374;23.5625;0.104583;3.469167;134.0;-0.024414;0.022461;0.037109;60000;60000;683;0;0;0
2024-11-05_10-10-10.081825;478576;-22.666626;23.5625;0.060417;3.469584;143.0;-0.026367;0.019531;0.038086;60000;60000;887;0;0;0
2024-11-05_10-10-10.253444;478874;-25.333374;23.5625;0.115833;3.470834;162.0;-0.026367;0.018555;0.03418;60000;60000;1065;0;0;0
2024-11-05_10-10-10.362315;478874;-25.333374;23.5625;0.115833;3.470834;162.0;-0.026367;0.018555;0.03418;60000;60000;1168;0;0;0
2024-11-05_10-10-10.492678;479010;-22.666626;23.5625;0.119167;3.4725;172.0;-0.02832;0.016602;0.021484;60000;60000;1294;0;0;0
