Time;acc_x;acc_y;acc_z;

348944;0.064453;0.028320;1.191406;
349165;0.063477;0.030273;1.191406;
349315;0.066406;0.032227;1.201172;
349455;0.066406;0.032227;1.208984;
349595;0.065430;0.034180;1.210938;
349735;0.068359;0.034180;1.219727;
349875;0.069336;0.033203;1.229492;
350015;0.067383;0.030273;1.236328;
350155;0.071289;0.035156;1.229492;
350295;0.071289;0.032227;1.239258;
350435;0.071289;0.030273;1.239258;
350575;0.071289;0.033203;1.244141;
350715;0.073242;0.032227;1.246094;
350855;0.071289;0.034180;1.249023;
350995;0.074219;0.033203;1.256836;
351135;0.073242;0.029297;1.243164;
351275;0.071289;0.029297;1.249023;
351415;0.074219;0.031250;1.252930;
351551;0.072266;0.033203;1.245117;
351702;0.072266;0.030273;1.240234;
351841;0.074219;0.032227;1.241211;
351992;0.072266;0.029297;1.242188;
352135;0.071289;0.027344;1.246094;
352275;0.073242;0.030273;1.250977;
352415;0.076172;0.034180;1.266602;
352555;0.075195;0.027344;1.256836;
352691;0.074219;0.033203;1.266602;
352841;0.077148;0.034180;1.267578;
352992;0.077148;0.034180;1.272461;
353155;0.079102;0.034180;1.275391;
353295;0.078125;0.033203;1.283203;
353445;0.078125;0.034180;1.291016;
353587;0.075195;0.028320;1.289062;
353745;0.077148;0.032227;1.290039;
353885;0.080078;0.035156;1.294922;
354035;0.080078;0.032227;1.296875;
354171;0.082031;0.029297;1.303711;
354320;0.083984;0.026367;1.311523;
354481;0.083008;0.028320;1.310547;
354631;0.082031;0.024414;1.313477;
354771;0.084961;0.026367;1.303711;
354911;0.081055;0.029297;1.305664;
355065;0.080078;0.029297;1.297852;
355201;0.082031;0.024414;1.285156;
355355;0.082031;0.027344;1.291992;
355495;0.081055;0.027344;1.283203;
355635;0.080078;0.030273;1.284180;
355772;0.080078;0.030273;1.284180;
355925;0.079102;0.031250;1.269531;
356065;0.077148;0.031250;1.270508;
356205;0.076172;0.032227;1.254883;
356342;0.075195;0.034180;1.249023;
356495;0.073242;0.032227;1.236328;
356635;0.073242;0.033203;1.226562;
356775;0.071289;0.031250;1.211914;
356915;0.070312;0.033203;1.212891;
357060;0.068359;0.030273;1.189453;
357211;0.068359;0.036133;1.189453;
357360;0.064453;0.033203;1.165039;
357500;0.061523;0.033203;1.144531;
357645;0.059570;0.035156;1.117188;
357771;0.056641;0.035156;1.096680;
357920;0.053711;0.034180;1.071289;
358065;0.050781;0.032227;1.045898;
358205;0.045898;0.028320;1.028320;
358345;0.046875;0.033203;1.008789;
358485;0.042969;0.030273;0.995117;
358621;0.043945;0.034180;0.988281;
358765;0.041992;0.030273;0.983398;
358905;0.041016;0.034180;0.984375;
359045;0.041992;0.033203;0.989258;
359182;0.042969;0.031250;1.001953;
359335;0.044922;0.033203;1.008789;
359485;0.046875;0.033203;1.020508;
359625;0.050781;0.031250;1.034180;
359760;0.046875;0.029297;1.032227;
359910;0.049805;0.030273;1.044922;
360062;0.054688;0.032227;1.073242;
360201;0.053711;0.032227;1.083984;
360341;0.051758;0.035156;1.078125;
360493;0.054688;0.030273;1.079102;
360651;0.055664;0.024414;1.081055;
360805;0.056641;0.029297;1.103516;
360945;0.058594;0.031250;1.100586;
361085;0.057617;0.034180;1.105469;
361232;0.057617;0.031250;1.113281;
361371;0.056641;0.032227;1.115234;
361511;0.055664;0.029297;1.113281;
361655;0.056641;0.032227;1.107422;
361795;0.058594;0.031250;1.099609;
361935;0.056641;0.029297;1.099609;
362075;0.059570;0.032227;1.097656;
362201;0.059570;0.029297;1.105469;
362345;0.056641;0.029297;1.117188;
362485;0.062500;0.030273;1.127930;
362621;0.062500;0.029297;1.129883;
362761;0.062500;0.033203;1.152344;
362921;0.062500;0.032227;1.156250;
363072;0.064453;0.033203;1.161133;
363221;0.065430;0.030273;1.162109;
363361;0.066406;0.035156;1.173828;
363513;0.068359;0.033203;1.193359;
363665;0.066406;0.030273;1.204102;
363801;0.070312;0.030273;1.214844;
363955;0.070312;0.037109;1.217773;
364095;0.075195;0.031250;1.227539;
364235;0.073242;0.035156;1.228516;
364371;0.075195;0.036133;1.236328;
364515;0.074219;0.034180;1.230469;
364655;0.076172;0.030273;1.240234;
364795;0.077148;0.029297;1.237305;
364937;0.075195;0.032227;1.247070;
365095;0.076172;0.032227;1.248047;
365235;0.077148;0.036133;1.252930;
365375;0.076172;0.032227;1.238281;
365515;0.076172;0.034180;1.248047;
365650;0.076172;0.032227;1.252930;
365795;0.076172;0.037109;1.252930;
365931;0.080078;0.035156;1.259766;
366071;0.078125;0.036133;1.258789;
366221;0.079102;0.036133;1.269531;
366371;0.082031;0.034180;1.277344;
366521;0.081055;0.031250;1.277344;
366675;0.083008;0.036133;1.285156;
366812;0.083008;0.034180;1.285156;
366965;0.082031;0.035156;1.281250;
367115;0.083008;0.036133;1.285156;
367255;0.083008;0.034180;1.284180;
367401;0.083984;0.038086;1.291016;
367541;0.083984;0.030273;1.291992;
367685;0.083984;0.035156;1.284180;
367825;0.083984;0.033203;1.291016;
367965;0.082031;0.034180;1.278320;
368100;0.083984;0.035156;1.284180;
368255;0.083008;0.035156;1.279297;
368395;0.082031;0.036133;1.266602;
368535;0.083008;0.034180;1.266602;
368671;0.082031;0.034180;1.261719;
368820;0.083008;0.033203;1.258789;
368970;0.081055;0.034180;1.264648;
369122;0.081055;0.040039;1.259766;
369271;0.081055;0.036133;1.257812;
369425;0.080078;0.036133;1.250000;
369565;0.079102;0.036133;1.247070;
369715;0.081055;0.032227;1.256836;
369855;0.080078;0.038086;1.255859;
369991;0.080078;0.038086;1.262695;
370135;0.080078;0.033203;1.252930;
370275;0.079102;0.036133;1.268555;
370415;0.079102;0.035156;1.252930;
370552;0.081055;0.036133;1.263672;
370702;0.079102;0.038086;1.255859;
370855;0.080078;0.035156;1.261719;
370995;0.080078;0.033203;1.262695;
371145;0.079102;0.033203;1.259766;
371280;0.082031;0.034180;1.265625;
371431;0.083008;0.035156;1.271484;
371581;0.083008;0.036133;1.272461;
371732;0.082031;0.034180;1.265625;
371876;0.082031;0.029297;1.270508;
372000;0.082031;0.035156;1.274414;
372145;0.081055;0.031250;1.266602;
372285;0.083008;0.034180;1.274414;
372425;0.083984;0.027344;1.266602;
372565;0.083008;0.034180;1.277344;
372691;0.083984;0.029297;1.271484;
372855;0.083008;0.029297;1.274414;
372995;0.081055;0.027344;1.274414;
373135;0.080078;0.030273;1.275391;
373277;0.083008;0.031250;1.278320;
373425;0.082031;0.031250;1.267578;
373565;0.083984;0.032227;1.274414;
373705;0.083984;0.031250;1.273438;
373845;0.083008;0.030273;1.271484;
374001;0.083984;0.031250;1.278320;
374161;0.083008;0.033203;1.286133;
374311;0.083984;0.034180;1.285156;
374451;0.081055;0.035156;1.287109;
374595;0.082031;0.035156;1.281250;
374732;0.082031;0.036133;1.275391;
374870;0.083984;0.035156;1.284180;
375011;0.083008;0.032227;1.291016;
375155;0.084961;0.037109;1.312500;
375295;0.086914;0.035156;1.303711;
375435;0.084961;0.037109;1.309570;
375570;0.086914;0.036133;1.309570;
375725;0.084961;0.035156;1.311523;
375865;0.086914;0.034180;1.318359;
376005;0.085938;0.036133;1.314453;
376143;0.085938;0.035156;1.316406;
376295;0.086914;0.034180;1.311523;
376435;0.087891;0.029297;1.313477;
376575;0.088867;0.033203;1.315430;
376715;0.087891;0.037109;1.314453;
376865;0.086914;0.032227;1.313477;
377001;0.084961;0.035156;1.314453;
377151;0.086914;0.033203;1.303711;
377280;0.085938;0.038086;1.312500;
377431;0.086914;0.038086;1.293945;
377582;0.085938;0.033203;1.294922;
377735;0.083984;0.032227;1.286133;
377875;0.085938;0.031250;1.284180;
378015;0.082031;0.034180;1.279297;
378150;0.083008;0.036133;1.277344;
378305;0.082031;0.034180;1.266602;
378445;0.082031;0.039062;1.270508;
378585;0.080078;0.038086;1.253906;
378721;0.078125;0.039062;1.253906;
378865;0.076172;0.033203;1.231445;
379005;0.075195;0.035156;1.221680;
379145;0.074219;0.035156;1.210938;
379285;0.072266;0.031250;1.204102;
379425;0.070312;0.036133;1.200195;
379565;0.068359;0.038086;1.180664;
379701;0.067383;0.036133;1.171875;
379852;0.064453;0.037109;1.161133;
380002;0.064453;0.035156;1.160156;
380150;0.063477;0.036133;1.143555;
380301;0.063477;0.036133;1.144531;
380431;0.065430;0.035156;1.144531;
380575;0.065430;0.035156;1.162109;
380715;0.067383;0.032227;1.160156;
380855;0.065430;0.035156;1.175781;
381005;0.065430;0.031250;1.178711;
381145;0.069336;0.032227;1.185547;
381283;0.068359;0.034180;1.199219;
381435;0.074219;0.033203;1.205078;
381575;0.072266;0.034180;1.212891;
381715;0.072266;0.030273;1.216797;
381855;0.074219;0.033203;1.208008;
381990;0.071289;0.034180;1.226562;
382145;0.073242;0.034180;1.227539;
382285;0.075195;0.037109;1.235352;
382425;0.075195;0.038086;1.226562;
382562;0.073242;0.036133;1.232422;
382711;0.072266;0.038086;1.223633;
382855;0.073242;0.040039;1.232422;
382981;0.075195;0.038086;1.228516;
383120;0.073242;0.035156;1.218750;
383272;0.073242;0.036133;1.213867;
383422;0.074219;0.038086;1.217773;
383571;0.073242;0.038086;1.221680;
383733;0.073242;0.037109;1.212891;
383875;0.071289;0.036133;1.211914;
384025;0.071289;0.033203;1.201172;
384165;0.072266;0.037109;1.207031;
384291;0.071289;0.039062;1.208984;
384445;0.072266;0.036133;1.196289;
384585;0.071289;0.040039;1.212891;
384735;0.070312;0.039062;1.198242;
384875;0.070312;0.037109;1.198242;
385011;0.070312;0.039062;1.202148;
385165;0.070312;0.036133;1.191406;
385305;0.068359;0.038086;1.185547;
385455;0.070312;0.036133;1.181641;
385591;0.070312;0.035156;1.186523;
385740;0.069336;0.037109;1.186523;
385881;0.070312;0.032227;1.183594;
386031;0.068359;0.038086;1.193359;
386182;0.067383;0.035156;1.183594;
386331;0.068359;0.033203;1.194336;
386482;0.070312;0.038086;1.193359;
386633;0.069336;0.034180;1.192383;
386785;0.071289;0.035156;1.199219;
386935;0.071289;0.038086;1.198242;
387075;0.067383;0.038086;1.194336;
387211;0.067383;0.033203;1.182617;
387365;0.067383;0.036133;1.168945;
387515;0.066406;0.038086;1.166016;
387655;0.065430;0.034180;1.158203;
387801;0.064453;0.035156;1.142578;
387945;0.061523;0.037109;1.127930;
388085;0.059570;0.035156;1.114258;
388225;0.058594;0.034180;1.107422;
388363;0.056641;0.035156;1.091797;
388510;0.054688;0.038086;1.088867;
388661;0.055664;0.038086;1.081055;
388811;0.056641;0.037109;1.079102;
388961;0.054688;0.037109;1.088867;
389111;0.056641;0.042969;1.097656;
389251;0.055664;0.041992;1.100586;
389381;0.057617;0.039062;1.104492;
389521;0.057617;0.038086;1.102539;
389675;0.057617;0.039062;1.092773;
389815;0.055664;0.037109;1.102539;
389955;0.057617;0.035156;1.099609;
390095;0.058594;0.035156;1.100586;
390245;0.056641;0.038086;1.110352;
390395;0.059570;0.034180;1.116211;
390535;0.057617;0.036133;1.124023;
390677;0.056641;0.041992;1.119141;
390825;0.057617;0.037109;1.125977;
390965;0.053711;0.037109;1.114258;
391105;0.058594;0.039062;1.114258;
391245;0.056641;0.040039;1.118164;
391383;0.056641;0.033203;1.110352;
391531;0.056641;0.035156;1.115234;
391681;0.057617;0.034180;1.121094;
391821;0.057617;0.035156;1.116211;
391971;0.056641;0.033203;1.113281;
392121;0.057617;0.035156;1.117188;
392271;0.057617;0.033203;1.117188;
392411;0.056641;0.032227;1.110352;
392565;0.056641;0.034180;1.111328;
392705;0.055664;0.035156;1.112305;
392845;0.055664;0.037109;1.110352;
392983;0.057617;0.037109;1.115234;
393135;0.056641;0.034180;1.112305;
393275;0.055664;0.035156;1.111328;
393415;0.057617;0.036133;1.099609;
393565;0.054688;0.032227;1.106445;
393701;0.052734;0.032227;1.098633;
393835;0.055664;0.036133;1.096680;
393975;0.053711;0.035156;1.092773;
394115;0.051758;0.036133;1.088867;
394252;0.052734;0.037109;1.085938;
394401;0.049805;0.037109;1.088867;
394551;0.051758;0.039062;1.099609;
394691;0.052734;0.037109;1.094727;
394853;0.050781;0.031250;1.109375;
395005;0.057617;0.037109;1.131836;
395142;0.058594;0.036133;1.127930;
395271;0.057617;0.038086;1.146484;
395405;0.059570;0.035156;1.153320;
395545;0.059570;0.035156;1.166016;
395685;0.058594;0.037109;1.174805;
395831;0.062500;0.038086;1.172852;
395985;0.062500;0.038086;1.179688;
396125;0.063477;0.037109;1.187500;
396265;0.060547;0.033203;1.180664;
396405;0.063477;0.033203;1.185547;
396541;0.062500;0.035156;1.183594;
396695;0.062500;0.034180;1.184570;
396845;0.061523;0.035156;1.178711;
396981;0.060547;0.035156;1.175781;
397131;0.059570;0.036133;1.179688;
397281;0.061523;0.031250;1.170898;
397430;0.059570;0.032227;1.166992;
397583;0.060547;0.037109;1.178711;
397721;0.060547;0.037109;1.174805;
397860;0.059570;0.034180;1.166992;
398001;0.057617;0.033203;1.166992;
398155;0.057617;0.035156;1.159180;
398295;0.056641;0.032227;1.149414;
398435;0.056641;0.031250;1.143555;
398575;0.053711;0.036133;1.152344;
398715;0.056641;0.031250;1.142578;
398855;0.055664;0.037109;1.132812;
398995;0.053711;0.034180;1.123047;
399135;0.051758;0.033203;1.119141;
399271;0.051758;0.037109;1.122070;
399425;0.050781;0.037109;1.107422;
399565;0.050781;0.033203;1.097656;
399715;0.049805;0.036133;1.099609;
399851;0.046875;0.032227;1.091797;
400010;0.048828;0.039062;1.086914;
400163;0.047852;0.040039;1.088867;
400301;0.045898;0.035156;1.088867;
400451;0.048828;0.030273;1.091797;
400610;0.046875;0.028320;1.117188;
400761;0.047852;0.033203;1.114258;
400915;0.048828;0.040039;1.125977;
401055;0.049805;0.041992;1.125977;
401195;0.052734;0.034180;1.125000;
401341;0.050781;0.032227;1.128906;
401475;0.050781;0.033203;1.140625;
401615;0.050781;0.034180;1.146484;
401755;0.050781;0.033203;1.142578;
401897;0.051758;0.035156;1.139648;
402045;0.050781;0.036133;1.144531;
402195;0.048828;0.036133;1.125977;
402335;0.049805;0.035156;1.122070;
402475;0.049805;0.036133;1.128906;
402627;0.048828;0.037109;1.135742;
402782;0.047852;0.034180;1.125977;
402910;0.048828;0.034180;1.132812;
403066;0.045898;0.036133;1.114258;
403201;0.046875;0.035156;1.108398;
403352;0.047852;0.035156;1.115234;
403501;0.045898;0.032227;1.120117;
403641;0.046875;0.035156;1.122070;
403795;0.046875;0.035156;1.116211;
403930;0.045898;0.035156;1.123047;
404085;0.046875;0.038086;1.111328;
404225;0.043945;0.034180;1.101562;
404365;0.045898;0.034180;1.113281;
404500;0.043945;0.035156;1.110352;
404661;0.041992;0.036133;1.104492;
404805;0.042969;0.035156;1.106445;
404945;0.042969;0.034180;1.096680;
405085;0.041992;0.035156;1.092773;
405222;0.040039;0.034180;1.088867;
405375;0.040039;0.036133;1.092773;
405525;0.041016;0.033203;1.083008;
405667;0.039062;0.033203;1.083984;
405820;0.039062;0.036133;1.080078;
405971;0.040039;0.031250;1.074219;
406121;0.039062;0.034180;1.079102;
406272;0.038086;0.036133;1.075195;
406421;0.038086;0.035156;1.083984;
406571;0.039062;0.037109;1.084961;
406725;0.038086;0.033203;1.082031;
406872;0.040039;0.031250;1.088867;
407025;0.038086;0.035156;1.092773;
407175;0.039062;0.036133;1.092773;
407315;0.039062;0.037109;1.098633;
407455;0.038086;0.038086;1.093750;
407591;0.038086;0.038086;1.091797;
407745;0.038086;0.033203;1.096680;
407885;0.038086;0.038086;1.108398;
408025;0.040039;0.041016;1.108398;
408165;0.039062;0.037109;1.117188;
408315;0.040039;0.037109;1.119141;
408465;0.041016;0.037109;1.117188;
408605;0.041016;0.032227;1.124023;
408740;0.039062;0.035156;1.128906;
408891;0.041992;0.036133;1.142578;
409040;0.041016;0.036133;1.133789;
409192;0.039062;0.034180;1.125977;
409340;0.041016;0.034180;1.126953;
409481;0.038086;0.033203;1.137695;
409635;0.039062;0.037109;1.138672;
409775;0.041016;0.034180;1.139648;
409911;0.040039;0.034180;1.152344;
410065;0.041016;0.034180;1.139648;
410205;0.040039;0.033203;1.143555;
410345;0.041016;0.032227;1.149414;
410485;0.039062;0.036133;1.146484;
410621;0.038086;0.036133;1.139648;
410765;0.037109;0.033203;1.140625;
410905;0.039062;0.036133;1.137695;
411045;0.041016;0.033203;1.136719;
411181;0.037109;0.034180;1.126953;
411335;0.038086;0.037109;1.144531;
411475;0.038086;0.036133;1.139648;
411611;0.039062;0.039062;1.140625;
411750;0.037109;0.036133;1.136719;
411900;0.037109;0.035156;1.138672;
412050;0.038086;0.034180;1.145508;
412181;0.036133;0.032227;1.141602;
412321;0.037109;0.034180;1.141602;
412472;0.039062;0.036133;1.130859;
412631;0.035156;0.033203;1.125977;
412785;0.034180;0.033203;1.132812;
412925;0.032227;0.033203;1.139648;
413065;0.032227;0.033203;1.138672;
413205;0.037109;0.033203;1.130859;
413341;0.035156;0.033203;1.134766;
413485;0.034180;0.032227;1.137695;
413625;0.036133;0.032227;1.137695;
413765;0.035156;0.032227;1.141602;
413901;0.035156;0.033203;1.149414;
414055;0.035156;0.035156;1.145508;
414195;0.033203;0.037109;1.145508;
414335;0.032227;0.034180;1.135742;
414475;0.035156;0.036133;1.147461;
414621;0.033203;0.036133;1.140625;
414750;0.034180;0.034180;1.137695;
414891;0.032227;0.038086;1.154297;
415041;0.034180;0.036133;1.140625;
415191;0.034180;0.035156;1.146484;
415341;0.031250;0.034180;1.154297;
415491;0.033203;0.034180;1.142578;
415645;0.032227;0.036133;1.150391;
415785;0.034180;0.038086;1.152344;
415920;0.031250;0.036133;1.140625;
416075;0.031250;0.035156;1.154297;
416215;0.033203;0.035156;1.163086;
416355;0.035156;0.035156;1.145508;
416502;0.031250;0.036133;1.146484;
416655;0.032227;0.036133;1.147461;
416805;0.032227;0.040039;1.160156;
416945;0.030273;0.037109;1.130859;
417085;0.029297;0.034180;1.138672;
417220;0.027344;0.039062;1.150391;
417375;0.029297;0.040039;1.158203;
417517;0.030273;0.040039;1.159180;
417672;0.029297;0.040039;1.146484;
417820;0.029297;0.041016;1.149414;
417981;0.029297;0.041992;1.172852;
418131;0.028320;0.041016;1.159180;
418281;0.031250;0.040039;1.162109;
418435;0.032227;0.037109;1.169922;
418575;0.030273;0.037109;1.171875;
418725;0.028320;0.038086;1.171875;
418865;0.030273;0.035156;1.170898;
419011;0.029297;0.034180;1.178711;
419155;0.029297;0.038086;1.179688;
419295;0.029297;0.035156;1.185547;
419435;0.028320;0.033203;1.185547;
419571;0.030273;0.035156;1.192383;
419725;0.029297;0.031250;1.187500;
419865;0.029297;0.031250;1.187500;
420005;0.029297;0.036133;1.190430;
420145;0.028320;0.038086;1.174805;
420282;0.027344;0.034180;1.184570;
420431;0.026367;0.034180;1.179688;
420571;0.025391;0.034180;1.167969;
420731;0.025391;0.036133;1.167969;
420881;0.026367;0.035156;1.148438;
421021;0.024414;0.041016;1.151367;
421171;0.023438;0.039062;1.167969;
421322;0.024414;0.037109;1.161133;
421485;0.024414;0.036133;1.150391;
421625;0.024414;0.036133;1.152344;
421765;0.021484;0.035156;1.140625;
421905;0.020508;0.037109;1.146484;
422042;0.020508;0.037109;1.121094;
422195;0.020508;0.038086;1.113281;
422335;0.017578;0.037109;1.096680;
422475;0.018555;0.036133;1.075195;
422615;0.013672;0.035156;1.054688;
422751;0.011719;0.033203;1.032227;
422901;0.010742;0.037109;1.022461;
423055;0.011719;0.032227;1.017578;
423195;0.010742;0.036133;1.033203;
423335;0.011719;0.035156;1.041992;
423471;0.014648;0.037109;1.073242;
423610;0.015625;0.038086;1.080078;
423761;0.012695;0.033203;1.094727;
423911;0.014648;0.038086;1.123047;
424042;0.019531;0.037109;1.128906;
424183;0.021484;0.036133;1.157227;
424341;0.021484;0.040039;1.167969;
424491;0.022461;0.037109;1.174805;
424630;0.025391;0.037109;1.174805;
424775;0.022461;0.034180;1.190430;
424925;0.025391;0.037109;1.193359;
425067;0.023438;0.037109;1.191406;
425225;0.024414;0.038086;1.186523;
425375;0.021484;0.033203;1.176758;
425515;0.020508;0.032227;1.175781;
425657;0.018555;0.030273;1.160156;
425801;0.020508;0.032227;1.156250;
425945;0.019531;0.033203;1.137695;
426095;0.015625;0.031250;1.129883;
426235;0.012695;0.031250;1.110352;
426371;0.014648;0.029297;1.087891;
426525;0.009766;0.026367;1.069336;
426665;0.010742;0.030273;1.057617;
426801;0.007812;0.031250;1.042969;
426951;0.009766;0.028320;1.044922;
427092;0.006836;0.027344;1.030273;
427242;0.004883;0.029297;1.028320;
427390;0.005859;0.029297;1.018555;
427545;0.004883;0.028320;1.015625;
427682;0.004883;0.029297;1.020508;
427845;0.006836;0.032227;1.021484;
427985;0.006836;0.030273;1.017578;
428125;0.005859;0.035156;1.025391;
428260;0.005859;0.034180;1.019531;
428415;0.000977;0.035156;1.022461;
428555;0.006836;0.030273;1.039062;
428695;0.006836;0.033203;1.035156;
428835;0.003906;0.033203;1.034180;
428971;0.002930;0.030273;1.044922;
429115;0.002930;0.032227;1.041016;
429255;0.004883;0.036133;1.038086;
429395;0.004883;0.030273;1.047852;
429537;0.003906;0.030273;1.046875;
429680;0.003906;0.032227;1.049805;
429831;0.005859;0.030273;1.050781;
429982;0.001953;0.030273;1.044922;
430130;0.000977;0.029297;1.046875;
430271;0.002930;0.031250;1.044922;
430421;0.002930;0.034180;1.054688;
430575;0.000977;0.031250;1.060547;
430715;0.001953;0.036133;1.049805;
430855;0.000000;0.037109;1.050781;
430995;0.000977;0.036133;1.055664;
431120;0.001953;0.034180;1.063477;
431255;0.000977;0.033203;1.057617;
431395;0.002930;0.034180;1.072266;
431535;0.000000;0.033203;1.055664;
431675;0.002930;0.028320;1.060547;
431811;0.000000;0.032227;1.065430;
431965;-0.000977;0.033203;1.065430;
432105;0.001953;0.032227;1.062500;
432255;-0.000977;0.035156;1.062500;
432391;-0.000977;0.038086;1.059570;
432541;0.000000;0.037109;1.062500;
432691;-0.000977;0.038086;1.066406;
432831;-0.001953;0.038086;1.063477;
432982;-0.002930;0.041016;1.064453;
433130;0.000000;0.039062;1.066406;
433281;-0.001953;0.040039;1.063477;
433431;-0.000977;0.038086;1.076172;
433595;-0.002930;0.036133;1.069336;
433735;-0.003906;0.034180;1.080078;
433885;0.000000;0.034180;1.080078;
434020;-0.000977;0.030273;1.093750;
434171;-0.003906;0.031250;1.084961;
434325;-0.000977;0.026367;1.097656;
434475;-0.001953;0.028320;1.101562;
434615;0.000977;0.027344;1.106445;
434751;-0.000977;0.029297;1.118164;
434905;-0.000977;0.026367;1.133789;
435055;0.000000;0.029297;1.152344;
435195;0.001953;0.029297;1.160156;
435337;0.002930;0.027344;1.155273;
435480;0.001953;0.031250;1.174805;
435631;0.002930;0.031250;1.176758;
435780;0.002930;0.030273;1.176758;
435931;0.002930;0.032227;1.187500;
436080;0.000977;0.033203;1.184570;
436235;0.004883;0.032227;1.193359;
436375;0.002930;0.032227;1.193359;
436515;0.000000;0.039062;1.196289;
436665;0.005859;0.032227;1.204102;
436802;0.004883;0.030273;1.198242;
436955;0.000000;0.032227;1.196289;
437095;0.000000;0.042969;1.206055;
437235;0.004883;0.035156;1.192383;
437382;-0.000977;0.035156;1.199219;
437521;0.001953;0.033203;1.205078;
437675;0.002930;0.031250;1.192383;
437815;0.001953;0.031250;1.206055;
437965;-0.000977;0.031250;1.203125;
438101;0.003906;0.030273;1.209961;
438251;0.002930;0.026367;1.206055;
438402;-0.000977;0.032227;1.205078;
438561;0.003906;0.027344;1.202148;
438712;-0.002930;0.031250;1.210938;
438855;0.002930;0.029297;1.208008;
438991;0.002930;0.033203;1.217773;
439141;0.000977;0.032227;1.210938;
439302;0.000977;0.034180;1.210938;
439445;0.000000;0.033203;1.210938;
439585;-0.000977;0.034180;1.213867;
439725;0.000977;0.036133;1.213867;
439872;0.000000;0.035156;1.216797;
440025;-0.002930;0.034180;1.215820;
440165;0.003906;0.036133;1.226562;
440305;0.002930;0.031250;1.220703;
440445;-0.001953;0.035156;1.221680;
440571;-0.002930;0.035156;1.228516;
440705;-0.003906;0.029297;1.222656;
440845;0.001953;0.028320;1.227539;
440985;0.002930;0.030273;1.214844;
441125;-0.003906;0.030273;1.214844;
441272;-0.003906;0.033203;1.203125;
441421;-0.000977;0.034180;1.211914;
441571;-0.002930;0.035156;1.218750;
441721;-0.002930;0.028320;1.221680;
441861;0.000977;0.028320;1.246094;
442011;0.000977;0.035156;1.272461;
442161;0.004883;0.031250;1.301758;
442305;0.006836;0.028320;1.324219;
442431;0.007812;0.034180;1.346680;
442575;0.005859;0.034180;1.350586;
442711;0.010742;0.029297;1.373047;
442865;0.008789;0.026367;1.357422;
443005;0.008789;0.022461;1.358398;
443145;0.014648;0.026367;1.361328;
443290;0.015625;0.025391;1.344727;
443425;0.012695;0.024414;1.321289;
443565;0.016602;0.024414;1.319336;
443705;0.017578;0.026367;1.298828;
443845;0.018555;0.028320;1.289062;
443972;0.020508;0.028320;1.284180;
444125;0.024414;0.030273;1.275391;
444265;0.024414;0.026367;1.264648;
444405;0.027344;0.024414;1.258789;
444541;0.029297;0.029297;1.267578;
444690;0.025391;0.028320;1.264648;
444841;0.028320;0.030273;1.274414;
444981;0.024414;0.028320;1.269531;
445121;0.032227;0.023438;1.270508;
445262;0.031250;0.025391;1.277344;
445410;0.034180;0.021484;1.266602;
445561;0.037109;0.022461;1.280273;
445711;0.043945;0.027344;1.278320;
445855;0.048828;0.028320;1.283203;
445995;0.050781;0.029297;1.285156;
446131;0.054688;0.028320;1.286133;
446275;0.057617;0.027344;1.278320;
446415;0.055664;0.023438;1.274414;
446555;0.059570;0.026367;1.275391;
446691;0.063477;0.021484;1.273438;
446831;0.063477;0.023438;1.283203;
446965;0.063477;0.026367;1.282227;
447105;0.067383;0.027344;1.291992;
447245;0.068359;0.026367;1.283203;
447385;0.066406;0.028320;1.284180;
447525;0.069336;0.026367;1.266602;
447665;0.069336;0.028320;1.265625;
447801;0.070312;0.029297;1.271484;
447940;0.071289;0.028320;1.263672;
448090;0.070312;0.028320;1.266602;
448240;0.070312;0.031250;1.253906;
448390;0.071289;0.028320;1.236328;
448541;0.070312;0.030273;1.231445;
448675;0.074219;0.030273;1.217773;
448811;0.072266;0.029297;1.191406;
448951;0.078125;0.033203;1.196289;
449101;0.074219;0.025391;1.185547;
449255;0.078125;0.025391;1.159180;
449395;0.081055;0.027344;1.168945;
449535;0.083008;0.034180;1.166016;
449670;0.083008;0.029297;1.136719;
449825;0.081055;0.031250;1.117188;
449965;0.081055;0.041016;1.105469;
450105;0.084961;0.036133;1.100586;
450242;0.083984;0.038086;1.094727;
450390;0.087891;0.033203;1.103516;
450535;0.085938;0.034180;1.103516;
450675;0.090820;0.029297;1.105469;
450825;0.091797;0.030273;1.099609;
450962;0.093750;0.032227;1.106445;
451111;0.096680;0.032227;1.091797;
451241;0.094727;0.031250;1.071289;
451380;0.091797;0.031250;1.056641;
451530;0.090820;0.037109;1.042969;
451672;0.088867;0.034180;1.025391;
451820;0.084961;0.034180;1.025391;
451971;0.084961;0.036133;1.010742;
452125;0.086914;0.032227;0.984375;
452265;0.082031;0.034180;0.970703;
452405;0.082031;0.030273;0.953125;
452545;0.082031;0.029297;0.949219;
452691;0.077148;0.031250;0.945312;
452845;0.076172;0.028320;0.958984;
452995;0.072266;0.032227;0.943359;
453135;0.063477;0.033203;0.928711;
453271;0.056641;0.026367;0.887695;
453425;0.048828;0.028320;0.855469;
453565;0.039062;0.026367;0.831055;
453705;0.040039;0.023438;0.823242;
453842;0.038086;0.022461;0.803711;
453991;0.036133;0.022461;0.798828;
454142;0.036133;0.019531;0.791016;
454293;0.036133;0.018555;0.801758;
454440;0.037109;0.023438;0.837891;
454591;0.037109;0.017578;0.844727;
454730;0.039062;0.018555;0.889648;
454885;0.039062;0.024414;0.933594;
455025;0.040039;0.022461;0.980469;
455165;0.041016;0.024414;1.024414;
455300;0.040039;0.017578;1.048828;
455440;0.039062;0.027344;1.081055;
455585;0.036133;0.027344;1.091797;
455725;0.034180;0.023438;1.117188;
455865;0.028320;0.024414;1.128906;
456011;0.029297;0.025391;1.132812;
456140;0.029297;0.027344;1.133789;
456285;0.024414;0.027344;1.121094;
456435;0.019531;0.026367;1.091797;
456575;0.016602;0.029297;1.082031;
456715;0.010742;0.023438;1.050781;
456851;0.010742;0.020508;1.033203;
457001;0.008789;0.018555;1.004883;
457150;0.006836;0.024414;0.999023;
457301;0.000977;0.022461;0.986328;
457430;0.003906;0.024414;0.978516;
457580;0.000000;0.023438;0.971680;
457730;0.000977;0.023438;0.973633;
457875;0.000000;0.028320;0.968750;
458015;0.002930;0.031250;0.964844;
458151;0.003906;0.028320;0.955078;
458305;0.000000;0.026367;0.962891;
458445;0.000977;0.026367;0.946289;
458585;0.002930;0.027344;0.971680;
458731;0.002930;0.023438;0.994141;
458885;0.003906;0.026367;0.989258;
459025;0.003906;0.026367;1.015625;
459165;0.004883;0.025391;1.022461;
459305;0.006836;0.024414;1.031250;
459450;0.009766;0.029297;1.062500;
459595;0.006836;0.025391;1.056641;
459735;0.007812;0.024414;1.073242;
459880;0.007812;0.025391;1.074219;
460030;0.008789;0.029297;1.092773;
460181;0.007812;0.025391;1.088867;
460331;0.011719;0.023438;1.100586;
460461;0.006836;0.023438;1.100586;
460601;0.007812;0.022461;1.105469;
460755;0.011719;0.020508;1.089844;
460891;0.008789;0.026367;1.091797;
461045;0.009766;0.025391;1.085938;
461185;0.006836;0.025391;1.077148;
461325;0.007812;0.023438;1.074219;
461460;0.005859;0.022461;1.069336;
461615;0.007812;0.027344;1.066406;
461755;0.009766;0.026367;1.070312;
461905;0.005859;0.024414;1.074219;
462041;0.008789;0.026367;1.070312;
462195;0.010742;0.025391;1.077148;
462335;0.007812;0.023438;1.074219;
462475;0.008789;0.020508;1.082031;
462615;0.008789;0.022461;1.060547;
462751;0.008789;0.024414;1.079102;
462900;0.007812;0.021484;1.066406;
463045;0.008789;0.022461;1.074219;
463180;0.008789;0.023438;1.066406;
463331;0.010742;0.019531;1.066406;
463481;0.005859;0.021484;1.074219;
463620;0.007812;0.020508;1.072266;
463771;0.008789;0.027344;1.074219;
463921;0.009766;0.025391;1.084961;
464075;0.006836;0.029297;1.085938;
464211;0.007812;0.017578;1.097656;
464345;0.011719;0.023438;1.109375;
464485;0.010742;0.019531;1.121094;
464625;0.010742;0.022461;1.119141;
464771;0.013672;0.020508;1.140625;
464925;0.013672;0.022461;1.155273;
465065;0.012695;0.017578;1.152344;
465205;0.014648;0.021484;1.167969;
465345;0.013672;0.018555;1.154297;
465481;0.013672;0.021484;1.166016;
465635;0.015625;0.022461;1.162109;
465775;0.013672;0.022461;1.163086;
465915;0.014648;0.021484;1.168945;
466052;0.013672;0.024414;1.154297;
466201;0.013672;0.020508;1.129883;
466340;0.010742;0.024414;1.107422;
466491;0.009766;0.020508;1.078125;
466641;0.008789;0.024414;1.049805;
466785;0.007812;0.023438;1.027344;
466925;0.007812;0.025391;1.013672;
467061;0.006836;0.021484;0.992188;
467201;0.007812;0.021484;0.981445;
467351;0.004883;0.024414;0.961914;
467501;0.005859;0.026367;0.964844;
467655;0.000000;0.025391;0.952148;
467805;0.001953;0.027344;0.948242;
467945;0.004883;0.020508;0.954102;
468081;0.001953;0.026367;0.949219;
468235;0.002930;0.027344;0.947266;
468375;0.002930;0.023438;0.942383;
468515;0.003906;0.021484;0.951172;
468655;0.001953;0.025391;0.955078;
468801;0.004883;0.023438;0.938477;
468931;0.006836;0.022461;0.959961;
469075;0.003906;0.020508;0.940430;
469215;0.003906;0.027344;0.939453;
469355;0.002930;0.024414;0.919922;
469491;0.001953;0.023438;0.930664;
469642;0.000977;0.022461;0.915039;
469792;0.003906;0.020508;0.905273;
469941;0.000977;0.022461;0.906250;
470091;0.001953;0.022461;0.886719;
470225;0.001953;0.026367;0.880859;
470361;0.000000;0.024414;0.859375;
470501;-0.003906;0.027344;0.853516;
470650;-0.000977;0.029297;0.854492;
470791;0.002930;0.031250;0.865234;
470941;-0.001953;0.029297;0.871094;
471071;-0.000977;0.029297;0.878906;
471215;0.001953;0.027344;0.892578;
471355;0.001953;0.030273;0.901367;
471495;0.000977;0.027344;0.912109;
471642;-0.000977;0.025391;0.905273;
471785;0.006836;0.022461;0.923828;
471935;0.003906;0.020508;0.938477;
472075;0.003906;0.019531;0.932617;
472215;0.002930;0.025391;0.941406;
472350;0.002930;0.021484;0.940430;
472481;0.003906;0.018555;0.947266;
472625;0.003906;0.021484;0.953125;
472761;0.001953;0.023438;0.950195;
472911;0.002930;0.023438;0.953125;
473061;0.004883;0.022461;0.949219;
473211;0.000977;0.025391;0.941406;
473361;0.000000;0.023438;0.931641;
473511;0.001953;0.025391;0.920898;
473655;0.000977;0.026367;0.906250;
473782;0.001953;0.025391;0.902344;
473935;-0.001953;0.029297;0.895508;
474075;-0.001953;0.029297;0.875000;
474215;-0.000977;0.023438;0.875977;
474355;-0.001953;0.028320;0.859375;
474495;0.001953;0.029297;0.867188;
474630;-0.001953;0.027344;0.864258;
474785;0.000000;0.027344;0.874023;
474925;-0.001953;0.025391;0.872070;
475065;-0.000977;0.025391;0.889648;
475200;-0.000977;0.027344;0.914062;
475332;0.000977;0.021484;0.913086;
475485;0.001953;0.023438;0.947266;
475625;0.002930;0.023438;0.947266;
475775;0.003906;0.021484;0.960938;
475911;0.001953;0.021484;0.974609;
476061;0.001953;0.020508;0.975586;
476201;0.000977;0.024414;0.993164;
476361;0.002930;0.022461;0.988281;
476510;0.003906;0.020508;0.992188;
476651;0.001953;0.023438;0.990234;
476802;0.002930;0.019531;0.992188;
476950;0.002930;0.022461;1.012695;
477105;0.000977;0.022461;0.993164;
477245;0.002930;0.021484;0.996094;
477385;0.004883;0.022461;1.001953;
477521;0.002930;0.019531;0.993164;
477675;0.002930;0.022461;1.000000;
477815;0.000000;0.023438;0.999023;
477955;0.000000;0.021484;1.004883;
478095;0.003906;0.024414;0.998047;
478230;0.000977;0.029297;1.005859;
478385;0.002930;0.023438;1.004883;
478525;0.002930;0.022461;0.993164;
478665;0.002930;0.021484;1.001953;
478801;0.005859;0.025391;1.002930;
478940;0.001953;0.020508;0.995117;
479081;0.000977;0.026367;1.004883;
479231;0.003906;0.021484;1.003906;
479382;0.000977;0.023438;1.009766;
479531;-0.000977;0.019531;0.996094;
479682;0.002930;0.023438;1.002930;
479845;0.000977;0.024414;1.005859;
479985;0.007812;0.018555;1.010742;
480125;0.003906;0.023438;1.023438;
480265;-0.000977;0.022461;1.004883;
480400;0.002930;0.027344;1.017578;
480555;0.001953;0.022461;1.018555;
480695;0.003906;0.023438;1.016602;
480835;0.001953;0.023438;1.016602;
480982;0.000977;0.025391;1.019531;
481135;0.001953;0.027344;1.030273;
481285;0.000977;0.026367;1.021484;
481425;0.000977;0.026367;1.032227;
481567;0.000000;0.021484;1.025391;
481721;0.002930;0.024414;1.030273;
481860;0.000977;0.024414;1.042969;
482001;0.001953;0.023438;1.041992;
482160;0.001953;0.021484;1.051758;
482310;0.001953;0.023438;1.066406;
482460;0.000977;0.019531;1.057617;
482615;0.004883;0.022461;1.074219;
482755;0.001953;0.021484;1.070312;
482895;0.000977;0.025391;1.069336;
483031;0.000977;0.023438;1.081055;
483185;0.001953;0.024414;1.074219;
483325;0.001953;0.021484;1.067383;
483465;0.001953;0.018555;1.062500;
483605;0.004883;0.018555;1.069336;
483741;0.001953;0.022461;1.071289;
483885;0.002930;0.019531;1.060547;
484025;0.001953;0.023438;1.065430;
484165;0.000000;0.022461;1.066406;
484305;-0.004883;0.021484;1.049805;
484442;-0.007812;0.023438;1.054688;
484591;-0.010742;0.023438;1.065430;
484741;-0.016602;0.024414;1.049805;
484890;-0.018555;0.031250;1.052734;
485041;-0.016602;0.027344;1.051758;
485191;-0.020508;0.032227;1.045898;
485341;-0.021484;0.038086;1.057617;
485493;-0.022461;0.031250;1.057617;
485631;-0.020508;0.038086;1.077148;
485775;-0.016602;0.037109;1.106445;
485915;-0.017578;0.030273;1.128906;
486055;-0.015625;0.028320;1.157227;
486195;-0.012695;0.031250;1.185547;
486335;-0.017578;0.021484;1.191406;
486475;-0.012695;0.020508;1.219727;
486611;-0.014648;0.017578;1.227539;
486765;-0.012695;0.014648;1.240234;
486905;-0.013672;0.014648;1.245117;
487045;-0.010742;0.014648;1.259766;
487182;-0.012695;0.017578;1.255859;
487335;-0.014648;0.016602;1.240234;
487475;-0.011719;0.020508;1.237305;
487615;-0.011719;0.013672;1.220703;
487751;-0.013672;0.015625;1.199219;
487901;-0.012695;0.024414;1.199219;
488052;-0.010742;0.024414;1.178711;
488202;-0.013672;0.022461;1.164062;
488351;-0.013672;0.023438;1.152344;
488500;-0.016602;0.027344;1.142578;
488635;-0.014648;0.020508;1.125000;
488785;-0.012695;0.026367;1.112305;
488925;-0.017578;0.025391;1.114258;
489065;-0.016602;0.028320;1.099609;
489205;-0.015625;0.022461;1.075195;
489345;-0.015625;0.025391;1.070312;
489485;-0.016602;0.020508;1.074219;
489625;-0.019531;0.020508;1.051758;
489765;-0.017578;0.021484;1.061523;
489905;-0.020508;0.020508;1.048828;
490045;-0.019531;0.022461;1.049805;
490185;-0.021484;0.021484;1.047852;
490325;-0.022461;0.025391;1.048828;
490465;-0.019531;0.025391;1.041016;
490601;-0.022461;0.019531;1.032227;
490752;-0.020508;0.026367;1.035156;
490901;-0.019531;0.021484;1.032227;
491052;-0.021484;0.025391;1.030273;
491201;-0.023438;0.022461;1.022461;
491335;-0.026367;0.027344;1.016602;
491470;-0.022461;0.026367;1.026367;
491621;-0.027344;0.030273;1.001953;
491775;-0.029297;0.023438;0.990234;
491915;-0.030273;0.021484;0.994141;
492055;-0.032227;0.021484;0.995117;
492195;-0.032227;0.018555;0.980469;
492335;-0.035156;0.018555;0.995117;
492485;-0.035156;0.022461;1.003906;
492625;-0.036133;0.019531;0.992188;
492765;-0.036133;0.027344;0.973633;
492915;-0.039062;0.021484;0.973633;
493055;-0.039062;0.027344;0.971680;
493205;-0.036133;0.024414;0.988281;
493345;-0.036133;0.027344;0.980469;
493485;-0.036133;0.026367;0.974609;
493635;-0.034180;0.028320;0.982422;
493771;-0.038086;0.030273;0.979492;
493920;-0.036133;0.027344;1.000000;
494060;-0.036133;0.026367;0.998047;
494210;-0.032227;0.022461;1.016602;
494361;-0.034180;0.026367;1.015625;
494515;-0.034180;0.025391;1.043945;
494655;-0.037109;0.024414;1.029297;
494795;-0.031250;0.023438;1.062500;
494935;-0.033203;0.018555;1.051758;
495075;-0.032227;0.021484;1.066406;
495225;-0.031250;0.020508;1.049805;
495365;-0.032227;0.021484;1.046875;
495505;-0.033203;0.022461;1.056641;
495645;-0.031250;0.024414;1.054688;
495785;-0.031250;0.019531;1.053711;
495925;-0.033203;0.026367;1.060547;
496065;-0.034180;0.020508;1.076172;
496215;-0.029297;0.022461;1.075195;
496355;-0.030273;0.024414;1.098633;
496495;-0.029297;0.028320;1.099609;
496641;-0.029297;0.023438;1.103516;
496781;-0.028320;0.026367;1.091797;
496920;-0.030273;0.027344;1.100586;
497060;-0.027344;0.023438;1.093750;
497205;-0.031250;0.022461;1.096680;
497345;-0.029297;0.022461;1.092773;
497495;-0.028320;0.025391;1.101562;
497635;-0.030273;0.019531;1.085938;
497775;-0.031250;0.022461;1.062500;
497915;-0.028320;0.017578;1.067383;
498055;-0.037109;0.020508;1.034180;
498195;-0.032227;0.024414;1.026367;
498335;-0.034180;0.023438;1.013672;
498475;-0.037109;0.023438;0.992188;
498615;-0.036133;0.020508;0.992188;
498765;-0.036133;0.021484;0.996094;
498905;-0.040039;0.023438;0.984375;
499045;-0.036133;0.023438;0.985352;
499191;-0.036133;0.022461;0.973633;
499341;-0.040039;0.026367;0.976562;
499492;-0.037109;0.017578;0.966797;
499640;-0.037109;0.022461;0.964844;
499790;-0.037109;0.023438;0.977539;
499935;-0.040039;0.024414;0.969727;
500075;-0.034180;0.024414;0.973633;
500215;-0.040039;0.026367;0.979492;
500355;-0.037109;0.026367;0.986328;
500495;-0.037109;0.023438;0.975586;
500635;-0.033203;0.024414;0.989258;
500785;-0.035156;0.025391;0.985352;
500925;-0.038086;0.022461;0.984375;
501065;-0.032227;0.022461;0.984375;
501205;-0.036133;0.017578;0.981445;
501345;-0.034180;0.026367;0.989258;
501485;-0.035156;0.021484;0.983398;
501625;-0.034180;0.025391;0.986328;
501765;-0.033203;0.020508;0.998047;
501901;-0.034180;0.020508;1.009766;
502051;-0.031250;0.024414;1.037109;
502202;-0.030273;0.026367;1.057617;
502351;-0.028320;0.022461;1.090820;
502495;-0.029297;0.021484;1.095703;
502635;-0.025391;0.015625;1.104492;
502775;-0.027344;0.025391;1.129883;
502915;-0.025391;0.022461;1.138672;
503055;-0.023438;0.019531;1.144531;
503195;-0.026367;0.022461;1.136719;
503335;-0.027344;0.019531;1.133789;
503475;-0.024414;0.021484;1.115234;
503615;-0.025391;0.027344;1.128906;
503765;-0.028320;0.019531;1.115234;
503905;-0.024414;0.022461;1.134766;
504045;-0.025391;0.022461;1.116211;
504185;-0.025391;0.019531;1.108398;
504325;-0.024414;0.021484;1.105469;
504460;-0.023438;0.018555;1.083008;
504611;-0.023438;0.023438;1.084961;
504760;-0.022461;0.021484;1.083984;
504911;-0.018555;0.017578;1.088867;
505062;-0.013672;0.021484;1.083984;
505215;-0.012695;0.024414;1.067383;
505365;-0.007812;0.020508;1.068359;
505505;-0.005859;0.020508;1.063477;
505645;-0.001953;0.026367;1.068359;
505785;-0.001953;0.015625;1.049805;
505925;0.002930;0.024414;1.051758;
506065;0.000977;0.020508;1.050781;
506205;0.006836;0.023438;1.054688;
506345;0.003906;0.018555;1.037109;
506485;0.006836;0.019531;1.037109;
506625;0.005859;0.019531;1.023438;
506765;0.005859;0.024414;1.030273;
506905;0.010742;0.020508;1.027344;
507045;0.009766;0.021484;1.017578;
507182;0.010742;0.022461;1.017578;
507331;0.010742;0.018555;1.014648;
507480;0.011719;0.023438;1.006836;
507640;0.012695;0.019531;1.004883;
507795;0.012695;0.018555;1.002930;
507935;0.016602;0.019531;1.000000;
508075;0.016602;0.021484;0.999023;
508225;0.017578;0.022461;0.995117;
508365;0.019531;0.024414;1.000000;
508505;0.027344;0.020508;0.992188;
508655;0.029297;0.017578;0.986328;
508795;0.033203;0.020508;0.986328;
508935;0.035156;0.023438;0.997070;
509075;0.036133;0.023438;1.005859;
509215;0.037109;0.021484;0.993164;
509355;0.040039;0.019531;0.991211;
509505;0.041992;0.019531;1.000000;
509645;0.044922;0.020508;0.994141;
509787;0.040039;0.020508;0.989258;
509941;0.043945;0.021484;1.005859;
510091;0.043945;0.019531;1.012695;
510242;0.045898;0.023438;1.009766;
510391;0.046875;0.021484;1.005859;
510535;0.043945;0.025391;1.022461;
510685;0.043945;0.023438;1.013672;
510825;0.044922;0.025391;1.020508;
510965;0.043945;0.021484;1.013672;
511105;0.043945;0.023438;1.012695;
511245;0.047852;0.025391;1.010742;
511385;0.044922;0.026367;1.019531;
511525;0.048828;0.028320;1.023438;
511665;0.045898;0.025391;1.011719;
511815;0.044922;0.021484;1.005859;
511955;0.046875;0.024414;1.009766;
512095;0.047852;0.021484;1.002930;
512245;0.051758;0.022461;1.004883;
512385;0.052734;0.022461;1.017578;
512525;0.056641;0.021484;1.030273;
512671;0.056641;0.020508;1.027344;
512821;0.057617;0.020508;1.030273;
512970;0.059570;0.026367;1.032227;
513122;0.062500;0.023438;1.024414;
513255;0.064453;0.023438;1.033203;
513393;0.061523;0.025391;1.034180;
513533;0.067383;0.028320;1.050781;
513685;0.071289;0.025391;1.044922;
513825;0.070312;0.031250;1.048828;
513965;0.075195;0.029297;1.055664;
514105;0.073242;0.023438;1.062500;
514245;0.076172;0.023438;1.059570;
514385;0.080078;0.023438;1.078125;
514525;0.079102;0.022461;1.074219;
514665;0.084961;0.022461;1.085938;
514805;0.086914;0.023438;1.100586;
514945;0.090820;0.018555;1.076172;
515085;0.089844;0.019531;1.101562;
515225;0.091797;0.019531;1.104492;
515375;0.092773;0.016602;1.083008;
515515;0.094727;0.013672;1.087891;
515660;0.091797;0.014648;1.104492;
515802;0.093750;0.016602;1.104492;
515941;0.092773;0.018555;1.104492;
516081;0.097656;0.019531;1.076172;
516220;0.094727;0.020508;1.059570;
516365;0.089844;0.021484;1.054688;
516505;0.090820;0.021484;1.050781;
516645;0.089844;0.023438;1.070312;
516785;0.093750;0.025391;1.059570;
516925;0.091797;0.024414;1.018555;
517065;0.095703;0.026367;1.020508;
517205;0.091797;0.027344;1.011719;
517345;0.091797;0.025391;1.010742;
517485;0.091797;0.029297;1.037109;
517625;0.093750;0.027344;1.030273;
517775;0.090820;0.027344;1.013672;
517915;0.092773;0.026367;0.988281;
518055;0.089844;0.028320;0.973633;
518205;0.091797;0.028320;0.969727;
518342;0.086914;0.030273;0.932617;
518492;0.088867;0.027344;0.924805;
518633;0.083008;0.026367;0.932617;
518775;0.080078;0.025391;0.934570;
518921;0.083984;0.025391;0.935547;
519070;0.088867;0.025391;0.966797;
519221;0.088867;0.022461;0.969727;
519370;0.087891;0.017578;0.994141;
519515;0.087891;0.019531;0.991211;
519655;0.089844;0.017578;1.003906;
519795;0.086914;0.012695;1.031250;
519935;0.087891;0.019531;1.041016;
520075;0.089844;0.023438;1.047852;
520225;0.091797;0.020508;1.050781;
520365;0.093750;0.022461;1.046875;
520505;0.087891;0.018555;1.040039;
520645;0.088867;0.017578;1.043945;
520785;0.087891;0.018555;1.057617;
520925;0.085938;0.023438;1.053711;
521065;0.089844;0.024414;1.056641;
521205;0.088867;0.027344;1.055664;
521355;0.085938;0.025391;1.033203;
521490;0.082031;0.021484;1.026367;
521641;0.082031;0.027344;1.029297;
521801;0.085938;0.020508;1.033203;
521950;0.083984;0.024414;1.032227;
522092;0.087891;0.018555;1.038086;
522245;0.086914;0.022461;1.032227;
522385;0.089844;0.020508;1.020508;
522525;0.083008;0.019531;1.012695;
522665;0.080078;0.017578;1.003906;
522805;0.083008;0.021484;1.031250;
522945;0.083984;0.019531;1.036133;
523085;0.087891;0.026367;1.013672;
523225;0.086914;0.021484;0.998047;
523365;0.084961;0.021484;1.014648;
523505;0.085938;0.021484;1.028320;
523645;0.082031;0.026367;1.025391;
523785;0.083008;0.023438;1.019531;
523925;0.081055;0.025391;1.003906;
524065;0.082031;0.024414;0.998047;
524201;0.083984;0.020508;1.011719;
524341;0.083008;0.023438;1.033203;
524491;0.081055;0.020508;1.020508;
524651;0.080078;0.018555;1.004883;
524805;0.083984;0.023438;1.008789;
524945;0.081055;0.016602;1.006836;
525085;0.079102;0.019531;1.009766;
525225;0.081055;0.023438;1.038086;
525365;0.079102;0.023438;1.040039;
525505;0.082031;0.022461;1.010742;
525645;0.083008;0.018555;1.023438;
525795;0.081055;0.021484;1.036133;
525935;0.082031;0.022461;1.056641;
526075;0.083984;0.019531;1.035156;
526215;0.085938;0.028320;1.048828;
526355;0.083984;0.024414;1.050781;
526495;0.079102;0.016602;1.051758;
526635;0.080078;0.019531;1.076172;
526771;0.081055;0.021484;1.107422;
526921;0.085938;0.024414;1.158203;
527071;0.084961;0.020508;1.194336;
527210;0.083984;0.018555;1.254883;
527361;0.090820;0.023438;1.335938;
527511;0.100586;0.027344;1.414062;
527665;0.099609;0.023438;1.479492;
527805;0.105469;0.022461;1.534180;
527945;0.105469;0.017578;1.561523;
528085;0.112305;0.017578;1.625000;
528225;0.108398;0.019531;1.662109;
528375;0.114258;0.016602;1.714844;
528515;0.116211;0.015625;1.747070;
528655;0.120117;0.015625;1.755859;
528795;0.121094;0.014648;1.774414;
528935;0.120117;0.019531;1.801758;
529075;0.121094;0.014648;1.809570;
529215;0.125000;0.012695;1.813477;
529355;0.125000;0.016602;1.821289;
529505;0.124023;0.011719;1.823242;
529642;0.123047;0.019531;1.838867;
529791;0.125000;0.012695;1.843750;
529941;0.126953;0.022461;1.847656;
530091;0.125977;0.022461;1.840820;
530245;0.128906;0.022461;1.836914;
530385;0.125977;0.017578;1.850586;
530535;0.125977;0.012695;1.855469;
530675;0.127930;0.018555;1.864258;
530815;0.130859;0.016602;1.871094;
530955;0.132812;0.012695;1.865234;
531095;0.126953;0.017578;1.860352;
531235;0.126953;0.022461;1.875000;
531375;0.130859;0.019531;1.881836;
531515;0.130859;0.021484;1.886719;
531655;0.135742;0.020508;1.868164;
531795;0.131836;0.008789;1.880859;
531935;0.129883;0.015625;1.877930;
532075;0.129883;0.020508;1.886719;
532210;0.130859;0.016602;1.888672;
532350;0.132812;0.018555;1.877930;
532492;0.134766;0.017578;1.869141;
532641;0.133789;0.008789;1.872070;
532791;0.134766;0.017578;1.886719;
532945;0.134766;0.014648;1.889648;
533095;0.132812;0.010742;1.880859;
533235;0.136719;0.011719;1.887695;
533375;0.141602;0.004883;1.871094;
533515;0.138672;0.007812;1.889648;
533655;0.135742;0.014648;1.898438;
533795;0.137695;0.011719;1.892578;
533935;0.136719;0.009766;1.884766;
534075;0.138672;0.019531;1.886719;
534215;0.137695;0.024414;1.873047;
534355;0.138672;0.016602;1.888672;
534495;0.136719;0.026367;1.892578;
534635;0.136719;0.028320;1.886719;
534775;0.136719;0.021484;1.872070;
534910;0.132812;0.015625;1.877930;
535061;0.141602;0.023438;1.880859;
535212;0.136719;0.021484;1.859375;
535360;0.136719;0.014648;1.852539;
535515;0.136719;0.020508;1.826172;
535655;0.141602;0.018555;1.866211;
535795;0.139648;0.010742;1.852539;
535935;0.139648;0.019531;1.859375;
536075;0.143555;0.014648;1.819336;
536215;0.141602;0.014648;1.806641;
536365;0.144531;0.015625;1.827148;
536505;0.139648;0.004883;1.835938;
536645;0.141602;0.010742;1.853516;
536785;0.146484;0.013672;1.875977;
536925;0.148438;0.008789;1.855469;
537065;0.149414;0.007812;1.880859;
537205;0.150391;0.004883;1.886719;
537345;0.153320;0.005859;1.889648;
537481;0.154297;0.000977;1.888672;
537632;0.154297;0.007812;1.889648;
537791;0.149414;0.010742;1.882812;
537941;0.157227;0.010742;1.895508;
538085;0.153320;0.014648;1.887695;
538221;0.154297;0.020508;1.900391;
538361;0.153320;0.021484;1.878906;
538505;0.154297;0.026367;1.882812;
538650;0.153320;0.036133;1.869141;
538805;0.154297;0.034180;1.864258;
538945;0.156250;0.033203;1.851562;
539085;0.157227;0.036133;1.840820;
539225;0.159180;0.028320;1.846680;
539365;0.159180;0.019531;1.833008;
539515;0.163086;0.010742;1.821289;
539655;0.165039;0.010742;1.822266;
539795;0.163086;0.005859;1.814453;
539935;0.164062;0.008789;1.822266;
540075;0.165039;0.007812;1.822266;
540215;0.163086;0.008789;1.828125;
540355;0.167969;0.007812;1.826172;
540505;0.166016;0.007812;1.851562;
540645;0.167969;0.007812;1.846680;
540780;0.166992;0.003906;1.846680;
540910;0.168945;0.005859;1.836914;
541051;0.169922;0.007812;1.846680;
541201;0.169922;0.009766;1.834961;
541350;0.169922;0.010742;1.831055;
541505;0.170898;0.011719;1.827148;
541645;0.173828;0.013672;1.823242;
541785;0.171875;0.011719;1.813477;
541925;0.168945;0.012695;1.792969;
542065;0.173828;0.004883;1.791992;
542205;0.174805;0.006836;1.801758;
542345;0.175781;0.011719;1.803711;
542485;0.176758;0.017578;1.795898;
542625;0.175781;0.016602;1.792969;
542765;0.180664;0.018555;1.795898;
542905;0.178711;0.023438;1.790039;
543045;0.180664;0.022461;1.788086;
543185;0.180664;0.027344;1.788086;
543325;0.180664;0.017578;1.791992;
543465;0.186523;0.015625;1.806641;
543611;0.185547;0.006836;1.795898;
543755;0.187500;0.011719;1.795898;
543882;0.189453;0.003906;1.777344;
544030;0.190430;0.006836;1.778320;
544181;0.189453;0.001953;1.752930;
544331;0.193359;0.004883;1.725586;
544481;0.186523;0.001953;1.715820;
544625;0.188477;0.014648;1.702148;
544765;0.186523;0.009766;1.662109;
544905;0.189453;0.011719;1.652344;
545045;0.187500;0.013672;1.641602;
545185;0.185547;0.010742;1.625977;
545325;0.186523;0.016602;1.618164;
545465;0.189453;0.009766;1.603516;
545605;0.188477;0.009766;1.612305;
545745;0.191406;0.009766;1.616211;
545885;0.193359;0.032227;1.638672;
546035;0.191406;0.043945;1.649414;
546175;0.190430;0.053711;1.646484;
546315;0.193359;0.059570;1.653320;
546465;0.196289;0.058594;1.666992;
546603;0.180664;0.053711;1.642578;
546751;0.183594;0.064453;1.623047;
546901;0.184570;0.041992;1.627930;
547050;0.176758;0.042969;1.636719;
547205;0.173828;0.033203;1.618164;
547345;0.171875;0.014648;1.624023;
547485;0.163086;0.006836;1.604492;
547625;0.158203;0.000977;1.584961;
547765;0.154297;-0.006836;1.572266;
547905;0.145508;-0.007812;1.526367;
548045;0.138672;-0.001953;1.475586;
548185;0.122070;0.008789;1.396484;
548325;0.109375;0.018555;1.336914;
548465;0.093750;0.027344;1.226562;
548615;0.079102;0.024414;1.131836;
548755;0.058594;0.022461;1.023438;
548895;0.053711;0.020508;0.920898;
549035;0.038086;0.021484;0.775391;
549175;0.028320;0.015625;0.664062;
549310;0.015625;0.015625;0.570312;
549461;0.012695;0.014648;0.469727;
549611;0.010742;0.016602;0.386719;
549762;0.004883;0.015625;0.324219;
549915;0.003906;0.020508;0.280273;
550055;0.000000;0.020508;0.187500;
550195;0.000000;0.019531;0.150391;
550335;0.001953;0.021484;0.137695;
550475;-0.000977;0.022461;0.105469;
550615;0.000000;0.025391;0.056641;
550755;0.000000;0.025391;0.050781;
550895;-0.001953;0.025391;0.029297;
551035;-0.002930;0.024414;0.023438;
551175;-0.001953;0.026367;0.024414;
551315;-0.001953;0.027344;0.016602;
551455;-0.002930;0.031250;0.025391;
551605;-0.004883;0.030273;0.026367;
551745;-0.005859;0.030273;0.020508;
551882;-0.004883;0.031250;0.032227;
552031;-0.006836;0.030273;0.023438;
552171;-0.006836;0.025391;0.031250;
552321;-0.008789;0.027344;0.031250;
552472;-0.002930;0.029297;0.037109;
552602;-0.006836;0.030273;0.033203;
552755;-0.005859;0.029297;0.031250;
552905;-0.008789;0.030273;0.031250;
553045;-0.009766;0.030273;0.035156;
553195;-0.007812;0.034180;0.024414;
553335;-0.008789;0.031250;0.024414;
553475;-0.008789;0.032227;0.025391;
553625;-0.010742;0.029297;0.024414;
553765;-0.008789;0.030273;0.020508;
553915;-0.009766;0.031250;0.016602;
554065;-0.011719;0.027344;0.013672;
554205;-0.012695;0.029297;0.012695;
554345;-0.008789;0.030273;0.018555;
554495;-0.010742;0.031250;0.006836;
554635;-0.007812;0.030273;0.015625;
554781;-0.012695;0.028320;0.013672;
554934;-0.013672;0.029297;0.013672;
555072;-0.009766;0.030273;0.014648;
555222;-0.012695;0.033203;-0.004883;
555382;-0.010742;0.029297;0.021484;
555535;-0.011719;0.030273;0.012695;
555675;-0.010742;0.028320;0.021484;
555815;-0.013672;0.026367;0.022461;
555965;-0.011719;0.031250;0.023438;
556095;-0.012695;0.029297;0.030273;
556245;-0.015625;0.027344;0.028320;
556385;-0.015625;0.030273;0.027344;
556525;-0.011719;0.028320;0.036133;
556665;-0.011719;0.031250;0.034180;
556805;-0.011719;0.031250;0.031250;
556945;-0.016602;0.032227;0.038086;
557085;-0.015625;0.029297;0.038086;
557225;-0.016602;0.033203;0.025391;
557365;-0.016602;0.030273;0.029297;
557501;-0.006836;0.025391;0.095703;
557651;-0.012695;0.030273;0.038086;
557801;-0.013672;0.031250;0.030273;
557951;-0.014648;0.027344;0.028320;
558111;-0.014648;0.031250;0.032227;
558265;-0.016602;0.029297;0.035156;
558405;-0.015625;0.033203;0.027344;
558555;-0.013672;0.029297;0.032227;
558695;-0.012695;0.026367;0.028320;
558835;-0.015625;0.034180;0.025391;
558975;-0.016602;0.033203;0.028320;
559115;-0.013672;0.031250;0.032227;
559265;-0.013672;0.028320;0.031250;
559402;-0.015625;0.028320;0.030273;
559545;-0.013672;0.027344;0.023438;
559685;-0.014648;0.025391;0.026367;
559825;-0.013672;0.024414;0.030273;
559965;-0.014648;0.026367;0.023438;
560105;-0.014648;0.028320;0.021484;
560241;-0.014648;0.028320;0.022461;
560381;-0.016602;0.026367;0.028320;
560531;-0.015625;0.027344;0.020508;
560670;-0.016602;0.027344;0.020508;
560811;-0.015625;0.029297;0.017578;
560961;-0.016602;0.028320;0.023438;
561105;-0.017578;0.028320;0.021484;
561255;-0.017578;0.028320;0.017578;
561395;-0.017578;0.026367;0.013672;
561535;-0.017578;0.024414;0.012695;
561665;-0.016602;0.025391;0.003906;
561805;-0.014648;0.024414;0.014648;
561945;-0.018555;0.025391;0.012695;
562087;-0.016602;0.023438;0.011719;
562235;-0.017578;0.021484;0.012695;
562385;-0.018555;0.023438;0.004883;
562525;-0.018555;0.022461;-0.011719;
562665;-0.018555;0.022461;0.009766;
562815;-0.018555;0.018555;-0.001953;
562955;-0.017578;0.023438;0.000000;
563082;-0.018555;0.020508;-0.000977;
563221;-0.020508;0.019531;0.005859;
563370;-0.017578;0.020508;0.005859;
563521;-0.020508;0.019531;-0.005859;
563661;-0.021484;0.018555;-0.004883;
563815;-0.023438;0.019531;-0.004883;
563955;-0.019531;0.020508;-0.003906;
564095;-0.021484;0.020508;-0.007812;
564235;-0.022461;0.018555;-0.006836;
564375;-0.017578;0.021484;-0.005859;
564515;-0.017578;0.017578;0.001953;
564657;-0.021484;0.018555;-0.012695;
564805;-0.021484;0.017578;-0.006836;
564945;-0.022461;0.016602;-0.003906;
565085;-0.022461;0.017578;-0.007812;
565235;-0.023438;0.018555;-0.001953;
565375;-0.024414;0.017578;-0.007812;
565515;-0.022461;0.017578;-0.002930;
565665;-0.023438;0.016602;-0.002930;
565802;-0.023438;0.017578;-0.002930;
565951;-0.024414;0.018555;-0.000977;
566101;-0.024414;0.019531;0.002930;
566250;-0.025391;0.017578;0.000977;
566402;-0.025391;0.018555;0.004883;
566555;-0.024414;0.019531;0.004883;
566700;-0.024414;0.020508;0.008789;
566845;-0.026367;0.019531;0.013672;
566985;-0.027344;0.018555;0.009766;
567125;-0.027344;0.015625;0.006836;
567265;-0.026367;0.015625;0.011719;
567415;-0.029297;0.014648;0.013672;
567555;-0.027344;0.019531;0.006836;
567695;-0.028320;0.017578;0.000977;
567825;-0.028320;0.019531;0.003906;
567965;-0.030273;0.013672;0.004883;
568105;-0.027344;0.016602;0.003906;
568247;-0.027344;0.015625;0.000000;
568395;-0.028320;0.017578;0.007812;
568540;-0.030273;0.016602;0.002930;
568690;-0.029297;0.016602;-0.002930;
568830;-0.028320;0.014648;0.000000;
568960;-0.030273;0.012695;0.000000;
569105;-0.031250;0.017578;0.002930;
569251;-0.031250;0.017578;0.013672;
569392;-0.030273;0.016602;0.019531;
569545;-0.033203;0.019531;0.001953;
569695;-0.034180;0.020508;0.010742;
569845;-0.033203;0.019531;0.015625;
569981;-0.032227;0.016602;0.007812;
570125;-0.033203;0.016602;0.003906;
570265;-0.035156;0.020508;0.004883;
570405;-0.033203;0.020508;0.005859;
570555;-0.035156;0.020508;0.001953;
570695;-0.038086;0.021484;0.005859;
570835;-0.034180;0.018555;0.010742;
570975;-0.037109;0.020508;0.003906;
571115;-0.036133;0.021484;0.009766;
571255;-0.036133;0.019531;0.009766;
571405;-0.036133;0.019531;0.011719;
571541;-0.037109;0.020508;0.019531;
571691;-0.037109;0.021484;0.024414;
571841;-0.040039;0.020508;0.013672;
571992;-0.037109;0.021484;0.020508;
572141;-0.041016;0.023438;0.024414;
572295;-0.040039;0.021484;0.026367;
572445;-0.040039;0.020508;0.030273;
572585;-0.038086;0.021484;0.033203;
572725;-0.041992;0.019531;0.029297;
572865;-0.040039;0.020508;0.021484;
573005;-0.042969;0.020508;0.017578;
573155;-0.043945;0.020508;0.026367;
573295;-0.044922;0.018555;0.029297;
573435;-0.045898;0.019531;0.041992;
573585;-0.046875;0.020508;0.061523;
573725;-0.047852;0.020508;0.074219;
573865;-0.049805;0.024414;0.105469;
574015;-0.048828;0.020508;0.146484;
574157;-0.049805;0.024414;0.220703;
574311;-0.047852;0.024414;0.301758;
574460;-0.042969;0.026367;0.399414;
574612;-0.040039;0.024414;0.474609;
574760;-0.032227;0.028320;0.582031;
574915;-0.027344;0.028320;0.692383;
575055;-0.020508;0.029297;0.781250;
575195;-0.013672;0.030273;0.890625;
575335;-0.003906;0.031250;0.995117;
575485;-0.003906;0.029297;1.066406;
575625;0.000977;0.032227;1.147461;
575765;0.005859;0.031250;1.207031;
575905;0.009766;0.028320;1.256836;
576045;0.014648;0.025391;1.284180;
576185;0.019531;0.020508;1.313477;
576325;0.023438;0.010742;1.308594;
576465;0.027344;0.007812;1.333984;
576605;0.031250;0.011719;1.345703;
576745;0.031250;0.016602;1.371094;
576880;0.032227;0.023438;1.397461;
577030;0.033203;0.031250;1.430664;
577182;0.033203;0.036133;1.476562;
577321;0.032227;0.037109;1.507812;
577471;0.031250;0.034180;1.551758;
577635;0.036133;0.023438;1.598633;
577775;0.044922;0.021484;1.644531;
577915;0.037109;0.014648;1.665039;
578055;0.046875;0.010742;1.711914;
578195;0.042969;0.014648;1.742188;
578335;0.047852;-0.002930;1.783203;
578485;0.049805;-0.007812;1.808594;
578625;0.044922;-0.013672;1.840820;
578765;0.045898;-0.006836;1.927734;
578905;0.056641;0.006836;1.934570;
579045;0.062500;-0.005859;1.952148;
579195;0.047852;0.002930;1.915039;
579335;0.048828;0.025391;2.007812;
579475;0.047852;0.039062;1.929688;
579621;0.042969;0.029297;1.947266;
579771;0.041992;0.041992;1.877930;
579920;0.034180;0.038086;1.825195;
580081;0.034180;0.029297;1.829102;
580225;0.026367;0.025391;1.788086;
580365;0.027344;0.033203;1.748047;
580505;0.019531;0.031250;1.712891;
580645;0.015625;0.025391;1.671875;
580785;0.012695;0.033203;1.655273;
580925;0.001953;0.028320;1.615234;
581065;0.006836;0.026367;1.618164;
581215;0.004883;0.026367;1.607422;
581355;0.002930;0.033203;1.635742;
581495;0.003906;0.030273;1.648438;
581635;0.003906;0.027344;1.678711;
581775;0.008789;0.030273;1.714844;
581925;0.013672;0.028320;1.757812;
582065;0.013672;0.028320;1.794922;
582201;0.018555;0.027344;1.827148;
582351;0.018555;0.019531;1.856445;
582500;0.018555;0.022461;1.880859;
582653;0.021484;0.031250;1.899414;
582800;0.018555;0.020508;1.899414;
582945;0.020508;0.020508;1.904297;
583085;0.018555;0.021484;1.909180;
583225;0.015625;0.013672;1.898438;
583365;0.011719;0.012695;1.886719;
583515;0.012695;0.019531;1.868164;
583655;0.005859;0.019531;1.854492;
583795;0.006836;0.022461;1.851562;
583935;0.000977;0.020508;1.833008;
584075;0.000977;0.017578;1.828125;
584215;-0.000977;0.020508;1.816406;
584355;-0.003906;0.025391;1.807617;
584495;-0.004883;0.019531;1.798828;
584645;-0.006836;0.017578;1.784180;
584785;-0.008789;0.018555;1.788086;
584920;-0.008789;0.018555;1.790039;
585081;-0.009766;0.013672;1.787109;
585231;-0.007812;0.018555;1.794922;
585371;-0.009766;0.015625;1.793945;
585510;-0.013672;0.017578;1.809570;
585665;-0.010742;0.017578;1.801758;
585805;-0.011719;0.016602;1.809570;
585945;-0.012695;0.016602;1.821289;
586085;-0.012695;0.018555;1.822266;
586225;-0.011719;0.016602;1.832031;
586365;-0.015625;0.012695;1.830078;
586515;-0.012695;0.008789;1.835938;
586655;-0.011719;0.005859;1.848633;
586795;-0.012695;0.000000;1.840820;
586935;-0.010742;0.004883;1.847656;
587075;-0.012695;0.008789;1.848633;
587215;-0.013672;0.008789;1.857422;
587355;-0.011719;0.006836;1.856445;
587495;-0.014648;0.011719;1.867188;
587633;-0.015625;0.006836;1.867188;
587780;-0.014648;0.012695;1.869141;
587931;-0.014648;0.012695;1.877930;
588072;-0.017578;0.013672;1.872070;
588221;-0.018555;0.016602;1.861328;
588365;-0.018555;0.020508;1.862305;
588505;-0.017578;0.022461;1.864258;
588655;-0.018555;0.025391;1.857422;
588795;-0.020508;0.021484;1.848633;
588935;-0.024414;0.022461;1.835938;
589085;-0.024414;0.021484;1.828125;
589225;-0.026367;0.021484;1.803711;
589365;-0.024414;0.020508;1.815430;
589505;-0.027344;0.018555;1.798828;
589645;-0.028320;0.020508;1.793945;
589785;-0.029297;0.022461;1.801758;
589925;-0.028320;0.025391;1.798828;
590065;-0.032227;0.019531;1.781250;
590205;-0.029297;0.018555;1.791016;
590342;-0.034180;0.023438;1.787109;
590492;-0.033203;0.013672;1.776367;
590633;-0.033203;0.014648;1.771484;
590770;-0.034180;0.011719;1.765625;
590931;-0.037109;0.012695;1.768555;
591080;-0.033203;0.010742;1.788086;
591235;-0.033203;0.005859;1.785156;
591375;-0.031250;-0.000977;1.802734;
591515;-0.028320;0.009766;1.823242;
591655;-0.032227;0.012695;1.812500;
591795;-0.033203;0.017578;1.831055;
591935;-0.028320;0.014648;1.830078;
592075;-0.032227;0.024414;1.820312;
592225;-0.026367;0.024414;1.834961;
592365;-0.038086;0.026367;1.822266;
592515;-0.030273;0.020508;1.841797;
592655;-0.026367;0.025391;1.878906;
592795;-0.031250;0.021484;1.880859;
592945;-0.027344;0.021484;1.843750;
593085;-0.031250;0.007812;1.848633;
593221;-0.035156;0.026367;1.861328;
593371;-0.028320;0.009766;1.822266;
593520;-0.032227;0.016602;1.814453;
593671;-0.031250;0.007812;1.826172;
593825;-0.035156;0.019531;1.791992;
593965;-0.035156;0.012695;1.747070;
594105;-0.044922;0.020508;1.721680;
594245;-0.043945;0.015625;1.701172;
594385;-0.044922;0.020508;1.666016;
594525;-0.057617;0.017578;1.605469;
594665;-0.051758;0.028320;1.583008;
594805;-0.054688;0.026367;1.562500;
594945;-0.059570;0.026367;1.526367;
595085;-0.059570;0.016602;1.503906;
595225;-0.059570;0.023438;1.478516;
595375;-0.064453;0.020508;1.451172;
595515;-0.068359;0.015625;1.412109;
595655;-0.064453;0.016602;1.406250;
595801;-0.067383;0.015625;1.377930;
595951;-0.069336;0.014648;1.366211;
596101;-0.066406;0.024414;1.345703;
596250;-0.073242;0.026367;1.347656;
596401;-0.071289;0.021484;1.312500;
596535;-0.076172;0.008789;1.268555;
596685;-0.076172;0.010742;1.249023;
596825;-0.071289;0.011719;1.252930;
596965;-0.079102;0.012695;1.219727;
597115;-0.074219;0.021484;1.209961;
597255;-0.079102;0.019531;1.191406;
597395;-0.082031;0.007812;1.182617;
597535;-0.079102;0.015625;1.158203;
597675;-0.075195;0.014648;1.170898;
597815;-0.079102;0.016602;1.153320;
597965;-0.077148;0.014648;1.147461;
598105;-0.078125;0.034180;1.152344;
598245;-0.082031;0.023438;1.131836;
598395;-0.080078;0.026367;1.134766;
598530;-0.076172;0.025391;1.129883;
598680;-0.080078;0.018555;1.094727;
598820;-0.081055;0.020508;1.071289;
598961;-0.078125;0.016602;1.091797;
599111;-0.078125;0.012695;1.092773;
599265;-0.077148;0.014648;1.072266;
599405;-0.080078;0.028320;1.061523;
599555;-0.077148;0.033203;1.056641;
599705;-0.074219;0.023438;1.032227;
599845;-0.076172;0.015625;1.009766;
599985;-0.076172;0.012695;0.987305;
600135;-0.067383;0.015625;0.976562;
600275;-0.072266;0.016602;0.963867;
600415;-0.065430;0.025391;0.964844;
600555;-0.062500;0.021484;0.973633;
600695;-0.062500;0.024414;0.971680;
600835;-0.062500;0.024414;0.987305;
600975;-0.054688;0.022461;0.987305;
601115;-0.047852;0.032227;1.006836;
601263;-0.043945;0.022461;1.011719;
601401;-0.038086;0.020508;1.036133;
601540;-0.036133;0.016602;1.044922;
601690;-0.034180;0.021484;1.061523;
601840;-0.035156;0.017578;1.073242;
601991;-0.030273;0.025391;1.091797;
602135;-0.034180;0.023438;1.096680;
602275;-0.031250;0.018555;1.124023;
602415;-0.031250;0.016602;1.124023;
602565;-0.033203;0.024414;1.119141;
602705;-0.033203;0.022461;1.115234;
602845;-0.036133;0.023438;1.112305;
602985;-0.039062;0.018555;1.090820;
603125;-0.036133;0.022461;1.073242;
603275;-0.037109;0.014648;1.052734;
603415;-0.040039;0.021484;1.036133;
603555;-0.041992;0.021484;1.025391;
603695;-0.042969;0.021484;1.004883;
603835;-0.040039;0.024414;0.994141;
603975;-0.036133;0.022461;0.990234;
604110;-0.041992;0.012695;0.962891;
604261;-0.036133;0.021484;0.968750;
604410;-0.037109;0.026367;0.979492;
604560;-0.039062;0.024414;0.982422;
604715;-0.040039;0.024414;0.994141;
604855;-0.036133;0.028320;1.005859;
604995;-0.035156;0.024414;1.001953;
605135;-0.037109;0.023438;1.016602;
605275;-0.032227;0.027344;1.013672;
605425;-0.027344;0.021484;1.021484;
605565;-0.027344;0.019531;1.017578;
605715;-0.018555;0.024414;1.049805;
605855;-0.013672;0.011719;1.079102;
605995;-0.008789;0.018555;1.098633;
606145;-0.007812;0.021484;1.097656;
606285;-0.012695;0.034180;1.100586;
606425;-0.007812;0.020508;1.088867;
606575;-0.008789;0.019531;1.101562;
606711;-0.008789;0.021484;1.110352;
606861;-0.008789;0.030273;1.107422;
607013;-0.002930;0.022461;1.104492;
607163;-0.005859;0.011719;1.120117;
607311;-0.001953;0.012695;1.126953;
607455;0.000977;0.009766;1.130859;
607595;0.007812;0.005859;1.182617;
607735;0.013672;0.021484;1.205078;
607885;0.010742;0.022461;1.209961;
608025;0.010742;0.024414;1.235352;
608165;0.017578;0.017578;1.241211;
608305;0.019531;0.021484;1.268555;
608445;0.012695;0.004883;1.253906;
608585;0.018555;0.010742;1.260742;
608725;0.017578;0.022461;1.266602;
608865;0.012695;0.028320;1.277344;
609005;0.017578;0.002930;1.266602;
609145;0.015625;0.006836;1.244141;
609295;0.009766;0.016602;1.211914;
609430;0.013672;0.018555;1.212891;
609580;0.009766;0.029297;1.162109;
609731;0.006836;0.020508;1.144531;
609882;0.004883;0.014648;1.148438;
610031;0.006836;0.021484;1.118164;
610185;0.004883;0.022461;1.122070;
610325;0.002930;0.027344;1.107422;
610465;0.004883;0.031250;1.088867;
610605;0.003906;0.032227;1.058594;
610745;-0.003906;0.032227;1.051758;
610885;-0.001953;0.024414;1.071289;
611025;-0.002930;0.027344;1.038086;
611165;-0.005859;0.027344;1.034180;
611305;-0.006836;0.023438;1.039062;
611445;-0.004883;0.025391;1.047852;
611585;-0.003906;0.022461;1.011719;
611725;-0.006836;0.021484;1.016602;
611865;-0.006836;0.023438;1.019531;
612005;-0.006836;0.023438;1.030273;
612141;-0.004883;0.019531;1.012695;
612291;-0.006836;0.024414;1.003906;
612441;-0.003906;0.029297;1.008789;
612592;-0.001953;0.023438;1.017578;
612750;-0.003906;0.017578;0.997070;
612895;-0.000977;0.023438;1.009766;
613035;0.000977;0.019531;1.000000;
613175;0.000000;0.027344;1.003906;
613315;0.001953;0.022461;0.987305;
613455;0.000977;0.018555;0.983398;
613595;-0.002930;0.016602;0.972656;
613745;0.000000;0.020508;0.987305;
613885;-0.004883;0.012695;0.971680;
614025;0.002930;0.013672;0.959961;
614165;-0.002930;0.027344;0.971680;
614305;-0.001953;0.025391;0.958008;
614445;-0.001953;0.025391;0.958008;
614585;-0.004883;0.026367;0.953125;
614725;-0.000977;0.027344;0.950195;
614861;-0.004883;0.027344;0.969727;
615010;-0.006836;0.029297;0.960938;
615160;-0.004883;0.031250;0.944336;
615290;-0.003906;0.022461;0.960938;
615440;0.000000;0.018555;0.961914;
615585;-0.004883;0.025391;0.963867;
615725;-0.003906;0.014648;0.983398;
615865;-0.001953;0.015625;0.989258;
616005;-0.005859;0.018555;0.989258;
616145;-0.000977;0.016602;0.999023;
616285;0.001953;0.015625;1.026367;
616425;-0.005859;0.024414;1.024414;
616565;0.000000;0.026367;1.051758;
616715;-0.003906;0.021484;1.053711;
616855;-0.006836;0.025391;1.050781;
616995;-0.001953;0.023438;1.078125;
617135;0.002930;0.017578;1.101562;
617275;-0.000977;0.031250;1.090820;
617415;0.000977;0.030273;1.093750;
617550;-0.001953;0.024414;1.102539;
617682;-0.001953;0.022461;1.101562;
617831;-0.000977;0.024414;1.110352;
617981;0.001953;0.012695;1.098633;
618131;-0.001953;0.022461;1.116211;
618280;-0.001953;0.018555;1.083984;
618425;-0.002930;0.019531;1.078125;
618565;-0.001953;0.020508;1.095703;
618715;0.000977;0.031250;1.092773;
618855;0.000000;0.015625;1.087891;
618995;-0.002930;0.027344;1.084961;
619145;0.000977;0.030273;1.068359;
619285;-0.003906;0.023438;1.085938;
619425;-0.002930;0.022461;1.083008;
619565;-0.001953;0.023438;1.083008;
619705;-0.003906;0.023438;1.091797;
619845;-0.004883;0.024414;1.088867;
619985;-0.001953;0.024414;1.078125;
620125;-0.003906;0.026367;1.083008;
620265;0.000977;0.019531;1.090820;
620401;-0.005859;0.029297;1.073242;
620540;-0.003906;0.023438;1.064453;
620691;-0.003906;0.018555;1.079102;
620841;-0.000977;0.017578;1.075195;
620995;-0.002930;0.025391;1.065430;
621145;-0.004883;0.015625;1.070312;
621285;-0.001953;0.016602;1.075195;
621425;0.000977;0.018555;1.071289;
621565;-0.004883;0.025391;1.065430;
621705;-0.002930;0.024414;1.067383;
621855;-0.000977;0.026367;1.076172;
621995;-0.000977;0.025391;1.066406;
622135;-0.003906;0.023438;1.055664;
622285;-0.001953;0.027344;1.062500;
622425;-0.004883;0.018555;1.058594;
622565;-0.003906;0.020508;1.038086;
622715;-0.003906;0.026367;1.030273;
622855;-0.003906;0.026367;1.036133;
622990;-0.003906;0.021484;1.001953;
623131;-0.005859;0.024414;1.000977;
623281;-0.010742;0.024414;0.994141;
623430;-0.002930;0.015625;0.990234;
623580;-0.001953;0.019531;0.985352;
623725;-0.005859;0.018555;0.974609;
623865;-0.004883;0.034180;0.965820;
624005;-0.004883;0.030273;0.971680;
624145;-0.008789;0.034180;0.963867;
624285;-0.009766;0.028320;0.955078;
624425;0.000000;0.022461;0.962891;
624565;-0.004883;0.017578;0.970703;
624705;-0.005859;0.029297;0.968750;
624845;-0.006836;0.022461;0.971680;
624985;-0.004883;0.016602;0.958008;
625125;-0.006836;0.026367;0.950195;
625275;-0.004883;0.025391;0.976562;
625415;-0.006836;0.024414;0.959961;
625555;-0.002930;0.011719;0.958984;
625690;-0.007812;0.025391;0.971680;
625841;-0.004883;0.019531;0.956055;
625991;-0.000977;0.023438;0.967773;
626132;-0.009766;0.020508;0.964844;
626270;-0.004883;0.029297;0.970703;
626425;-0.000977;0.022461;0.971680;
626565;-0.006836;0.017578;0.968750;
626705;-0.004883;0.024414;0.986328;
626855;-0.002930;0.029297;0.968750;
626995;-0.008789;0.028320;0.964844;
627135;-0.003906;0.042969;0.984375;
627275;-0.002930;0.019531;0.975586;
627415;-0.004883;0.019531;0.962891;
627555;-0.004883;0.026367;0.991211;
627695;-0.003906;0.022461;0.983398;
627835;-0.003906;0.028320;0.971680;
627975;-0.007812;0.027344;0.973633;
628115;-0.003906;0.026367;0.969727;
628255;-0.003906;0.024414;0.959961;
628395;-0.010742;0.023438;0.961914;
628521;-0.002930;0.026367;0.969727;
628671;-0.006836;0.025391;0.965820;
628821;-0.007812;0.019531;0.955078;
628960;-0.001953;0.016602;0.959961;
629111;-0.006836;0.016602;0.966797;
629265;-0.004883;0.016602;0.960938;
629405;-0.006836;0.020508;0.966797;
629555;-0.003906;0.022461;0.994141;
629695;-0.003906;0.013672;1.000000;
629835;-0.007812;0.015625;0.999023;
629975;-0.004883;0.026367;1.028320;
630115;-0.006836;0.019531;1.026367;
630255;-0.005859;0.020508;1.033203;
630395;-0.010742;0.023438;1.044922;
630535;-0.010742;0.020508;1.040039;
630675;-0.010742;0.017578;1.026367;
630815;-0.007812;0.023438;1.035156;
630955;-0.007812;0.019531;1.043945;
631095;-0.006836;0.017578;1.031250;
631235;-0.005859;0.023438;1.025391;
631371;-0.010742;0.027344;1.008789;
631521;-0.002930;0.023438;1.008789;
631671;-0.007812;0.019531;0.999023;
631820;-0.003906;0.014648;1.018555;
631960;-0.004883;0.017578;1.008789;
632115;-0.007812;0.020508;1.001953;
632255;-0.008789;0.023438;0.994141;
632395;-0.005859;0.018555;1.013672;
632535;-0.006836;0.022461;1.001953;
632675;-0.007812;0.018555;0.997070;
632815;-0.006836;0.019531;0.994141;
632955;-0.003906;0.019531;1.010742;
633095;-0.006836;0.019531;1.012695;
633235;-0.003906;0.019531;1.016602;
633385;-0.009766;0.024414;1.010742;
633525;-0.009766;0.027344;1.014648;
633665;-0.006836;0.020508;1.017578;
633815;-0.005859;0.022461;1.020508;
633955;-0.006836;0.028320;1.012695;
634090;-0.007812;0.028320;1.006836;
634241;-0.007812;0.023438;1.005859;
634391;-0.007812;0.023438;1.012695;
634542;-0.010742;0.021484;1.006836;
634692;-0.004883;0.023438;1.008789;
634845;-0.006836;0.023438;1.003906;
634985;-0.007812;0.021484;1.005859;
635125;-0.006836;0.019531;1.014648;
635265;-0.006836;0.021484;1.010742;
635405;-0.004883;0.016602;1.004883;
635545;-0.005859;0.020508;1.008789;
635685;-0.008789;0.018555;1.015625;
635825;-0.003906;0.020508;1.014648;
635965;-0.006836;0.019531;1.000000;
636105;-0.007812;0.022461;1.015625;
636245;-0.010742;0.022461;1.002930;
636395;-0.005859;0.022461;1.016602;
636535;-0.007812;0.025391;1.012695;
636675;-0.009766;0.025391;1.000977;
636811;-0.008789;0.021484;1.005859;
636961;-0.007812;0.021484;1.005859;
637111;-0.006836;0.025391;1.003906;
637261;-0.008789;0.026367;1.000000;
637403;-0.007812;0.025391;0.983398;
637555;-0.010742;0.021484;0.983398;
637705;-0.007812;0.021484;1.007812;
637845;-0.009766;0.021484;1.018555;
637985;-0.008789;0.027344;1.007812;
638125;-0.008789;0.018555;0.999023;
638265;-0.009766;0.019531;1.007812;
638405;-0.004883;0.020508;1.007812;
638545;-0.007812;0.031250;1.012695;
638695;-0.006836;0.021484;1.005859;
638835;-0.009766;0.029297;0.999023;
638975;-0.008789;0.028320;1.024414;
639115;-0.004883;0.024414;1.024414;
639265;-0.006836;0.028320;1.016602;
639405;-0.009766;0.028320;1.019531;
639540;-0.009766;0.028320;1.040039;
639701;-0.010742;0.027344;1.037109;
639852;-0.004883;0.024414;1.045898;
639993;-0.008789;0.014648;1.032227;
640142;-0.005859;0.020508;1.019531;
640295;-0.007812;0.023438;1.028320;
640435;-0.007812;0.018555;1.042969;
640575;-0.007812;0.014648;1.042969;
640715;-0.005859;0.019531;1.035156;
640855;-0.008789;0.018555;1.030273;
640995;-0.005859;0.018555;1.048828;
641135;-0.003906;0.017578;1.046875;
641275;-0.007812;0.015625;1.036133;
641415;-0.008789;0.016602;1.039062;
641565;-0.006836;0.015625;1.047852;
641705;-0.008789;0.023438;1.065430;
641845;-0.008789;0.015625;1.086914;
641985;-0.003906;0.017578;1.092773;
642125;-0.000977;0.015625;1.099609;
642260;-0.002930;0.020508;1.133789;
642395;-0.000977;0.022461;1.149414;
642531;-0.001953;0.023438;1.158203;
642675;-0.001953;0.027344;1.172852;
642810;0.002930;0.019531;1.169922;
642962;0.000977;0.026367;1.186523;
643110;0.001953;0.022461;1.154297;
643265;0.000977;0.027344;1.145508;
643415;0.000977;0.020508;1.134766;
643555;-0.001953;0.024414;1.111328;
643695;0.000977;0.020508;1.116211;
643835;-0.003906;0.014648;1.106445;
643975;-0.003906;0.014648;1.073242;
644115;-0.005859;0.016602;1.076172;
644255;-0.004883;0.020508;1.073242;
644395;-0.008789;0.017578;1.073242;
644545;-0.007812;0.016602;1.063477;
644685;-0.013672;0.026367;1.055664;
644835;-0.014648;0.019531;1.089844;
644975;-0.016602;0.029297;1.091797;
645115;-0.021484;0.027344;1.071289;
645251;-0.012695;0.024414;1.097656;
645400;-0.022461;0.022461;1.068359;
645551;-0.019531;0.018555;1.056641;
645710;-0.023438;0.021484;1.069336;
645860;-0.025391;0.026367;1.071289;
646015;-0.022461;0.018555;1.057617;
646155;-0.026367;0.020508;1.031250;
646305;-0.026367;0.019531;1.046875;
646445;-0.023438;0.017578;1.037109;
646585;-0.019531;0.027344;1.053711;
646735;-0.024414;0.022461;1.032227;
646875;-0.023438;0.027344;1.040039;
647015;-0.021484;0.022461;1.033203;
647165;-0.020508;0.026367;1.041016;
647305;-0.022461;0.024414;1.047852;
647445;-0.026367;0.022461;1.040039;
647585;-0.023438;0.028320;1.036133;
647725;-0.022461;0.020508;1.025391;
647865;-0.027344;0.019531;1.030273;
648000;-0.020508;0.026367;1.039062;
648150;-0.028320;0.025391;1.034180;
648292;-0.023438;0.026367;1.033203;
648431;-0.023438;0.019531;1.026367;
648580;-0.021484;0.022461;1.036133;
648735;-0.022461;0.027344;1.030273;
648875;-0.023438;0.022461;1.025391;
649015;-0.022461;0.018555;1.040039;
649155;-0.023438;0.017578;1.038086;
649295;-0.019531;0.024414;1.047852;
649435;-0.024414;0.015625;1.012695;
649575;-0.022461;0.022461;1.041016;
649725;-0.023438;0.026367;1.031250;
649865;-0.022461;0.019531;1.036133;
650005;-0.021484;0.019531;1.052734;
650145;-0.020508;0.019531;1.043945;
650285;-0.022461;0.022461;1.055664;
650425;-0.020508;0.025391;1.060547;
650565;-0.021484;0.025391;1.045898;
650705;-0.023438;0.021484;1.048828;
650841;-0.023438;0.023438;1.045898;
650970;-0.017578;0.021484;1.053711;
651121;-0.022461;0.027344;1.043945;
651271;-0.023438;0.021484;1.034180;
651421;-0.025391;0.026367;1.030273;
651575;-0.023438;0.019531;1.011719;
651715;-0.023438;0.023438;1.009766;
651855;-0.024414;0.013672;1.003906;
651995;-0.022461;0.022461;1.019531;
652135;-0.020508;0.018555;1.022461;
652275;-0.024414;0.022461;1.016602;
652415;-0.019531;0.014648;1.018555;
652555;-0.023438;0.022461;1.028320;
652705;-0.017578;0.018555;1.029297;
652845;-0.025391;0.018555;1.032227;
652985;-0.021484;0.027344;1.027344;
653135;-0.021484;0.027344;1.025391;
653275;-0.026367;0.020508;1.036133;
653415;-0.017578;0.025391;1.052734;
653560;-0.022461;0.025391;1.057617;
653701;-0.019531;0.029297;1.065430;
653851;-0.019531;0.025391;1.063477;
654001;-0.022461;0.034180;1.063477;
654151;-0.022461;0.032227;1.075195;
654305;-0.021484;0.024414;1.073242;
654445;-0.019531;0.013672;1.077148;
654585;-0.016602;0.022461;1.067383;
654725;-0.021484;0.020508;1.073242;
654865;-0.018555;0.019531;1.060547;
655005;-0.014648;0.017578;1.046875;
655145;-0.017578;0.019531;1.042969;
655285;-0.013672;0.013672;1.074219;
655425;-0.017578;0.019531;1.058594;
655565;-0.011719;0.022461;1.060547;
655705;-0.014648;0.016602;1.053711;
655845;-0.013672;0.018555;1.058594;
655985;-0.010742;0.018555;1.056641;
656125;-0.015625;0.026367;1.065430;
656261;-0.015625;0.030273;1.068359;
656410;-0.012695;0.025391;1.071289;
656560;-0.013672;0.036133;1.067383;
656711;-0.014648;0.025391;1.067383;
656865;-0.015625;0.025391;1.067383;
657015;-0.016602;0.024414;1.045898;
657155;-0.014648;0.017578;1.055664;
657305;-0.015625;0.018555;1.057617;
657445;-0.015625;0.021484;1.068359;
657585;-0.012695;0.015625;1.068359;
657725;-0.017578;0.020508;1.060547;
657865;-0.011719;0.018555;1.064453;
658005;-0.013672;0.020508;1.061523;
658145;-0.013672;0.020508;1.062500;
658285;-0.016602;0.021484;1.056641;
658425;-0.014648;0.018555;1.058594;
658565;-0.017578;0.010742;1.046875;
658705;-0.014648;0.024414;1.049805;
658840;-0.014648;0.024414;1.043945;
658992;-0.015625;0.022461;1.032227;
659141;-0.017578;0.031250;1.025391;
659302;-0.013672;0.024414;1.026367;
659440;-0.020508;0.021484;1.025391;
659591;-0.016602;0.025391;1.018555;
659745;-0.017578;0.024414;1.005859;
659885;-0.013672;0.017578;1.009766;
660025;-0.015625;0.022461;1.008789;
660175;-0.013672;0.017578;1.017578;
660315;-0.019531;0.015625;1.007812;
660455;-0.010742;0.018555;1.021484;
660605;-0.013672;0.018555;1.006836;
660745;-0.013672;0.015625;1.018555;
660885;-0.011719;0.016602;1.008789;
661025;-0.006836;0.021484;1.009766;
661165;-0.006836;0.017578;1.022461;
661305;-0.003906;0.020508;1.013672;
661455;-0.000977;0.030273;1.017578;
661595;-0.001953;0.013672;1.005859;
661742;0.000000;0.016602;1.007812;
661892;-0.000977;0.020508;1.010742;
662031;0.000000;0.023438;1.030273;
662175;0.000977;0.013672;1.026367;
662310;0.002930;0.015625;1.015625;
662461;-0.000977;0.019531;1.026367;
662615;0.000977;0.017578;1.045898;
662755;0.003906;0.018555;1.044922;
662895;-0.000977;0.022461;1.041016;
663035;-0.004883;0.022461;1.041016;
663175;0.003906;0.027344;1.054688;
663325;0.003906;0.028320;1.030273;
663465;0.000000;0.033203;1.041992;
663605;0.001953;0.021484;1.035156;
663755;0.004883;0.030273;1.034180;
663895;0.001953;0.029297;1.042969;
664035;0.003906;0.031250;1.041992;
664175;0.004883;0.029297;1.039062;
664315;0.001953;0.027344;1.035156;
664465;0.005859;0.029297;1.044922;
664591;0.006836;0.027344;1.029297;
664741;0.003906;0.026367;1.026367;
664891;0.004883;0.020508;1.030273;
665042;0.002930;0.021484;1.015625;
665192;0.004883;0.014648;1.021484;
665335;0.004883;0.009766;1.039062;
665475;0.002930;0.017578;1.028320;
665625;0.003906;0.019531;1.033203;
665765;0.001953;0.026367;1.021484;
665905;0.005859;0.026367;1.017578;
666055;0.003906;0.021484;1.022461;
666195;0.000000;0.021484;1.027344;
666335;0.002930;0.023438;1.035156;
666475;0.000977;0.021484;1.017578;
666615;0.002930;0.020508;1.013672;
666765;0.004883;0.023438;1.031250;
666905;0.000977;0.024414;1.024414;
667045;0.002930;0.027344;1.033203;
667185;0.002930;0.015625;1.014648;
667335;0.001953;0.020508;1.017578;
667461;0.001953;0.007812;1.016602;
667613;0.004883;0.015625;1.015625;
667761;-0.000977;0.029297;1.022461;
667913;0.001953;0.020508;1.017578;
668051;0.002930;0.016602;1.019531;
668195;0.001953;0.018555;1.019531;
668335;0.001953;0.021484;1.018555;
668475;-0.000977;0.021484;1.021484;
668615;0.004883;0.026367;1.021484;
668755;-0.000977;0.024414;1.013672;
668895;0.003906;0.019531;1.013672;
669045;0.006836;0.012695;1.019531;
669185;-0.000977;0.023438;1.009766;
669325;0.001953;0.017578;1.018555;
669465;0.001953;0.024414;1.022461;
669605;-0.003906;0.022461;1.007812;
669745;0.003906;0.026367;1.026367;
669885;0.000000;0.016602;1.013672;
670025;0.001953;0.024414;1.011719;
670161;0.005859;0.018555;1.019531;
670310;-0.000977;0.014648;1.015625;
670455;0.004883;0.014648;1.015625;
670591;0.000000;0.021484;1.014648;
670721;0.000000;0.019531;1.026367;
670861;0.000977;0.023438;1.024414;
671015;-0.000977;0.027344;1.024414;
671155;-0.001953;0.017578;1.026367;
671305;-0.000977;0.016602;1.031250;
671445;-0.006836;0.024414;1.008789;
671585;-0.004883;0.019531;1.016602;
671725;-0.006836;0.017578;1.012695;
671865;-0.001953;0.019531;1.016602;
672005;-0.005859;0.024414;1.011719;
672145;-0.007812;0.025391;1.012695;
672285;-0.000977;0.022461;1.010742;
672425;-0.003906;0.026367;1.004883;
672565;-0.005859;0.021484;1.019531;
672705;-0.003906;0.024414;1.008789;
672845;-0.004883;0.026367;1.007812;
672985;-0.002930;0.023438;1.004883;
673123;-0.001953;0.026367;1.012695;
673261;-0.004883;0.023438;1.003906;
673411;-0.004883;0.021484;0.990234;
673561;-0.001953;0.020508;1.018555;
673710;-0.005859;0.020508;1.000977;
673865;-0.003906;0.015625;1.000000;
674005;0.000000;0.021484;1.007812;
674145;-0.005859;0.018555;1.004883;
674285;0.000000;0.025391;1.005859;
674425;-0.004883;0.028320;1.009766;
674575;-0.005859;0.031250;1.014648;
674715;0.000000;0.017578;1.010742;
674855;-0.003906;0.021484;1.009766;
675005;-0.004883;0.023438;1.016602;
675145;-0.001953;0.022461;1.024414;
675285;-0.002930;0.027344;1.012695;
675435;-0.002930;0.022461;1.022461;
675575;-0.001953;0.026367;1.022461;
675715;-0.005859;0.021484;1.001953;
675850;-0.006836;0.021484;1.004883;
675990;-0.002930;0.018555;1.007812;
676142;-0.004883;0.017578;1.009766;
676291;-0.003906;0.021484;1.010742;
676441;-0.004883;0.020508;1.013672;
676595;-0.005859;0.018555;1.011719;
676745;-0.002930;0.021484;1.008789;
676885;-0.003906;0.020508;0.997070;
677035;-0.004883;0.026367;1.019531;
677175;-0.000977;0.024414;1.024414;
677315;-0.004883;0.021484;1.005859;
677455;-0.003906;0.024414;1.019531;
677595;-0.003906;0.017578;1.021484;
677735;-0.003906;0.021484;1.017578;
677875;-0.005859;0.021484;1.015625;
678015;-0.002930;0.024414;1.029297;
678155;-0.004883;0.026367;1.010742;
678295;-0.006836;0.020508;1.007812;
678435;-0.002930;0.025391;1.024414;
678581;-0.003906;0.016602;1.001953;
678722;-0.006836;0.021484;1.011719;
678871;-0.004883;0.022461;1.021484;
679020;0.000000;0.020508;1.018555;
679165;-0.003906;0.020508;1.011719;
679305;-0.006836;0.022461;1.002930;
679445;-0.001953;0.021484;1.021484;
679585;-0.005859;0.023438;1.015625;
679725;-0.004883;0.022461;1.013672;
679865;-0.005859;0.024414;1.021484;
680005;-0.004883;0.022461;1.026367;
680145;-0.002930;0.017578;1.010742;
680285;-0.004883;0.021484;1.023438;
680425;-0.002930;0.017578;1.024414;
680565;-0.002930;0.025391;1.023438;
680705;-0.004883;0.022461;1.016602;
680845;-0.003906;0.020508;1.024414;
680985;-0.003906;0.021484;1.014648;
681131;-0.008789;0.025391;1.009766;
681282;-0.000977;0.024414;1.032227;
681421;-0.001953;0.024414;1.023438;
681571;-0.005859;0.020508;1.015625;
681723;-0.003906;0.023438;1.017578;
681875;-0.002930;0.023438;1.027344;
682025;-0.004883;0.016602;1.013672;
682165;-0.002930;0.018555;1.018555;
682305;-0.000977;0.024414;1.028320;
682445;-0.002930;0.019531;1.031250;
682585;-0.002930;0.018555;1.021484;
682725;-0.006836;0.021484;1.020508;
682865;0.000000;0.024414;1.027344;
683005;-0.001953;0.024414;1.014648;
683155;-0.003906;0.028320;1.014648;
683295;0.000000;0.021484;1.027344;
683435;0.000000;0.019531;1.027344;
683585;-0.001953;0.026367;1.011719;
683725;-0.003906;0.024414;1.015625;
683860;-0.002930;0.022461;1.013672;
684010;-0.002930;0.024414;1.018555;
684163;-0.003906;0.021484;1.025391;
684301;-0.000977;0.021484;1.029297;
684431;-0.004883;0.026367;1.014648;
684571;-0.001953;0.020508;1.020508;
684710;-0.002930;0.021484;1.025391;
684855;-0.003906;0.027344;1.024414;
684995;-0.001953;0.023438;1.032227;
685135;-0.000977;0.031250;1.030273;
685275;-0.003906;0.019531;1.017578;
685415;-0.001953;0.024414;1.025391;
685555;-0.001953;0.016602;1.017578;
685695;-0.000977;0.022461;1.021484;
685835;0.003906;0.016602;1.019531;
685985;0.001953;0.017578;1.006836;
686125;0.005859;0.025391;1.026367;
686265;0.005859;0.023438;1.032227;
686415;0.007812;0.020508;1.037109;
686555;0.006836;0.016602;1.035156;
686695;0.011719;0.019531;1.043945;
686840;0.012695;0.023438;1.043945;
686992;0.018555;0.023438;1.043945;
687131;0.013672;0.021484;1.036133;
687280;0.018555;0.024414;1.055664;
687432;0.018555;0.021484;1.047852;
687585;0.027344;0.017578;1.050781;
687735;0.026367;0.019531;1.052734;
687875;0.031250;0.018555;1.062500;
688015;0.038086;0.027344;1.057617;
688165;0.036133;0.022461;1.058594;
688305;0.039062;0.019531;1.067383;
688445;0.043945;0.018555;1.088867;
688595;0.043945;0.023438;1.089844;
688735;0.047852;0.019531;1.091797;
688875;0.044922;0.024414;1.091797;
689015;0.051758;0.020508;1.088867;
689155;0.055664;0.026367;1.109375;
689295;0.058594;0.012695;1.114258;
689435;0.062500;0.023438;1.120117;
689580;0.058594;0.017578;1.122070;
689740;0.058594;0.019531;1.114258;
689891;0.064453;0.027344;1.099609;
690041;0.063477;0.022461;1.107422;
690195;0.067383;0.020508;1.083008;
690335;0.064453;0.029297;1.081055;
690475;0.067383;0.027344;1.067383;
690615;0.063477;0.012695;1.045898;
690755;0.064453;0.014648;1.040039;
690895;0.064453;0.021484;1.033203;
691035;0.066406;0.021484;1.026367;
691175;0.063477;0.020508;0.989258;
691315;0.065430;0.019531;0.966797;
691465;0.065430;0.017578;0.984375;
691605;0.064453;0.026367;0.965820;
691745;0.066406;0.022461;0.964844;
691885;0.063477;0.019531;0.939453;
692025;0.067383;0.022461;0.963867;
692161;0.065430;0.015625;0.952148;
692310;0.072266;0.016602;0.976562;
692471;0.072266;0.031250;0.948242;
692621;0.072266;0.023438;0.967773;
692751;0.072266;0.023438;0.946289;
692881;0.074219;0.018555;0.997070;
693025;0.079102;0.023438;0.990234;
693175;0.083984;0.014648;0.977539;
693315;0.080078;0.019531;1.024414;
693455;0.083008;0.021484;1.035156;
693605;0.084961;0.019531;1.039062;
693745;0.082031;0.019531;1.060547;
693885;0.091797;0.013672;1.055664;
694025;0.090820;0.012695;1.056641;
694165;0.086914;0.014648;1.090820;
694305;0.089844;0.020508;1.086914;
694445;0.087891;0.010742;1.059570;
694585;0.093750;0.012695;1.063477;
694725;0.087891;0.018555;1.025391;
694865;0.084961;0.031250;1.037109;
695001;0.088867;0.017578;1.010742;
695141;0.087891;0.019531;0.999023;
695292;0.086914;0.028320;0.976562;
695440;0.083008;0.015625;0.968750;
695581;0.084961;0.008789;0.970703;
695735;0.083008;0.027344;0.963867;
695875;0.088867;0.027344;1.009766;
696015;0.084961;0.018555;1.000977;
696155;0.085938;0.018555;0.988281;
696295;0.088867;0.029297;1.006836;
696435;0.083008;0.021484;1.025391;
696575;0.088867;0.028320;1.045898;
696715;0.090820;0.026367;1.055664;
696855;0.089844;0.016602;1.041992;
696995;0.093750;0.025391;1.052734;
697135;0.091797;0.031250;1.058594;
697275;0.086914;0.020508;1.051758;
697415;0.086914;0.020508;1.057617;
697555;0.085938;0.022461;1.015625;
697701;0.092773;0.023438;1.007812;
697841;0.085938;0.014648;0.977539;
697990;0.088867;0.025391;0.964844;
698140;0.083984;0.025391;0.970703;
698291;0.081055;0.009766;0.949219;
698431;0.084961;0.012695;0.976562;
698585;0.082031;0.012695;0.999023;
698725;0.085938;0.010742;0.995117;
698865;0.088867;0.016602;0.998047;
699005;0.088867;0.027344;1.004883;
699145;0.083008;0.024414;1.003906;
699285;0.087891;0.032227;1.037109;
699425;0.083984;0.028320;1.037109;
699565;0.091797;0.021484;1.046875;
699705;0.093750;0.008789;1.066406;
699855;0.086914;0.022461;1.064453;
699995;0.084961;0.017578;1.062500;
700135;0.088867;0.030273;1.086914;
700275;0.085938;0.012695;1.075195;
700415;0.088867;0.022461;1.071289;
700551;0.083008;0.022461;1.032227;
700701;0.082031;0.037109;1.051758;
700840;0.084961;0.018555;1.055664;
700981;0.081055;0.019531;1.050781;
701130;0.082031;0.018555;1.043945;
701285;0.088867;0.026367;1.032227;
701425;0.083984;0.017578;1.033203;
701575;0.083008;0.018555;1.043945;
701715;0.085938;0.012695;1.083008;
701855;0.084961;0.023438;1.079102;
701995;0.083008;0.020508;1.071289;
702135;0.086914;0.019531;1.070312;
702275;0.082031;0.019531;1.054688;
702415;0.084961;0.031250;1.046875;
702555;0.080078;0.011719;1.069336;
702695;0.085938;0.029297;1.072266;
702845;0.085938;0.022461;1.061523;
702985;0.081055;0.015625;1.041992;
703125;0.083984;0.010742;1.026367;
703262;0.083008;0.029297;1.058594;
703391;0.083008;0.023438;1.049805;
703533;0.084961;0.024414;1.049805;
703681;0.083008;0.020508;1.057617;
703830;0.080078;0.029297;1.078125;
703992;0.083008;0.022461;1.130859;
704155;0.086914;0.023438;1.160156;
704295;0.088867;0.017578;1.237305;
704435;0.088867;0.018555;1.267578;
704575;0.091797;0.014648;1.317383;
704715;0.096680;0.007812;1.381836;
704855;0.098633;0.020508;1.444336;
704995;0.101562;0.018555;1.492188;
705135;0.105469;0.018555;1.538086;
705275;0.107422;0.022461;1.583008;
705415;0.109375;0.013672;1.627930;
705555;0.111328;0.017578;1.685547;
705705;0.113281;0.011719;1.718750;
705845;0.118164;0.011719;1.732422;
705985;0.113281;0.014648;1.748047;
706130;0.118164;0.017578;1.777344;
706270;0.122070;0.014648;1.791016;
706421;0.119141;0.014648;1.813477;
706571;0.123047;0.021484;1.831055;
706715;0.125000;0.018555;1.860352;
706855;0.125000;0.023438;1.871094;
707005;0.124023;0.017578;1.868164;
707145;0.125977;0.010742;1.884766;
707285;0.127930;0.015625;1.910156;
707425;0.129883;0.026367;1.915039;
707565;0.125977;0.026367;1.906250;
707705;0.127930;0.027344;1.903320;
707845;0.126953;0.024414;1.918945;
707985;0.125977;0.019531;1.907227;
708135;0.124023;0.019531;1.907227;
708275;0.130859;0.015625;1.907227;
708415;0.128906;0.010742;1.893555;
708555;0.125000;0.009766;1.882812;
708690;0.126953;0.006836;1.883789;
708842;0.130859;0.002930;1.873047;
708992;0.128906;0.002930;1.842773;
709140;0.126953;0.004883;1.847656;
709291;0.129883;0.008789;1.830078;
709445;0.123047;0.010742;1.837891;
709585;0.125000;0.010742;1.851562;
709725;0.124023;0.021484;1.860352;
709875;0.125977;0.020508;1.849609;
710015;0.129883;0.020508;1.849609;
710155;0.128906;0.021484;1.834961;
710305;0.124023;0.018555;1.852539;
710445;0.128906;0.021484;1.850586;
710585;0.132812;0.022461;1.856445;
710725;0.128906;0.008789;1.847656;
710865;0.129883;0.015625;1.838867;
711005;0.132812;0.014648;1.844727;
711145;0.134766;0.019531;1.874023;
711285;0.131836;0.012695;1.846680;
711421;0.133789;0.011719;1.844727;
711561;0.136719;0.012695;1.846680;
711711;0.135742;0.008789;1.825195;
711861;0.135742;0.012695;1.828125;
712015;0.135742;0.011719;1.842773;
712165;0.134766;0.013672;1.844727;
712305;0.139648;0.006836;1.841797;
712445;0.137695;0.009766;1.846680;
712585;0.138672;0.012695;1.840820;
712725;0.141602;0.013672;1.841797;
712865;0.136719;0.013672;1.856445;
713015;0.137695;0.007812;1.851562;
713155;0.142578;0.006836;1.852539;
713295;0.140625;0.016602;1.859375;
713445;0.140625;0.015625;1.868164;
713585;0.142578;0.014648;1.870117;
713725;0.140625;0.015625;1.856445;
713865;0.145508;0.005859;1.839844;
714007;0.145508;0.004883;1.826172;
714140;0.145508;-0.000977;1.830078;
714291;0.146484;-0.003906;1.827148;
714431;0.143555;0.004883;1.821289;
714571;0.147461;0.006836;1.808594;
714720;0.146484;0.007812;1.824219;
714875;0.145508;0.007812;1.833984;
715025;0.146484;0.001953;1.845703;
715165;0.149414;0.006836;1.825195;
715305;0.145508;0.003906;1.809570;
715445;0.148438;0.001953;1.806641;
715585;0.150391;0.002930;1.830078;
715725;0.151367;0.004883;1.820312;
715865;0.153320;0.009766;1.831055;
716005;0.153320;0.009766;1.822266;
716145;0.149414;0.012695;1.816406;
716285;0.160156;0.001953;1.819336;
716425;0.153320;0.008789;1.802734;
716565;0.155273;0.012695;1.830078;
716705;0.157227;0.011719;1.842773;
716840;0.158203;0.009766;1.823242;
716990;0.165039;0.001953;1.827148;
717131;0.159180;0.002930;1.826172;
717280;0.164062;0.008789;1.824219;
717432;0.163086;0.011719;1.834961;
717575;0.169922;0.013672;1.849609;
717715;0.164062;0.019531;1.857422;
717855;0.170898;0.015625;1.857422;
717995;0.168945;0.017578;1.867188;
718135;0.170898;0.015625;1.863281;
718275;0.174805;0.016602;1.848633;
718415;0.174805;0.018555;1.864258;
718555;0.175781;0.013672;1.882812;
718695;0.177734;0.019531;1.855469;
718835;0.175781;0.013672;1.846680;
718975;0.172852;0.013672;1.833984;
719115;0.181641;0.014648;1.822266;
719255;0.174805;0.013672;1.833008;
719395;0.181641;0.007812;1.832031;
719541;0.180664;0.016602;1.821289;
719692;0.175781;0.017578;1.788086;
719840;0.178711;0.015625;1.780273;
719990;0.179688;0.022461;1.762695;
720135;0.172852;0.015625;1.728516;
720275;0.177734;0.009766;1.738281;
720415;0.176758;0.013672;1.712891;
720555;0.173828;0.013672;1.702148;
720695;0.172852;0.009766;1.675781;
720835;0.176758;0.022461;1.676758;
720975;0.179688;0.030273;1.677734;
721115;0.179688;0.032227;1.704102;
721255;0.176758;0.034180;1.695312;
721395;0.176758;0.043945;1.695312;
721535;0.179688;0.049805;1.688477;
721675;0.179688;0.052734;1.674805;
721815;0.174805;0.041992;1.657227;
721955;0.183594;0.035156;1.656250;
722091;0.184570;0.022461;1.629883;
722240;0.180664;-0.000977;1.602539;
722390;0.187500;-0.006836;1.613281;
722540;0.184570;-0.013672;1.578125;
722695;0.185547;-0.014648;1.563477;
722831;0.186523;-0.018555;1.546875;
722970;0.188477;-0.011719;1.573242;
723121;0.187500;-0.011719;1.597656;
723275;0.190430;0.004883;1.583008;
723425;0.192383;0.009766;1.580078;
723565;0.194336;0.021484;1.587891;
723705;0.193359;0.029297;1.584961;
723845;0.192383;0.033203;1.582031;
723985;0.196289;0.032227;1.598633;
724125;0.196289;0.027344;1.606445;
724275;0.194336;0.015625;1.622070;
724415;0.191406;0.018555;1.602539;
724555;0.190430;0.015625;1.599609;
724695;0.187500;0.011719;1.605469;
724835;0.183594;0.016602;1.626953;
724985;0.173828;0.011719;1.588867;
725125;0.172852;0.007812;1.593750;
725251;0.166992;0.005859;1.576172;
725391;0.156250;0.010742;1.538086;
725541;0.150391;0.017578;1.522461;
725690;0.144531;0.025391;1.477539;
725840;0.128906;0.023438;1.401367;
725995;0.114258;0.023438;1.311523;
726135;0.102539;0.026367;1.250000;
726275;0.092773;0.034180;1.159180;
726425;0.073242;0.032227;1.077148;
726565;0.063477;0.029297;0.987305;
726705;0.049805;0.029297;0.864258;
726855;0.038086;0.028320;0.755859;
726995;0.030273;0.027344;0.684570;
727135;0.021484;0.026367;0.575195;
727275;0.027344;0.014648;0.583984;
727415;0.010742;0.022461;0.416992;
727555;0.007812;0.024414;0.368164;
727695;0.008789;0.021484;0.291016;
727835;0.002930;0.019531;0.246094;
727972;0.004883;0.025391;0.221680;
728120;0.002930;0.024414;0.179688;
728271;0.000977;0.024414;0.130859;
728421;0.000000;0.022461;0.125000;
728565;-0.002930;0.021484;0.087891;
728705;0.001953;0.023438;0.093750;
728845;-0.003906;0.023438;0.072266;
728985;-0.000977;0.027344;0.074219;
729125;-0.005859;0.030273;0.068359;
729265;-0.003906;0.030273;0.070312;
729405;-0.008789;0.029297;0.063477;
729551;-0.007812;0.032227;0.073242;
729705;-0.007812;0.030273;0.059570;
729845;-0.006836;0.028320;0.045898;
729995;-0.005859;0.023438;0.029297;
730135;-0.003906;0.024414;0.037109;
730275;-0.003906;0.030273;0.033203;
730425;-0.005859;0.031250;0.016602;
730561;-0.006836;0.029297;0.013672;
730710;-0.005859;0.035156;0.011719;
730851;-0.007812;0.032227;0.002930;
730982;-0.005859;0.034180;0.005859;
731131;-0.006836;0.034180;0.005859;
731291;-0.008789;0.032227;-0.005859;
731435;-0.010742;0.033203;-0.003906;
731575;-0.011719;0.036133;-0.002930;
731715;-0.010742;0.033203;-0.000977;
731857;-0.010742;0.032227;-0.001953;
732005;-0.006836;0.033203;-0.002930;
732155;-0.008789;0.036133;-0.004883;
732295;-0.009766;0.037109;-0.000977;
732435;-0.008789;0.036133;0.001953;
732585;-0.007812;0.037109;-0.011719;
732725;-0.009766;0.035156;-0.007812;
732865;-0.011719;0.036133;0.000000;
733015;-0.012695;0.036133;0.009766;
733155;-0.008789;0.030273;0.016602;
733295;-0.013672;0.032227;0.014648;
733431;-0.010742;0.036133;0.012695;
733581;-0.011719;0.035156;0.019531;
733731;-0.015625;0.033203;0.019531;
733872;-0.012695;0.036133;0.027344;
734025;-0.010742;0.032227;0.029297;
734165;-0.011719;0.036133;0.034180;
734305;-0.017578;0.041016;-0.027344;
734445;-0.010742;0.032227;0.019531;
734585;-0.009766;0.031250;0.038086;
734725;-0.012695;0.033203;0.034180;
734865;-0.009766;0.029297;0.034180;
735005;-0.012695;0.030273;0.043945;
735145;-0.012695;0.029297;0.039062;
735285;-0.011719;0.025391;0.029297;
735425;-0.015625;0.030273;0.030273;
735565;-0.014648;0.030273;0.030273;
735705;-0.013672;0.025391;0.034180;
735845;-0.014648;0.024414;0.036133;
735995;-0.010742;0.025391;0.029297;
736131;-0.012695;0.027344;0.042969;
736281;-0.013672;0.025391;0.025391;
736432;-0.014648;0.027344;0.022461;
736581;-0.013672;0.024414;0.028320;
736725;-0.013672;0.025391;0.022461;
736865;-0.014648;0.023438;0.015625;
737005;-0.014648;0.025391;0.020508;
737145;-0.013672;0.028320;0.027344;
737285;-0.012695;0.023438;0.012695;
737425;-0.013672;0.023438;0.013672;
737565;-0.015625;0.022461;0.020508;
737715;-0.012695;0.024414;0.009766;
737855;-0.015625;0.021484;0.013672;
737995;-0.014648;0.026367;0.013672;
738135;-0.013672;0.022461;0.014648;
738275;-0.015625;0.024414;0.007812;
738415;-0.015625;0.022461;0.006836;
738555;-0.016602;0.023438;0.009766;
738691;-0.014648;0.025391;0.015625;
738842;-0.015625;0.024414;0.010742;
738991;-0.014648;0.022461;0.013672;
739143;-0.016602;0.025391;0.008789;
739281;-0.016602;0.024414;0.011719;
739433;-0.014648;0.023438;0.008789;
739575;-0.014648;0.022461;0.013672;
739715;-0.015625;0.026367;0.017578;
739865;-0.017578;0.022461;0.012695;
740005;-0.016602;0.025391;0.016602;
740145;-0.016602;0.025391;0.017578;
740285;-0.016602;0.024414;0.021484;
740425;-0.016602;0.023438;0.020508;
740565;-0.015625;0.024414;0.021484;
740705;-0.018555;0.024414;0.022461;
740845;-0.015625;0.024414;0.023438;
740985;-0.016602;0.025391;0.024414;
741135;-0.017578;0.024414;0.024414;
741271;-0.016602;0.025391;0.019531;
741415;-0.016602;0.024414;0.028320;
741562;-0.017578;0.023438;0.029297;
741711;-0.017578;0.027344;0.023438;
741852;-0.018555;0.028320;0.023438;
742015;-0.019531;0.023438;0.019531;
742141;-0.018555;0.027344;0.020508;
742283;-0.017578;0.027344;0.016602;
742441;-0.017578;0.025391;0.021484;
742595;-0.018555;0.026367;0.011719;
742735;-0.019531;0.025391;0.009766;
742885;-0.019531;0.026367;0.003906;
743025;-0.017578;0.027344;0.009766;
743165;-0.018555;0.025391;0.006836;
743305;-0.018555;0.027344;0.003906;
743445;-0.021484;0.030273;-0.001953;
743585;-0.019531;0.030273;-0.010742;
743725;-0.020508;0.026367;-0.004883;
743865;-0.018555;0.028320;0.001953;
744005;-0.020508;0.024414;0.000000;
744145;-0.017578;0.030273;-0.005859;
744285;-0.020508;0.027344;-0.003906;
744425;-0.021484;0.029297;-0.006836;
744561;-0.022461;0.028320;-0.002930;
744712;-0.020508;0.027344;0.002930;
744861;-0.022461;0.029297;0.004883;
745010;-0.021484;0.026367;0.000000;
745165;-0.021484;0.028320;0.001953;
745305;-0.022461;0.024414;0.005859;
745455;-0.022461;0.025391;0.007812;
745595;-0.021484;0.027344;0.009766;
745745;-0.021484;0.026367;0.014648;
745895;-0.021484;0.025391;0.011719;
746035;-0.022461;0.022461;0.016602;
746175;-0.023438;0.024414;0.014648;
746315;-0.021484;0.019531;0.015625;
746457;-0.024414;0.022461;0.019531;
746605;-0.024414;0.016602;0.015625;
746745;-0.024414;0.017578;0.012695;
746885;-0.024414;0.018555;0.017578;
747025;-0.023438;0.019531;0.009766;
747160;-0.024414;0.019531;0.008789;
747301;-0.025391;0.019531;0.001953;
747451;-0.025391;0.023438;-0.000977;
747601;-0.026367;0.021484;-0.003906;
747751;-0.028320;0.022461;-0.009766;
747881;-0.024414;0.020508;-0.006836;
748015;-0.027344;0.017578;-0.007812;
748155;-0.028320;0.022461;-0.015625;
748295;-0.026367;0.019531;-0.020508;
748435;-0.028320;0.021484;-0.021484;
748575;-0.030273;0.020508;-0.014648;
748712;-0.031250;0.021484;-0.040039;
748865;-0.030273;0.017578;-0.026367;
749005;-0.032227;0.017578;-0.019531;
749145;-0.032227;0.021484;-0.020508;
749280;-0.030273;0.016602;-0.024414;
749425;-0.031250;0.017578;-0.021484;
749565;-0.029297;0.018555;-0.008789;
749715;-0.033203;0.019531;0.000977;
749855;-0.036133;0.020508;0.000977;
749992;-0.032227;0.023438;0.025391;
750141;-0.031250;0.029297;0.041016;
750283;-0.035156;0.027344;0.049805;
750421;-0.031250;0.028320;0.128906;
750561;-0.035156;0.024414;0.082031;
750711;-0.035156;0.013672;0.095703;
750855;-0.033203;0.029297;0.091797;
750995;-0.039062;0.023438;0.093750;
751145;-0.038086;0.027344;0.101562;
751285;-0.041992;0.028320;0.127930;
751425;-0.042969;0.025391;0.155273;
751565;-0.042969;0.030273;0.204102;
751705;-0.043945;0.029297;0.277344;
751845;-0.040039;0.028320;0.335938;
751985;-0.037109;0.029297;0.406250;
752125;-0.037109;0.032227;0.473633;
752265;-0.035156;0.032227;0.541016;
752415;-0.030273;0.034180;0.623047;
752555;-0.011719;0.034180;0.738281;
752695;-0.016602;0.033203;0.808594;
752830;-0.007812;0.034180;0.894531;
752971;-0.000977;0.031250;0.959961;
753121;0.004883;0.030273;1.042969;
753273;0.012695;0.029297;1.124023;
753425;0.019531;0.028320;1.191406;
753575;0.026367;0.029297;1.247070;
753715;0.032227;0.026367;1.288086;
753855;0.034180;0.024414;1.333984;
753995;0.038086;0.019531;1.352539;
754135;0.038086;0.019531;1.382812;
754275;0.040039;0.024414;1.416016;
754415;0.041016;0.018555;1.453125;
754565;0.041016;0.021484;1.469727;
754705;0.043945;0.021484;1.514648;
754851;0.046875;0.033203;1.564453;
755005;0.050781;0.032227;1.604492;
755155;0.046875;0.035156;1.629883;
755295;0.048828;0.036133;1.675781;
755440;0.050781;0.032227;1.702148;
755592;0.054688;0.033203;1.737305;
755741;0.061523;0.039062;1.791992;
755891;0.058594;0.031250;1.846680;
756041;0.057617;0.040039;1.880859;
756185;0.047852;0.050781;1.827148;
756321;0.045898;0.026367;1.811523;
756465;0.057617;0.025391;1.814453;
756605;0.051758;0.015625;1.832031;
756745;0.057617;0.000977;1.812500;
756885;0.054688;0.005859;1.820312;
757025;0.048828;0.019531;1.797852;
757165;0.041992;0.029297;1.776367;
757305;0.043945;0.021484;1.775391;
757445;0.044922;0.024414;1.787109;
757585;0.040039;0.028320;1.818359;
757725;0.037109;0.027344;1.795898;
757861;0.036133;0.029297;1.803711;
758005;0.035156;0.033203;1.792969;
758141;0.039062;0.026367;1.809570;
758292;0.033203;0.030273;1.810547;
758441;0.019531;0.022461;1.743164;
758601;0.023438;0.021484;1.701172;
758750;0.026367;-0.014648;1.763672;
758895;0.025391;-0.015625;1.772461;
759035;0.027344;-0.015625;1.796875;
759175;0.031250;-0.000977;1.773438;
759315;0.020508;0.004883;1.774414;
759455;0.020508;0.009766;1.786133;
759595;0.022461;0.007812;1.791016;
759745;0.018555;0.015625;1.791016;
759885;0.014648;0.018555;1.777344;
760025;0.011719;0.021484;1.779297;
760167;0.012695;0.027344;1.799805;
760315;0.013672;0.029297;1.821289;
760455;0.014648;0.026367;1.838867;
760605;0.014648;0.031250;1.849609;
760745;0.015625;0.026367;1.871094;
760891;0.014648;0.030273;1.884766;
761050;0.015625;0.024414;1.903320;
761201;0.014648;0.025391;1.907227;
761351;0.015625;0.020508;1.905273;
761501;0.011719;0.012695;1.903320;
761645;0.003906;0.012695;1.786133;
761785;-0.026367;0.014648;1.772461;
761925;0.032227;0.009766;1.953125;
762065;0.012695;0.018555;1.869141;
762205;0.003906;0.019531;1.860352;
762355;0.000977;0.023438;1.848633;
762495;0.001953;0.026367;1.836914;
762635;-0.004883;0.023438;1.826172;
762775;-0.003906;0.017578;1.823242;
762915;-0.004883;0.022461;1.827148;
763055;-0.007812;0.019531;1.827148;
763195;-0.002930;0.019531;1.838867;
763335;-0.005859;0.014648;1.832031;
763475;-0.003906;0.017578;1.858398;
763610;-0.005859;0.016602;1.868164;
763741;-0.003906;0.014648;1.875000;
763881;-0.005859;0.017578;1.874023;
764022;-0.008789;0.017578;1.878906;
764170;-0.008789;0.018555;1.868164;
764320;-0.008789;0.022461;1.893555;
764475;-0.006836;0.023438;1.886719;
764615;-0.007812;0.019531;1.889648;
764755;-0.010742;0.022461;1.880859;
764895;-0.012695;0.019531;1.881836;
765035;-0.010742;0.024414;1.881836;
765175;-0.014648;0.018555;1.876953;
765315;-0.012695;0.021484;1.883789;
765460;-0.012695;0.016602;1.875000;
765605;-0.016602;0.012695;1.867188;
765755;-0.011719;0.014648;1.884766;
765895;-0.015625;0.014648;1.880859;
766035;-0.016602;0.013672;1.876953;
766185;-0.019531;0.016602;1.866211;
766325;-0.020508;0.018555;1.861328;
766451;-0.018555;0.015625;1.861328;
766600;-0.019531;0.016602;1.864258;
766752;-0.017578;0.025391;1.855469;
766901;-0.020508;0.018555;1.856445;
767060;-0.023438;0.025391;1.833008;
767215;-0.019531;0.016602;1.835938;
767355;-0.024414;0.021484;1.848633;
767495;-0.039062;0.033203;1.731445;
767635;-0.015625;0.012695;1.852539;
767775;-0.027344;0.015625;1.799805;
767925;-0.027344;0.012695;1.816406;
768065;-0.028320;0.018555;1.791016;
768205;-0.026367;0.022461;1.794922;
768355;-0.032227;0.019531;1.750000;
768495;-0.031250;0.023438;1.722656;
768635;-0.043945;0.014648;1.709961;
768775;-0.049805;0.009766;1.652344;
768915;-0.042969;0.021484;1.721680;
769051;-0.040039;0.019531;1.668945;
769201;-0.044922;0.019531;1.662109;
769351;-0.041016;0.016602;1.670898;
769490;-0.041992;0.015625;1.656250;
769641;-0.045898;0.017578;1.654297;
769785;-0.041992;0.020508;1.644531;
769925;-0.041992;0.015625;1.633789;
770075;-0.045898;0.014648;1.632812;
770215;-0.044922;0.021484;1.618164;
770355;-0.046875;0.015625;1.613281;
770505;-0.047852;0.015625;1.589844;
770641;-0.054688;0.015625;1.517578;
770795;-0.053711;0.013672;1.536133;
770945;-0.063477;0.012695;1.513672;
771085;-0.063477;0.021484;1.443359;
771225;-0.065430;0.014648;1.422852;
771365;-0.066406;0.018555;1.389648;
771505;-0.069336;0.015625;1.356445;
771655;-0.069336;0.022461;1.358398;
771792;-0.068359;0.020508;1.354492;
771941;-0.072266;0.023438;1.350586;
772071;-0.066406;0.019531;1.358398;
772212;-0.070312;0.013672;1.352539;
772362;-0.069336;0.016602;1.360352;
772515;-0.065430;0.013672;1.367188;
772657;-0.070312;0.017578;1.367188;
772805;-0.070312;0.012695;1.359375;
772945;-0.070312;0.011719;1.345703;
773095;-0.070312;0.011719;1.339844;
773235;-0.076172;0.015625;1.319336;
773385;-0.072266;0.019531;1.311523;
773525;-0.073242;0.017578;1.308594;
773665;-0.077148;0.020508;1.296875;
773815;-0.076172;0.017578;1.281250;
773955;-0.074219;0.023438;1.287109;
774095;-0.079102;0.017578;1.278320;
774245;-0.069336;0.017578;1.274414;
774385;-0.076172;0.015625;1.275391;
774530;-0.078125;0.019531;1.274414;
774681;-0.076172;0.012695;1.265625;
774822;-0.076172;0.014648;1.258789;
774970;-0.076172;0.012695;1.243164;
775120;-0.074219;0.015625;1.234375;
775275;-0.080078;0.013672;1.210938;
775425;-0.082031;0.015625;1.182617;
775575;-0.083008;0.016602;1.169922;
775715;-0.084961;0.015625;1.157227;
775855;-0.086914;0.020508;1.124023;
776005;-0.083984;0.029297;1.100586;
776145;-0.085938;0.021484;1.067383;
776285;-0.088867;0.020508;1.044922;
776435;-0.085938;0.021484;1.042969;
776575;-0.087891;0.023438;1.025391;
776715;-0.089844;0.018555;0.998047;
776855;-0.087891;0.019531;1.000977;
776995;-0.090820;0.018555;1.000000;
777145;-0.089844;0.015625;0.984375;
777282;-0.091797;0.020508;0.976562;
777430;-0.089844;0.019531;0.983398;
777570;-0.091797;0.013672;0.979492;
777712;-0.088867;0.015625;0.994141;
777861;-0.091797;0.018555;0.999023;
778001;-0.089844;0.015625;1.009766;
778155;-0.086914;0.014648;1.024414;
778295;-0.086914;0.015625;1.027344;
778435;-0.084961;0.014648;1.040039;
778575;-0.088867;0.009766;1.041992;
778715;-0.087891;0.016602;1.058594;
778855;-0.085938;0.021484;1.052734;
778995;-0.088867;0.025391;1.062500;
779135;-0.084961;0.024414;1.067383;
779275;-0.083008;0.023438;1.069336;
779415;-0.083984;0.020508;1.070312;
779555;-0.083008;0.025391;1.072266;
779695;-0.083008;0.025391;1.063477;
779835;-0.082031;0.022461;1.058594;
779975;-0.081055;0.024414;1.052734;
780110;-0.082031;0.025391;1.050781;
780250;-0.078125;0.020508;1.058594;
780391;-0.078125;0.017578;1.043945;
780541;-0.074219;0.015625;1.041016;
780695;-0.073242;0.015625;1.048828;
780835;-0.070312;0.015625;1.043945;
780975;-0.071289;0.011719;1.043945;
781115;-0.067383;0.016602;1.053711;
781255;-0.063477;0.017578;1.072266;
781395;-0.060547;0.013672;1.069336;
781535;-0.051758;0.015625;1.105469;
781685;-0.050781;0.022461;1.130859;
781825;-0.045898;0.023438;1.145508;
781965;-0.036133;0.025391;1.185547;
782105;-0.033203;0.023438;1.210938;
782245;-0.024414;0.027344;1.264648;
782385;-0.015625;0.025391;1.297852;
782525;-0.007812;0.019531;1.354492;
782662;-0.003906;0.025391;1.387695;
782810;-0.000977;0.011719;1.427734;
782951;0.001953;0.012695;1.461914;
783102;0.005859;0.013672;1.496094;
783251;0.004883;0.011719;1.517578;
783395;0.008789;0.009766;1.532227;
783545;0.009766;0.007812;1.532227;
783685;0.004883;0.011719;1.514648;
783825;0.003906;0.014648;1.495117;
783965;-0.001953;0.020508;1.474609;
784105;0.000977;0.021484;1.442383;
784245;0.000977;0.021484;1.441406;
784385;-0.000977;0.022461;1.417969;
784525;-0.004883;0.022461;1.380859;
784665;-0.005859;0.020508;1.348633;
784805;-0.004883;0.020508;1.343750;
784955;-0.008789;0.017578;1.303711;
785095;-0.014648;0.017578;1.273438;
785235;-0.010742;0.015625;1.246094;
785380;-0.012695;0.014648;1.236328;
785531;-0.015625;0.017578;1.201172;
785681;-0.015625;0.010742;1.165039;
785825;-0.018555;0.014648;1.155273;
785970;-0.020508;0.011719;1.126953;
786111;-0.023438;0.017578;1.101562;
786265;-0.023438;0.018555;1.095703;
786405;-0.026367;0.020508;1.075195;
786545;-0.023438;0.021484;1.070312;
786685;-0.023438;0.026367;1.074219;
786825;-0.025391;0.022461;1.059570;
786965;-0.025391;0.025391;1.059570;
787105;-0.022461;0.022461;1.060547;
787255;-0.024414;0.018555;1.091797;
787395;-0.026367;0.022461;1.081055;
787535;-0.021484;0.012695;1.068359;
787685;-0.025391;0.013672;1.067383;
787825;-0.022461;0.019531;1.074219;
787965;-0.027344;0.016602;1.072266;
788105;-0.030273;0.011719;1.061523;
788240;-0.029297;0.015625;1.080078;
788380;-0.033203;0.017578;1.062500;
788530;-0.032227;0.023438;1.053711;
788680;-0.034180;0.021484;1.058594;
788835;-0.032227;0.026367;1.050781;
788985;-0.039062;0.025391;1.043945;
789135;-0.035156;0.026367;1.036133;
789275;-0.037109;0.026367;1.037109;
789415;-0.029297;0.029297;1.059570;
789565;-0.028320;0.025391;1.041016;
789705;-0.027344;0.028320;1.026367;
789845;-0.026367;0.024414;1.024414;
789985;-0.021484;0.027344;1.011719;
790125;-0.026367;0.023438;1.023438;
790265;-0.025391;0.022461;1.015625;
790405;-0.024414;0.025391;1.020508;
790545;-0.021484;0.022461;1.027344;
790685;-0.024414;0.016602;1.027344;
790831;-0.025391;0.018555;1.020508;
790981;-0.023438;0.017578;1.012695;
791121;-0.026367;0.022461;1.016602;
791271;-0.027344;0.022461;1.016602;
791421;-0.022461;0.024414;1.008789;
791555;-0.024414;0.021484;1.009766;
791705;-0.024414;0.022461;0.998047;
791845;-0.028320;0.016602;0.980469;
791985;-0.025391;0.022461;0.989258;
792135;-0.026367;0.025391;0.991211;
792275;-0.029297;0.027344;0.981445;
792415;-0.027344;0.023438;0.975586;
792555;-0.025391;0.022461;0.991211;
792695;-0.025391;0.018555;0.980469;
792835;-0.023438;0.021484;0.977539;
792975;-0.028320;0.022461;0.969727;
793115;-0.026367;0.023438;0.979492;
793265;-0.026367;0.021484;0.989258;
793405;-0.022461;0.020508;0.981445;
793542;-0.022461;0.026367;0.980469;
793693;-0.022461;0.023438;0.987305;
793841;-0.026367;0.023438;0.993164;
793992;-0.024414;0.022461;0.985352;
794141;-0.025391;0.020508;0.999023;
794295;-0.025391;0.018555;0.994141;
794435;-0.024414;0.024414;1.007812;
794575;-0.028320;0.018555;1.001953;
794725;-0.025391;0.020508;1.016602;
794865;-0.024414;0.017578;1.006836;
795005;-0.028320;0.027344;1.004883;
795155;-0.024414;0.024414;1.001953;
795295;-0.024414;0.020508;1.012695;
795435;-0.023438;0.022461;1.004883;
795575;-0.025391;0.020508;1.002930;
795715;-0.023438;0.020508;0.998047;
795855;-0.025391;0.018555;1.001953;
795995;-0.027344;0.020508;0.998047;
796135;-0.024414;0.017578;0.991211;
796287;-0.025391;0.021484;0.997070;
796443;-0.025391;0.026367;0.999023;
796602;-0.025391;0.021484;0.985352;
796750;-0.025391;0.022461;0.998047;
796900;-0.025391;0.024414;1.007812;
797055;-0.020508;0.027344;1.039062;
797205;-0.023438;0.022461;1.038086;
797345;-0.022461;0.019531;1.060547;
797485;-0.021484;0.022461;1.079102;
797635;-0.021484;0.022461;1.078125;
797775;-0.020508;0.024414;1.095703;
797915;-0.020508;0.022461;1.108398;
798065;-0.019531;0.025391;1.099609;
798205;-0.021484;0.019531;1.092773;
798345;-0.019531;0.022461;1.094727;
798495;-0.021484;0.018555;1.089844;
798635;-0.020508;0.017578;1.063477;
798785;-0.021484;0.021484;1.058594;
798927;-0.021484;0.020508;1.046875;
799071;-0.022461;0.016602;1.026367;
799221;-0.024414;0.023438;1.015625;
799380;-0.020508;0.027344;1.015625;
799515;-0.025391;0.030273;1.022461;
799650;-0.022461;0.025391;1.019531;
799805;-0.022461;0.030273;1.037109;
799945;-0.019531;0.027344;1.035156;
800085;-0.023438;0.027344;1.031250;
800225;-0.027344;0.025391;1.023438;
800365;-0.023438;0.021484;1.020508;
800505;-0.023438;0.023438;1.029297;
800645;-0.018555;0.020508;1.045898;
800785;-0.022461;0.022461;1.044922;
800925;-0.021484;0.024414;1.039062;
801065;-0.022461;0.020508;1.046875;
801205;-0.023438;0.020508;1.047852;
801345;-0.022461;0.018555;1.047852;
801485;-0.019531;0.020508;1.048828;
801625;-0.018555;0.015625;1.051758;
801761;-0.018555;0.019531;1.060547;
801905;-0.018555;0.020508;1.049805;
802041;-0.017578;0.017578;1.050781;
802180;-0.016602;0.015625;1.057617;
802330;-0.012695;0.016602;1.053711;
802481;-0.014648;0.017578;1.042969;
802631;-0.009766;0.020508;1.059570;
802775;-0.013672;0.020508;1.040039;
802915;-0.009766;0.019531;1.035156;
803055;-0.012695;0.024414;1.031250;
803195;-0.012695;0.024414;1.047852;
803345;-0.011719;0.021484;1.038086;
803485;-0.014648;0.023438;1.026367;
803625;-0.015625;0.027344;1.031250;
803765;-0.016602;0.021484;1.024414;
803905;-0.015625;0.025391;1.024414;
804045;-0.017578;0.021484;1.024414;
804185;-0.018555;0.025391;1.026367;
804325;-0.017578;0.021484;1.027344;
804475;-0.014648;0.027344;1.013672;
804615;-0.017578;0.022461;1.009766;
804751;-0.019531;0.027344;1.021484;
804901;-0.019531;0.029297;1.019531;
805051;-0.016602;0.028320;1.007812;
805201;-0.020508;0.022461;0.993164;
805351;-0.018555;0.024414;1.000000;
805505;-0.016602;0.020508;1.000000;
805645;-0.019531;0.020508;1.000977;
805785;-0.017578;0.024414;1.000977;
805935;-0.016602;0.015625;0.989258;
806075;-0.019531;0.017578;0.997070;
806215;-0.017578;0.017578;0.999023;
806355;-0.016602;0.019531;0.991211;
806495;-0.018555;0.021484;0.994141;
806645;-0.020508;0.020508;0.991211;
806785;-0.019531;0.024414;0.999023;
806925;-0.018555;0.020508;1.000977;
807065;-0.018555;0.020508;1.009766;
807205;-0.015625;0.017578;1.002930;
807345;-0.016602;0.018555;1.009766;
807481;-0.016602;0.017578;1.008789;
807632;-0.016602;0.021484;1.008789;
807781;-0.018555;0.024414;1.011719;
807935;-0.018555;0.022461;1.016602;
808071;-0.015625;0.022461;1.008789;
808201;-0.016602;0.022461;1.015625;
808332;-0.019531;0.026367;1.034180;
808485;-0.017578;0.023438;1.026367;
808625;-0.021484;0.020508;1.026367;
808765;-0.014648;0.017578;1.037109;
808905;-0.017578;0.020508;1.029297;
809045;-0.019531;0.017578;1.025391;
809185;-0.014648;0.022461;1.035156;
809325;-0.016602;0.016602;1.029297;
809465;-0.016602;0.015625;1.032227;
809605;-0.018555;0.017578;1.042969;
809755;-0.015625;0.015625;1.033203;
809895;-0.016602;0.020508;1.036133;
810035;-0.018555;0.013672;1.031250;
810185;-0.016602;0.023438;1.038086;
810325;-0.016602;0.022461;1.030273;
810461;-0.017578;0.025391;1.034180;
810611;-0.018555;0.024414;1.020508;
810755;-0.015625;0.025391;1.018555;
810892;-0.018555;0.020508;1.026367;
811041;-0.017578;0.024414;1.029297;
811190;-0.015625;0.024414;1.015625;
811345;-0.017578;0.024414;1.007812;
811485;-0.019531;0.023438;0.993164;
811625;-0.015625;0.028320;1.010742;
811765;-0.022461;0.026367;1.007812;
811905;-0.018555;0.026367;1.015625;
812045;-0.018555;0.021484;1.020508;
812185;-0.018555;0.017578;1.028320;
812325;-0.018555;0.018555;1.044922;
812465;-0.016602;0.023438;1.046875;
812605;-0.015625;0.021484;1.059570;
812745;-0.014648;0.016602;1.047852;
812885;-0.017578;0.019531;1.044922;
813025;-0.015625;0.020508;1.050781;
813175;-0.014648;0.018555;1.061523;
813311;-0.015625;0.021484;1.054688;
813461;-0.012695;0.018555;1.055664;
813612;-0.014648;0.021484;1.078125;
813762;-0.014648;0.019531;1.065430;
813911;-0.009766;0.023438;1.056641;
814055;-0.012695;0.018555;1.049805;
814195;-0.013672;0.023438;1.050781;
814335;-0.013672;0.030273;1.035156;
814475;-0.015625;0.021484;1.040039;
814615;-0.017578;0.024414;1.032227;
814755;-0.016602;0.024414;1.028320;
814895;-0.017578;0.019531;1.010742;
815035;-0.015625;0.017578;1.019531;
815175;-0.013672;0.017578;1.023438;
815325;-0.016602;0.010742;1.013672;
815465;-0.014648;0.013672;1.015625;
815605;-0.013672;0.020508;1.018555;
815745;-0.013672;0.015625;1.024414;
815885;-0.015625;0.021484;1.012695;
816031;-0.016602;0.022461;1.015625;
816180;-0.014648;0.023438;1.020508;
816335;-0.014648;0.025391;1.035156;
816475;-0.013672;0.027344;1.030273;
816612;-0.014648;0.014648;1.040039;
816751;-0.013672;0.020508;1.030273;
816900;-0.012695;0.024414;1.046875;
817065;-0.012695;0.019531;1.035156;
817205;-0.012695;0.011719;1.030273;
817345;-0.012695;0.012695;1.030273;
817485;-0.011719;0.011719;1.038086;
817625;-0.010742;0.009766;1.030273;
817765;-0.011719;0.012695;1.035156;
817905;-0.013672;0.018555;1.033203;
818045;-0.012695;0.021484;1.029297;
818185;-0.011719;0.019531;1.030273;
818335;-0.011719;0.018555;1.020508;
818475;-0.014648;0.021484;1.029297;
818615;-0.013672;0.025391;1.024414;
818755;-0.011719;0.025391;1.029297;
818895;-0.010742;0.016602;1.024414;
819031;-0.010742;0.027344;1.037109;
819181;-0.015625;0.024414;1.026367;
819332;-0.011719;0.023438;1.032227;
819480;-0.011719;0.026367;1.017578;
819631;-0.011719;0.018555;1.009766;
819775;-0.015625;0.019531;1.014648;
819915;-0.013672;0.022461;1.013672;
820055;-0.016602;0.018555;1.008789;
820205;-0.014648;0.015625;1.011719;
820345;-0.015625;0.020508;1.010742;
820485;-0.012695;0.020508;1.013672;
820625;-0.014648;0.019531;1.019531;
820765;-0.014648;0.019531;1.007812;
820905;-0.013672;0.019531;1.021484;
821055;-0.012695;0.020508;1.024414;
821195;-0.012695;0.019531;1.021484;
821335;-0.015625;0.021484;1.035156;
821485;-0.014648;0.020508;1.027344;
821625;-0.015625;0.021484;1.030273;
821760;-0.012695;0.017578;1.032227;
821910;-0.014648;0.018555;1.029297;
822062;-0.009766;0.017578;1.040039;
822211;-0.010742;0.019531;1.047852;
822362;-0.008789;0.019531;1.053711;
822515;-0.010742;0.018555;1.051758;
822655;-0.009766;0.019531;1.052734;
822795;-0.012695;0.019531;1.052734;
822935;-0.008789;0.019531;1.055664;
823075;-0.011719;0.019531;1.050781;
823215;-0.012695;0.017578;1.050781;
823355;-0.010742;0.020508;1.047852;
823495;-0.007812;0.023438;1.054688;
823635;-0.008789;0.026367;1.057617;
823775;-0.007812;0.023438;1.041016;
823915;-0.002930;0.029297;1.039062;
824065;-0.002930;0.025391;1.038086;
824205;0.000977;0.028320;1.035156;
824345;0.006836;0.026367;1.030273;
824482;0.010742;0.025391;1.032227;
824631;0.013672;0.025391;1.034180;
824770;0.013672;0.024414;1.055664;
824920;0.015625;0.028320;1.052734;
825071;0.014648;0.025391;1.067383;
825225;0.020508;0.025391;1.105469;
825365;0.015625;0.022461;1.124023;
825505;0.016602;0.019531;1.140625;
825645;0.015625;0.019531;1.151367;
825785;0.015625;0.018555;1.159180;
825935;0.017578;0.016602;1.162109;
826075;0.019531;0.017578;1.141602;
826215;0.016602;0.013672;1.149414;
826355;0.014648;0.015625;1.115234;
826495;0.010742;0.019531;1.087891;
826645;0.008789;0.015625;1.072266;
826785;0.007812;0.022461;1.043945;
826925;0.008789;0.020508;1.032227;
827065;0.007812;0.022461;1.005859;
827203;0.008789;0.024414;0.991211;
827351;0.005859;0.025391;0.974609;
827495;0.006836;0.022461;0.951172;
827621;0.002930;0.026367;0.958008;
827770;0.005859;0.020508;0.937500;
827920;0.003906;0.027344;0.951172;
828075;0.005859;0.022461;0.942383;
828225;0.004883;0.020508;0.939453;
828365;0.000977;0.022461;0.949219;
828515;0.004883;0.024414;0.948242;
828655;0.002930;0.019531;0.945312;
828795;0.004883;0.019531;0.958008;
828935;0.003906;0.014648;0.949219;
829075;0.003906;0.019531;0.979492;
829215;0.008789;0.016602;0.995117;
829355;0.006836;0.019531;1.021484;
829495;0.008789;0.019531;1.021484;
829635;0.006836;0.016602;1.028320;
829775;0.009766;0.012695;1.046875;
829925;0.009766;0.019531;1.049805;
830064;0.008789;0.017578;1.068359;
830205;0.009766;0.017578;1.069336;
830350;0.009766;0.020508;1.064453;
830501;0.012695;0.018555;1.085938;
830650;0.011719;0.017578;1.080078;
830805;0.010742;0.015625;1.078125;
830945;0.011719;0.014648;1.083008;
831085;0.008789;0.018555;1.077148;
831225;0.010742;0.022461;1.090820;
831365;0.010742;0.026367;1.089844;
831505;0.007812;0.026367;1.081055;
831645;0.009766;0.024414;1.072266;
831785;0.009766;0.021484;1.056641;
831935;0.009766;0.022461;1.079102;
832075;0.010742;0.022461;1.056641;
832215;0.010742;0.022461;1.055664;
832355;0.007812;0.021484;1.041992;
832495;0.008789;0.020508;1.022461;
832635;0.009766;0.018555;1.026367;
832775;0.006836;0.016602;1.004883;
832921;0.006836;0.018555;0.996094;
833071;0.013672;0.023438;0.972656;
833220;0.004883;0.022461;0.966797;
