Time;acc_x;acc_y;acc_z;

1069674;0.087891;0.024414;1.016602;
1069899;0.090820;0.019531;1.022461;
1070049;0.091797;0.017578;1.009766;
1070189;0.088867;0.025391;1.017578;
1070329;0.086914;0.019531;0.999023;
1070469;0.084961;0.019531;0.989258;
1070609;0.087891;0.018555;0.989258;
1070749;0.085938;0.019531;0.989258;
1070889;0.087891;0.022461;1.003906;
1071029;0.086914;0.018555;1.026367;
1071169;0.084961;0.015625;1.031250;
1071309;0.085938;0.021484;1.033203;
1071449;0.086914;0.018555;1.041016;
1071589;0.087891;0.017578;1.045898;
1071729;0.089844;0.024414;1.050781;
1071869;0.088867;0.023438;1.063477;
1072009;0.086914;0.017578;1.049805;
1072149;0.088867;0.024414;1.055664;
1072286;0.089844;0.023438;1.053711;
1072435;0.089844;0.025391;1.049805;
1072594;0.087891;0.019531;1.034180;
1072749;0.087891;0.018555;1.029297;
1072889;0.089844;0.022461;1.039062;
1073039;0.086914;0.017578;1.021484;
1073179;0.085938;0.018555;1.018555;
1073319;0.083008;0.024414;1.007812;
1073454;0.089844;0.023438;1.001953;
1073609;0.083008;0.018555;0.987305;
1073749;0.085938;0.017578;0.981445;
1073889;0.086914;0.026367;0.992188;
1074029;0.079102;0.018555;0.985352;
1074169;0.080078;0.015625;0.984375;
1074309;0.086914;0.024414;0.996094;
1074449;0.080078;0.025391;0.983398;
1074589;0.083984;0.017578;0.967773;
1074729;0.083984;0.025391;0.980469;
1074884;0.078125;0.020508;0.965820;
1075044;0.078125;0.016602;0.958008;
1075184;0.083008;0.018555;0.977539;
1075329;0.083008;0.020508;0.965820;
1075469;0.083008;0.023438;0.966797;
1075609;0.080078;0.022461;0.976562;
1075759;0.080078;0.021484;1.004883;
1075899;0.083008;0.022461;1.022461;
1076039;0.082031;0.026367;1.049805;
1076189;0.083008;0.020508;1.059570;
1076329;0.084961;0.027344;1.064453;
1076469;0.085938;0.026367;1.081055;
1076609;0.084961;0.023438;1.092773;
1076749;0.084961;0.025391;1.097656;
1076899;0.083984;0.016602;1.089844;
1077039;0.087891;0.029297;1.091797;
1077189;0.086914;0.024414;1.097656;
1077326;0.082031;0.022461;1.090820;
1077474;0.080078;0.019531;1.078125;
1077634;0.083008;0.019531;1.079102;
1077779;0.081055;0.018555;1.082031;
1077919;0.083008;0.019531;1.077148;
1078054;0.082031;0.017578;1.069336;
1078209;0.081055;0.021484;1.073242;
1078349;0.081055;0.017578;1.078125;
1078489;0.083008;0.012695;1.057617;
1078629;0.081055;0.021484;1.048828;
1078779;0.082031;0.019531;1.052734;
1078919;0.078125;0.016602;1.033203;
1079059;0.079102;0.014648;1.026367;
1079209;0.078125;0.020508;1.029297;
1079349;0.076172;0.016602;1.018555;
1079489;0.078125;0.024414;1.025391;
1079639;0.077148;0.020508;1.033203;
1079779;0.077148;0.021484;1.042969;
1079919;0.079102;0.025391;1.061523;
1080059;0.080078;0.019531;1.070312;
1080201;0.083008;0.023438;1.083984;
1080355;0.080078;0.021484;1.070312;
1080506;0.081055;0.019531;1.079102;
1080665;0.079102;0.023438;1.071289;
1080819;0.079102;0.022461;1.076172;
1080959;0.078125;0.018555;1.070312;
1081109;0.081055;0.020508;1.079102;
1081249;0.078125;0.022461;1.076172;
1081389;0.076172;0.017578;1.078125;
1081529;0.079102;0.020508;1.100586;
1081679;0.081055;0.020508;1.136719;
1081819;0.080078;0.019531;1.186523;
1081959;0.085938;0.017578;1.265625;
1082099;0.085938;0.020508;1.313477;
1082239;0.091797;0.019531;1.386719;
1082389;0.094727;0.017578;1.449219;
1082529;0.098633;0.015625;1.488281;
1082669;0.101562;0.017578;1.519531;
1082835;0.103516;0.012695;1.561523;
1082995;0.105469;0.013672;1.579102;
1083155;0.108398;0.011719;1.611328;
1083309;0.107422;0.011719;1.648438;
1083449;0.110352;0.010742;1.666016;
1083589;0.114258;0.012695;1.700195;
1083729;0.114258;0.014648;1.727539;
1083869;0.115234;0.016602;1.758789;
1084009;0.115234;0.015625;1.761719;
1084149;0.118164;0.019531;1.770508;
1084299;0.118164;0.013672;1.783203;
1084439;0.116211;0.014648;1.791992;
1084579;0.118164;0.017578;1.799805;
1084719;0.119141;0.018555;1.800781;
1084859;0.120117;0.014648;1.796875;
1084999;0.120117;0.014648;1.802734;
1085139;0.118164;0.016602;1.803711;
1085284;0.120117;0.019531;1.795898;
1085435;0.121094;0.018555;1.799805;
1085595;0.123047;0.018555;1.798828;
1085749;0.122070;0.013672;1.813477;
1085889;0.122070;0.011719;1.826172;
1086039;0.125000;0.014648;1.826172;
1086179;0.124023;0.015625;1.832031;
1086319;0.120117;0.014648;1.827148;
1086459;0.121094;0.017578;1.833008;
1086599;0.124023;0.010742;1.849609;
1086739;0.124023;0.017578;1.842773;
1086879;0.123047;0.018555;1.845703;
1087029;0.125977;0.021484;1.826172;
1087169;0.126953;0.017578;1.847656;
1087309;0.123047;0.016602;1.835938;
1087449;0.125000;0.015625;1.840820;
1087599;0.126953;0.017578;1.824219;
1087737;0.126953;0.013672;1.819336;
1087884;0.126953;0.008789;1.822266;
1088049;0.126953;0.013672;1.824219;
1088184;0.128906;0.018555;1.836914;
1088315;0.132812;0.014648;1.833984;
1088479;0.129883;0.017578;1.824219;
1088619;0.134766;0.018555;1.836914;
1088759;0.132812;0.013672;1.833984;
1088899;0.128906;0.010742;1.847656;
1089039;0.134766;0.016602;1.853516;
1089179;0.134766;0.012695;1.858398;
1089319;0.137695;0.009766;1.860352;
1089459;0.136719;0.012695;1.856445;
1089599;0.139648;0.015625;1.860352;
1089739;0.139648;0.015625;1.851562;
1089879;0.140625;0.018555;1.863281;
1090019;0.144531;0.015625;1.852539;
1090169;0.141602;0.013672;1.864258;
1090309;0.147461;0.014648;1.866211;
1090445;0.143555;0.010742;1.861328;
1090589;0.142578;0.012695;1.866211;
1090729;0.145508;0.007812;1.861328;
1090864;0.147461;0.010742;1.862305;
1091025;0.146484;0.007812;1.855469;
1091185;0.149414;0.007812;1.851562;
1091339;0.148438;0.004883;1.865234;
1091489;0.151367;0.002930;1.872070;
1091629;0.154297;0.000977;1.868164;
1091769;0.148438;0.002930;1.851562;
1091909;0.149414;0.000000;1.837891;
1092049;0.152344;0.002930;1.832031;
1092189;0.151367;0.004883;1.837891;
1092329;0.156250;0.008789;1.835938;
1092469;0.154297;0.010742;1.827148;
1092609;0.153320;0.017578;1.825195;
1092749;0.149414;0.017578;1.815430;
1092889;0.148438;0.026367;1.824219;
1093029;0.153320;0.032227;1.815430;
1093169;0.158203;0.033203;1.840820;
1093305;0.154297;0.031250;1.834961;
1093434;0.157227;0.027344;1.847656;
1093584;0.157227;0.025391;1.850586;
1093749;0.159180;0.024414;1.851562;
1093885;0.163086;0.031250;1.859375;
1094044;0.164062;0.025391;1.859375;
1094199;0.166016;0.021484;1.839844;
1094339;0.164062;0.015625;1.841797;
1094479;0.166016;0.013672;1.844727;
1094629;0.170898;0.007812;1.842773;
1094769;0.165039;0.010742;1.845703;
1094909;0.166992;0.011719;1.853516;
1095049;0.170898;0.004883;1.836914;
1095189;0.172852;0.003906;1.840820;
1095329;0.174805;0.004883;1.827148;
1095469;0.176758;0.001953;1.832031;
1095609;0.172852;0.001953;1.818359;
1095749;0.178711;0.002930;1.815430;
1095899;0.177734;0.005859;1.807617;
1096039;0.175781;0.014648;1.821289;
1096195;0.178711;0.012695;1.807617;
1096334;0.181641;0.013672;1.809570;
1096484;0.180664;0.010742;1.811523;
1096634;0.181641;0.010742;1.806641;
1096789;0.186523;0.013672;1.818359;
1096929;0.184570;0.007812;1.834961;
1097069;0.187500;0.012695;1.843750;
1097209;0.190430;0.013672;1.838867;
1097349;0.188477;0.012695;1.834961;
1097499;0.193359;0.014648;1.853516;
1097639;0.193359;0.016602;1.867188;
1097779;0.194336;0.015625;1.848633;
1097919;0.197266;0.019531;1.833984;
1098059;0.192383;0.013672;1.819336;
1098209;0.197266;0.013672;1.810547;
1098349;0.195312;0.012695;1.792969;
1098489;0.197266;0.017578;1.805664;
1098639;0.199219;0.018555;1.805664;
1098776;0.198242;0.020508;1.800781;
1098935;0.195312;0.025391;1.770508;
1099094;0.196289;0.011719;1.735352;
1099239;0.194336;0.008789;1.713867;
1099379;0.194336;0.013672;1.697266;
1099519;0.190430;0.007812;1.663086;
1099659;0.190430;0.013672;1.652344;
1099799;0.192383;0.014648;1.612305;
1099939;0.193359;0.008789;1.622070;
1100079;0.193359;0.009766;1.595703;
1100219;0.193359;0.016602;1.579102;
1100359;0.194336;0.015625;1.576172;
1100499;0.193359;0.014648;1.564453;
1100639;0.197266;0.008789;1.564453;
1100779;0.194336;0.010742;1.554688;
1100919;0.196289;0.007812;1.565430;
1101069;0.188477;0.004883;1.559570;
1101205;0.187500;0.007812;1.538086;
1101344;0.185547;-0.000977;1.544922;
1101494;0.182617;0.005859;1.572266;
1101645;0.176758;0.010742;1.558594;
1101809;0.169922;-0.001953;1.549805;
1101959;0.164062;0.007812;1.573242;
1102099;0.161133;0.015625;1.553711;
1102239;0.152344;0.007812;1.506836;
1102389;0.138672;0.020508;1.452148;
1102529;0.134766;0.030273;1.420898;
1102669;0.119141;0.021484;1.357422;
1102819;0.106445;0.022461;1.252930;
1102959;0.093750;0.030273;1.215820;
1103099;0.083984;0.021484;1.108398;
1103239;0.067383;0.027344;1.024414;
1103379;0.055664;0.028320;0.919922;
1103519;0.042969;0.022461;0.832031;
1103659;0.033203;0.028320;0.708984;
1103795;0.022461;0.029297;0.608398;
1103944;0.013672;0.036133;0.519531;
1104095;0.011719;0.040039;0.446289;
1104244;0.007812;0.040039;0.390625;
1104399;0.004883;0.041992;0.305664;
1104539;0.000000;0.039062;0.235352;
1104679;0.000000;0.039062;0.204102;
1104819;0.001953;0.036133;0.165039;
1104959;0.003906;0.031250;0.124023;
1105099;0.000000;0.030273;0.112305;
1105239;0.000977;0.026367;0.103516;
1105379;-0.002930;0.031250;0.075195;
1105519;0.000000;0.034180;0.074219;
1105659;-0.002930;0.033203;0.054688;
1105799;-0.003906;0.037109;0.057617;
1105939;-0.003906;0.036133;0.041016;
1106089;-0.001953;0.040039;0.036133;
1106229;-0.009766;0.040039;0.033203;
1106365;-0.005859;0.039062;0.037109;
1106525;-0.003906;0.036133;0.039062;
1106664;-0.007812;0.034180;0.050781;
1106814;-0.006836;0.033203;0.046875;
1106959;-0.008789;0.033203;0.040039;
1107099;-0.004883;0.036133;0.041016;
1107239;-0.007812;0.038086;0.038086;
1107379;-0.006836;0.033203;0.047852;
1107519;-0.004883;0.039062;0.053711;
1107659;-0.010742;0.038086;0.037109;
1107799;-0.006836;0.039062;0.048828;
1107939;-0.010742;0.033203;0.041016;
1108079;-0.009766;0.041016;0.051758;
1108229;-0.006836;0.035156;0.050781;
1108369;-0.010742;0.033203;0.045898;
1108509;-0.010742;0.033203;0.036133;
1108649;-0.009766;0.027344;0.042969;
1108789;-0.010742;0.025391;0.036133;
1108924;-0.006836;0.025391;0.028320;
1109074;-0.009766;0.022461;0.020508;
1109234;-0.010742;0.021484;0.013672;
1109375;-0.009766;0.022461;0.003906;
1109519;-0.010742;0.025391;0.009766;
1109659;-0.008789;0.024414;0.005859;
1109809;-0.010742;0.022461;0.003906;
1109949;-0.012695;0.024414;0.006836;
1110090;-0.009766;0.020508;0.010742;
1110239;-0.013672;0.024414;0.000000;
1110379;-0.012695;0.022461;0.000977;
1110529;-0.012695;0.022461;0.001953;
1110664;-0.012695;0.017578;0.009766;
1110819;-0.012695;0.019531;0.009766;
1110969;-0.014648;0.020508;0.021484;
1111109;-0.014648;0.017578;0.022461;
1111250;-0.014648;0.018555;0.021484;
1111399;-0.015625;0.016602;0.020508;
1111545;-0.015625;0.016602;0.025391;
1111689;-0.014648;0.014648;0.027344;
1111824;-0.014648;0.022461;0.027344;
1111974;-0.013672;0.016602;0.022461;
1112134;-0.013672;0.020508;0.025391;
1112279;-0.015625;0.018555;0.031250;
1112429;-0.014648;0.022461;0.035156;
1112569;-0.013672;0.024414;0.031250;
1112709;-0.019531;0.026367;-0.000977;
1112849;-0.014648;0.019531;0.034180;
1112989;-0.014648;0.023438;0.030273;
1113129;-0.015625;0.023438;0.028320;
1113269;-0.013672;0.022461;0.027344;
1113409;-0.014648;0.021484;0.027344;
1113549;-0.014648;0.017578;0.024414;
1113689;-0.015625;0.018555;0.019531;
1113829;-0.014648;0.022461;0.020508;
1113969;-0.014648;0.021484;0.020508;
1114109;-0.015625;0.019531;0.018555;
1114254;-0.016602;0.018555;0.016602;
1114404;-0.015625;0.019531;0.016602;
1114555;-0.015625;0.021484;0.012695;
1114709;-0.013672;0.018555;0.013672;
1114859;-0.017578;0.019531;0.014648;
1114999;-0.015625;0.020508;0.018555;
1115139;-0.015625;0.020508;0.013672;
1115279;-0.016602;0.016602;0.013672;
1115429;-0.017578;0.015625;0.010742;
1115569;-0.016602;0.018555;0.013672;
1115709;-0.013672;0.019531;0.009766;
1115849;-0.017578;0.019531;0.004883;
1115989;-0.015625;0.019531;0.018555;
1116129;-0.016602;0.019531;0.008789;
1116269;-0.014648;0.018555;0.008789;
1116409;-0.018555;0.020508;0.010742;
1116549;-0.015625;0.015625;0.007812;
1116694;-0.017578;0.020508;0.008789;
1116845;-0.015625;0.018555;0.004883;
1116994;-0.013672;0.020508;0.008789;
1117146;-0.017578;0.013672;0.000977;
1117309;-0.015625;0.020508;0.003906;
1117449;-0.015625;0.017578;0.005859;
1117589;-0.017578;0.017578;-0.000977;
1117729;-0.016602;0.020508;-0.001953;
1117869;-0.017578;0.018555;-0.001953;
1118009;-0.017578;0.017578;0.000977;
1118159;-0.015625;0.021484;-0.000977;
1118299;-0.016602;0.015625;-0.002930;
1118449;-0.016602;0.018555;0.004883;
1118589;-0.019531;0.020508;0.001953;
1118729;-0.016602;0.017578;0.011719;
1118869;-0.018555;0.018555;0.002930;
1119009;-0.018555;0.019531;0.002930;
1119149;-0.018555;0.020508;0.000977;
1119284;-0.016602;0.017578;0.002930;
1119444;-0.017578;0.019531;0.003906;
1119594;-0.016602;0.017578;0.001953;
1119744;-0.019531;0.020508;0.004883;
1119899;-0.017578;0.021484;0.005859;
1120039;-0.020508;0.020508;-0.000977;
1120179;-0.019531;0.021484;0.009766;
1120329;-0.020508;0.020508;0.004883;
1120469;-0.021484;0.020508;0.003906;
1120609;-0.018555;0.021484;0.001953;
1120749;-0.019531;0.019531;0.006836;
1120889;-0.018555;0.017578;0.014648;
1121029;-0.019531;0.017578;0.009766;
1121169;-0.020508;0.017578;0.017578;
1121309;-0.020508;0.021484;0.021484;
1121459;-0.019531;0.021484;0.014648;
1121599;-0.017578;0.017578;0.012695;
1121739;-0.020508;0.016602;0.012695;
1121875;-0.022461;0.018555;0.013672;
1122024;-0.022461;0.016602;0.007812;
1122174;-0.023438;0.019531;0.005859;
1122315;-0.022461;0.017578;0.007812;
1122465;-0.023438;0.022461;0.003906;
1122629;-0.023438;0.018555;0.000977;
1122769;-0.022461;0.020508;-0.000977;
1122904;-0.024414;0.019531;-0.002930;
1123059;-0.025391;0.018555;-0.001953;
1123209;-0.027344;0.021484;-0.006836;
1123349;-0.026367;0.021484;-0.010742;
1123489;-0.026367;0.019531;-0.014648;
1123629;-0.028320;0.020508;-0.012695;
1123769;-0.026367;0.023438;-0.012695;
1123920;-0.028320;0.023438;-0.010742;
1124069;-0.028320;0.018555;-0.009766;
1124209;-0.028320;0.022461;-0.002930;
1124349;-0.029297;0.023438;-0.005859;
1124489;-0.028320;0.023438;0.000000;
1124624;-0.033203;0.024414;-0.000977;
1124765;-0.028320;0.024414;0.002930;
1124905;-0.029297;0.024414;0.007812;
1125054;-0.031250;0.021484;0.009766;
1125209;-0.028320;0.021484;0.017578;
1125349;-0.030273;0.025391;0.025391;
1125489;-0.031250;0.023438;0.036133;
1125639;-0.031250;0.025391;0.042969;
1125779;-0.029297;0.023438;0.048828;
1125919;-0.031250;0.020508;0.049805;
1126059;-0.027344;0.018555;0.081055;
1126199;-0.031250;0.014648;0.040039;
1126339;-0.038086;0.015625;0.035156;
1126479;-0.035156;0.014648;0.040039;
1126619;-0.035156;0.014648;0.040039;
1126759;-0.036133;0.016602;0.026367;
1126899;-0.037109;0.018555;0.034180;
1127039;-0.038086;0.017578;0.017578;
1127189;-0.040039;0.016602;0.011719;
1127345;-0.036133;0.015625;0.029297;
1127494;-0.041016;0.016602;0.035156;
1127636;-0.041016;0.018555;0.060547;
1127799;-0.043945;0.013672;0.096680;
1127939;-0.043945;0.015625;0.129883;
1128079;-0.044922;0.011719;0.193359;
1128229;-0.041016;0.014648;0.306641;
1128369;-0.038086;0.010742;0.388672;
1128509;-0.032227;0.009766;0.487305;
1128659;-0.029297;0.008789;0.588867;
1128799;-0.026367;0.009766;0.660156;
1128939;-0.015625;0.008789;0.768555;
1129079;-0.009766;0.010742;0.843750;
1129219;0.000977;0.013672;0.949219;
1129359;0.009766;0.013672;1.036133;
1129499;0.025391;0.020508;1.155273;
1129639;0.035156;0.018555;1.236328;
1129775;0.047852;0.013672;1.337891;
1129925;0.051758;0.019531;1.383789;
1130074;0.055664;0.020508;1.443359;
1130225;0.056641;0.017578;1.506836;
1130389;0.059570;0.011719;1.529297;
1130529;0.061523;0.015625;1.546875;
1130679;0.061523;0.024414;1.562500;
1130819;0.057617;0.031250;1.583008;
1130959;0.061523;0.025391;1.626953;
1131099;0.063477;0.041016;1.629883;
1131239;0.055664;0.031250;1.611328;
1131379;0.057617;0.024414;1.661133;
1131519;0.056641;0.038086;1.629883;
1131669;0.060547;0.035156;1.639648;
1131809;0.056641;0.023438;1.636719;
1131949;0.052734;0.031250;1.627930;
1132089;0.047852;0.042969;1.640625;
1132229;0.041992;0.049805;1.594727;
1132364;0.040039;0.043945;1.590820;
1132514;0.036133;0.047852;1.604492;
1132664;0.035156;0.036133;1.588867;
1132795;0.036133;0.032227;1.589844;
1132944;0.034180;0.029297;1.590820;
1133099;0.038086;0.026367;1.605469;
1133249;0.036133;0.025391;1.627930;
1133389;0.038086;0.021484;1.652344;
1133529;0.039062;0.022461;1.674805;
1133669;0.039062;0.018555;1.693359;
1133809;0.040039;0.014648;1.726562;
1133949;0.041016;0.011719;1.750977;
1134089;0.042969;0.014648;1.779297;
1134229;0.041016;-0.000977;1.795898;
1134379;0.043945;0.005859;1.829102;
1134519;0.040039;-0.000977;1.826172;
1134659;0.044922;0.000977;1.853516;
1134799;0.042969;0.007812;1.866211;
1134939;0.041992;0.009766;1.896484;
1135079;0.041992;0.020508;1.890625;
1135215;0.040039;0.031250;1.911133;
1135355;0.042969;0.041992;1.962891;
1135505;0.041016;0.032227;1.942383;
1135676;0.041016;0.027344;1.945312;
1135824;0.041016;0.023438;1.955078;
1135979;0.040039;0.016602;1.951172;
1136119;0.041016;0.015625;1.944336;
1136259;0.039062;0.014648;1.922852;
1136399;0.035156;0.013672;1.906250;
1136539;0.032227;0.019531;1.891602;
1136679;0.027344;0.019531;1.875000;
1136819;0.024414;0.024414;1.858398;
1136959;0.021484;0.030273;1.849609;
1137099;0.022461;0.028320;1.842773;
1137249;0.020508;0.032227;1.838867;
1137399;0.017578;0.034180;1.836914;
1137539;0.015625;0.033203;1.835938;
1137679;0.012695;0.029297;1.834961;
1137819;0.016602;0.027344;1.838867;
1137944;0.012695;0.026367;1.849609;
1138094;0.015625;0.024414;1.859375;
1138244;0.018555;0.025391;1.883789;
1138394;0.013672;0.023438;1.896484;
1138549;0.019531;0.020508;1.912109;
1138689;0.015625;0.017578;1.920898;
1138829;0.016602;0.017578;1.930664;
1138969;0.016602;0.014648;1.940430;
1139109;0.013672;0.023438;1.954102;
1139249;0.015625;0.012695;1.951172;
1139389;0.015625;0.012695;1.952148;
1139529;0.014648;0.009766;1.945312;
1139679;0.011719;0.010742;1.943359;
1139819;0.011719;0.009766;1.933594;
1139959;0.008789;0.018555;1.918945;
1140099;0.005859;0.016602;1.913086;
1140239;0.001953;0.016602;1.891602;
1140389;0.000977;0.016602;1.880859;
1140525;0.000000;0.015625;1.873047;
1140674;-0.000977;0.018555;1.864258;
1140836;-0.007812;0.018555;1.861328;
1140985;-0.001953;0.016602;1.850586;
1141139;-0.003906;0.015625;1.854492;
1141279;-0.003906;0.007812;1.853516;
1141419;-0.004883;0.004883;1.853516;
1141559;-0.006836;0.007812;1.851562;
1141699;-0.005859;0.008789;1.862305;
1141839;-0.006836;0.011719;1.862305;
1141979;-0.007812;0.005859;1.868164;
1142129;-0.005859;0.010742;1.874023;
1142269;-0.007812;0.009766;1.874023;
1142419;-0.005859;0.019531;1.884766;
1142559;-0.008789;0.021484;1.881836;
1142699;-0.009766;0.018555;1.875977;
1142839;-0.009766;0.022461;1.894531;
1142979;-0.009766;0.026367;1.899414;
1143115;-0.008789;0.025391;1.902344;
1143265;-0.007812;0.020508;1.903320;
1143416;-0.007812;0.020508;1.911133;
1143566;-0.007812;0.016602;1.913086;
1143729;-0.006836;0.014648;1.910156;
1143869;-0.004883;0.013672;1.907227;
1144009;-0.005859;0.011719;1.915039;
1144149;-0.007812;0.013672;1.917969;
1144289;-0.007812;0.019531;1.922852;
1144429;-0.006836;0.017578;1.921875;
1144569;-0.007812;0.018555;1.919922;
1144709;-0.008789;0.014648;1.908203;
1144849;-0.010742;0.014648;1.893555;
1144989;-0.010742;0.018555;1.888672;
1145129;-0.013672;0.016602;1.865234;
1145279;-0.017578;0.014648;1.831055;
1145419;-0.018555;0.016602;1.806641;
1145559;-0.022461;0.016602;1.760742;
1145711;-0.031250;0.015625;1.686523;
1145864;-0.033203;0.019531;1.648438;
1146015;-0.040039;0.023438;1.581055;
1146166;-0.045898;0.022461;1.526367;
1146319;-0.048828;0.021484;1.470703;
1146459;-0.051758;0.023438;1.436523;
1146599;-0.057617;0.021484;1.398438;
1146749;-0.056641;0.025391;1.388672;
1146889;-0.059570;0.024414;1.371094;
1147029;-0.059570;0.018555;1.360352;
1147169;-0.060547;0.021484;1.358398;
1147309;-0.061523;0.019531;1.356445;
1147449;-0.060547;0.019531;1.366211;
1147589;-0.061523;0.017578;1.365234;
1147729;-0.061523;0.018555;1.377930;
1147869;-0.058594;0.016602;1.389648;
1148009;-0.055664;0.022461;1.391602;
1148149;-0.054688;0.019531;1.403320;
1148299;-0.057617;0.019531;1.398438;
1148445;-0.060547;0.015625;1.382812;
1148594;-0.058594;0.020508;1.372070;
1148739;-0.062500;0.016602;1.334961;
1148879;-0.064453;0.024414;1.298828;
1149024;-0.069336;0.021484;1.255859;
1149179;-0.073242;0.021484;1.198242;
1149319;-0.070312;0.021484;1.171875;
1149459;-0.075195;0.018555;1.123047;
1149599;-0.075195;0.021484;1.107422;
1149739;-0.080078;0.019531;1.067383;
1149879;-0.081055;0.025391;1.046875;
1150019;-0.082031;0.023438;1.031250;
1150159;-0.083984;0.027344;1.020508;
1150299;-0.082031;0.026367;1.007812;
1150439;-0.083008;0.029297;1.009766;
1150579;-0.083008;0.023438;1.010742;
1150719;-0.081055;0.024414;1.011719;
1150859;-0.082031;0.025391;1.011719;
1150999;-0.082031;0.025391;1.016602;
1151139;-0.082031;0.021484;1.021484;
1151279;-0.080078;0.022461;1.042969;
1151419;-0.082031;0.020508;1.042969;
1151564;-0.080078;0.019531;1.046875;
1151714;-0.082031;0.022461;1.054688;
1151865;-0.079102;0.024414;1.069336;
1152019;-0.079102;0.024414;1.065430;
1152159;-0.080078;0.026367;1.075195;
1152309;-0.080078;0.031250;1.072266;
1152449;-0.082031;0.024414;1.066406;
1152589;-0.079102;0.024414;1.073242;
1152729;-0.082031;0.021484;1.060547;
1152869;-0.080078;0.024414;1.056641;
1153009;-0.079102;0.022461;1.056641;
1153149;-0.082031;0.025391;1.050781;
1153289;-0.081055;0.020508;1.048828;
1153429;-0.078125;0.021484;1.046875;
1153569;-0.079102;0.025391;1.056641;
1153709;-0.081055;0.018555;1.059570;
1153859;-0.081055;0.020508;1.052734;
1153999;-0.080078;0.015625;1.052734;
1154154;-0.078125;0.018555;1.056641;
1154314;-0.079102;0.022461;1.063477;
1154465;-0.080078;0.021484;1.064453;
1154619;-0.079102;0.024414;1.078125;
1154759;-0.078125;0.021484;1.079102;
1154899;-0.081055;0.025391;1.081055;
1155039;-0.079102;0.020508;1.083008;
1155179;-0.079102;0.023438;1.089844;
1155319;-0.079102;0.023438;1.091797;
1155459;-0.075195;0.021484;1.091797;
1155599;-0.077148;0.025391;1.094727;
1155739;-0.075195;0.019531;1.110352;
1155879;-0.079102;0.022461;1.101562;
1156019;-0.078125;0.025391;1.127930;
1156159;-0.075195;0.022461;1.130859;
1156299;-0.075195;0.025391;1.137695;
1156439;-0.075195;0.021484;1.152344;
1156579;-0.073242;0.022461;1.160156;
1156717;-0.071289;0.017578;1.164062;
1156865;-0.072266;0.020508;1.162109;
1157014;-0.071289;0.019531;1.172852;
1157164;-0.069336;0.026367;1.166992;
1157319;-0.068359;0.025391;1.167969;
1157469;-0.070312;0.027344;1.163086;
1157609;-0.068359;0.026367;1.151367;
1157749;-0.070312;0.026367;1.157227;
1157889;-0.067383;0.022461;1.142578;
1158029;-0.069336;0.026367;1.141602;
1158169;-0.069336;0.024414;1.137695;
1158309;-0.065430;0.026367;1.128906;
1158449;-0.064453;0.021484;1.139648;
1158589;-0.062500;0.026367;1.133789;
1158729;-0.062500;0.024414;1.137695;
1158879;-0.056641;0.025391;1.140625;
1159019;-0.056641;0.020508;1.145508;
1159159;-0.052734;0.023438;1.140625;
1159295;-0.049805;0.019531;1.144531;
1159445;-0.046875;0.021484;1.156250;
1159597;-0.043945;0.021484;1.153320;
1159755;-0.040039;0.025391;1.159180;
1159904;-0.030273;0.023438;1.175781;
1160059;-0.028320;0.026367;1.198242;
1160194;-0.018555;0.027344;1.244141;
1160349;-0.011719;0.022461;1.274414;
1160489;-0.003906;0.027344;1.301758;
1160629;0.000000;0.025391;1.323242;
1160779;0.000977;0.023438;1.347656;
1160919;0.002930;0.026367;1.359375;
1161059;0.002930;0.020508;1.359375;
1161209;0.003906;0.019531;1.363281;
1161349;0.004883;0.019531;1.359375;
1161489;0.004883;0.016602;1.360352;
1161629;0.004883;0.018555;1.360352;
1161769;0.004883;0.018555;1.359375;
1161909;0.000977;0.020508;1.335938;
1162059;0.001953;0.020508;1.306641;
1162199;0.001953;0.012695;1.273438;
1162344;0.003906;0.014648;1.244141;
1162496;0.006836;0.012695;1.206055;
1162646;0.007812;0.013672;1.174805;
1162784;0.000000;0.020508;1.152344;
1162939;0.000000;0.017578;1.112305;
1163079;-0.000977;0.020508;1.087891;
1163219;-0.000977;0.018555;1.063477;
1163359;-0.006836;0.017578;1.045898;
1163499;-0.005859;0.019531;1.022461;
1163639;-0.007812;0.018555;1.009766;
1163779;-0.007812;0.025391;0.997070;
1163919;-0.011719;0.022461;0.988281;
1164069;-0.012695;0.025391;0.976562;
1164209;-0.014648;0.026367;0.962891;
1164349;-0.010742;0.028320;0.958984;
1164489;-0.014648;0.023438;0.944336;
1164629;-0.015625;0.024414;0.934570;
1164769;-0.012695;0.027344;0.927734;
1164909;-0.014648;0.025391;0.921875;
1165055;-0.012695;0.024414;0.921875;
1165204;-0.012695;0.025391;0.915039;
1165355;-0.017578;0.019531;0.906250;
1165505;-0.013672;0.025391;0.914062;
1165659;-0.016602;0.024414;0.912109;
1165799;-0.013672;0.021484;0.916016;
1165939;-0.011719;0.018555;0.928711;
1166079;-0.014648;0.023438;0.946289;
1166219;-0.008789;0.019531;0.950195;
1166359;-0.007812;0.022461;0.961914;
1166499;-0.010742;0.019531;0.975586;
1166639;-0.012695;0.017578;0.983398;
1166779;-0.014648;0.017578;0.983398;
1166919;-0.012695;0.018555;0.998047;
1167059;-0.011719;0.019531;1.007812;
1167209;-0.012695;0.023438;1.002930;
1167349;-0.010742;0.019531;1.011719;
1167499;-0.011719;0.022461;1.010742;
1167636;-0.011719;0.019531;1.017578;
1167785;-0.010742;0.022461;1.031250;
1167935;-0.010742;0.024414;1.029297;
1168084;-0.014648;0.025391;1.025391;
1168239;-0.010742;0.025391;1.042969;
1168379;-0.011719;0.022461;1.050781;
1168519;-0.009766;0.027344;1.048828;
1168660;-0.009766;0.025391;1.057617;
1168809;-0.011719;0.025391;1.060547;
1168949;-0.009766;0.022461;1.051758;
1169089;-0.009766;0.020508;1.060547;
1169229;-0.007812;0.015625;1.060547;
1169369;-0.009766;0.018555;1.057617;
1169509;-0.005859;0.020508;1.067383;
1169649;-0.009766;0.015625;1.064453;
1169799;-0.004883;0.018555;1.066406;
1169939;-0.005859;0.019531;1.055664;
1170079;-0.010742;0.021484;1.054688;
1170224;-0.005859;0.018555;1.043945;
1170374;-0.008789;0.022461;1.038086;
1170524;-0.010742;0.021484;1.031250;
1170674;-0.007812;0.027344;1.029297;
1170829;-0.008789;0.023438;1.023438;
1170969;-0.011719;0.023438;1.010742;
1171109;-0.009766;0.018555;1.012695;
1171249;-0.010742;0.020508;1.000000;
1171389;-0.010742;0.023438;1.015625;
1171529;-0.007812;0.021484;1.001953;
1171669;-0.010742;0.026367;1.004883;
1171809;-0.011719;0.020508;0.988281;
1171949;-0.013672;0.025391;0.965820;
1172099;-0.012695;0.023438;0.946289;
1172239;-0.016602;0.021484;0.925781;
1172379;-0.014648;0.026367;0.921875;
1172519;-0.014648;0.029297;0.912109;
1172659;-0.013672;0.023438;0.902344;
1172794;-0.016602;0.021484;0.899414;
1172945;-0.018555;0.023438;0.891602;
1173095;-0.017578;0.028320;0.892578;
1173246;-0.017578;0.027344;0.895508;
1173409;-0.018555;0.028320;0.890625;
1173549;-0.020508;0.025391;0.901367;
1173689;-0.018555;0.023438;0.895508;
1173829;-0.018555;0.025391;0.912109;
1173969;-0.015625;0.024414;0.921875;
1174109;-0.017578;0.027344;0.933594;
1174249;-0.018555;0.024414;0.940430;
1174389;-0.015625;0.023438;0.955078;
1174529;-0.013672;0.020508;0.969727;
1174669;-0.012695;0.023438;0.991211;
1174809;-0.013672;0.024414;1.010742;
1174949;-0.009766;0.023438;1.030273;
1175089;-0.011719;0.021484;1.040039;
1175229;-0.008789;0.020508;1.047852;
1175365;-0.005859;0.021484;1.070312;
1175515;-0.002930;0.020508;1.073242;
1175664;-0.004883;0.020508;1.080078;
1175824;-0.005859;0.021484;1.077148;
1175979;-0.003906;0.023438;1.081055;
1176119;-0.001953;0.022461;1.083984;
1176259;-0.002930;0.020508;1.065430;
1176399;-0.001953;0.027344;1.064453;
1176539;-0.005859;0.022461;1.044922;
1176689;-0.007812;0.021484;1.024414;
1176829;-0.006836;0.024414;1.017578;
1176969;-0.007812;0.023438;1.015625;
1177119;-0.007812;0.025391;1.024414;
1177259;-0.006836;0.021484;1.024414;
1177399;-0.009766;0.022461;1.039062;
1177539;-0.004883;0.018555;1.049805;
1177679;-0.004883;0.024414;1.064453;
1177819;-0.001953;0.021484;1.076172;
1177954;-0.002930;0.023438;1.075195;
1178105;-0.003906;0.021484;1.082031;
1178254;-0.003906;0.015625;1.086914;
1178405;-0.001953;0.019531;1.087891;
1178559;-0.002930;0.023438;1.095703;
1178699;-0.007812;0.024414;1.085938;
1178839;-0.004883;0.025391;1.087891;
1178989;-0.004883;0.021484;1.087891;
1179129;-0.001953;0.024414;1.099609;
1179269;-0.001953;0.024414;1.103516;
1179409;0.003906;0.021484;1.122070;
1179549;0.000977;0.020508;1.132812;
1179689;0.002930;0.020508;1.128906;
1179829;-0.001953;0.019531;1.130859;
1179969;-0.001953;0.017578;1.125977;
1180109;0.000977;0.021484;1.135742;
1180249;0.003906;0.020508;1.139648;
1180389;0.002930;0.021484;1.134766;
1180526;0.001953;0.018555;1.135742;
1180674;0.001953;0.015625;1.131836;
1180825;0.000000;0.019531;1.124023;
1180985;0.000000;0.025391;1.112305;
1181134;-0.002930;0.026367;1.099609;
1181279;-0.000977;0.024414;1.094727;
1181419;-0.000977;0.028320;1.086914;
1181559;0.000000;0.028320;1.088867;
1181699;-0.002930;0.030273;1.074219;
1181839;-0.003906;0.032227;1.059570;
1181979;-0.003906;0.030273;1.063477;
1182129;-0.005859;0.032227;1.058594;
1182269;-0.000977;0.032227;1.063477;
1182409;-0.002930;0.031250;1.059570;
1182549;-0.004883;0.030273;1.057617;
1182689;-0.001953;0.030273;1.050781;
1182839;-0.008789;0.028320;1.053711;
1182979;-0.004883;0.028320;1.048828;
1183129;-0.001953;0.028320;1.039062;
1183275;-0.001953;0.021484;1.042969;
1183426;-0.001953;0.022461;1.035156;
1183564;-0.003906;0.022461;1.017578;
1183714;-0.003906;0.016602;1.013672;
1183854;-0.003906;0.021484;1.006836;
1184009;-0.005859;0.023438;0.996094;
1184159;-0.006836;0.016602;0.977539;
1184299;-0.006836;0.020508;0.972656;
1184439;-0.007812;0.025391;0.959961;
1184589;-0.008789;0.025391;0.937500;
1184729;-0.009766;0.024414;0.921875;
1184869;-0.008789;0.026367;0.910156;
1185019;-0.011719;0.022461;0.899414;
1185159;-0.013672;0.024414;0.893555;
1185299;-0.013672;0.025391;0.883789;
1185439;-0.010742;0.023438;0.894531;
1185579;-0.011719;0.029297;0.905273;
1185719;-0.012695;0.028320;0.913086;
1185859;-0.016602;0.032227;0.912109;
1185994;-0.014648;0.027344;0.916016;
1186144;-0.015625;0.026367;0.925781;
1186295;-0.011719;0.025391;0.935547;
1186434;-0.010742;0.029297;0.958984;
1186584;-0.008789;0.025391;0.962891;
1186729;-0.007812;0.021484;0.974609;
1186869;-0.007812;0.023438;0.977539;
1187009;-0.011719;0.023438;0.980469;
1187149;-0.011719;0.021484;0.983398;
1187289;-0.008789;0.025391;0.989258;
1187429;-0.012695;0.024414;0.987305;
1187569;-0.006836;0.023438;0.996094;
1187709;-0.008789;0.024414;0.993164;
1187849;-0.011719;0.022461;0.988281;
1187989;-0.007812;0.026367;0.993164;
1188129;-0.011719;0.023438;0.989258;
1188279;-0.011719;0.025391;0.996094;
1188419;-0.014648;0.027344;0.991211;
1188559;-0.012695;0.026367;1.005859;
1188695;-0.011719;0.026367;1.003906;
1188856;-0.012695;0.024414;0.999023;
1189004;-0.014648;0.022461;1.008789;
1189144;-0.011719;0.025391;1.011719;
1189294;-0.012695;0.025391;1.023438;
1189439;-0.009766;0.025391;1.033203;
1189579;-0.007812;0.024414;1.041992;
1189719;-0.009766;0.025391;1.050781;
1189859;-0.006836;0.021484;1.047852;
1189999;-0.008789;0.023438;1.051758;
1190139;-0.009766;0.027344;1.056641;
1190279;-0.009766;0.024414;1.062500;
1190419;-0.009766;0.023438;1.068359;
1190559;-0.010742;0.017578;1.070312;
1190699;-0.010742;0.022461;1.079102;
1190839;-0.008789;0.021484;1.086914;
1190989;-0.005859;0.026367;1.089844;
1191129;-0.004883;0.021484;1.088867;
1191269;-0.006836;0.020508;1.102539;
1191414;-0.006836;0.019531;1.103516;
1191564;-0.004883;0.022461;1.104492;
1191724;-0.004883;0.025391;1.115234;
1191875;-0.006836;0.022461;1.113281;
1192029;-0.004883;0.024414;1.114258;
1192169;-0.005859;0.021484;1.117188;
1192309;-0.005859;0.026367;1.122070;
1192449;-0.003906;0.022461;1.129883;
1192589;-0.002930;0.022461;1.124023;
1192739;-0.001953;0.021484;1.134766;
1192879;-0.002930;0.018555;1.131836;
1193019;-0.001953;0.020508;1.137695;
1193159;-0.004883;0.024414;1.143555;
1193299;-0.005859;0.024414;1.132812;
1193439;-0.008789;0.022461;1.130859;
1193579;-0.005859;0.023438;1.129883;
1193719;-0.005859;0.021484;1.120117;
1193859;-0.004883;0.018555;1.113281;
1193994;-0.001953;0.027344;1.119141;
1194144;-0.005859;0.021484;1.099609;
1194294;-0.009766;0.023438;1.109375;
1194439;-0.006836;0.024414;1.102539;
1194574;-0.005859;0.023438;1.090820;
1194724;-0.002930;0.023438;1.101562;
1194879;-0.002930;0.027344;1.083008;
1195029;-0.006836;0.026367;1.083008;
1195169;-0.007812;0.023438;1.072266;
1195309;-0.004883;0.022461;1.070312;
1195449;-0.008789;0.024414;1.056641;
1195589;-0.009766;0.024414;1.050781;
1195729;-0.005859;0.021484;1.044922;
1195869;-0.009766;0.017578;1.034180;
1196009;-0.009766;0.022461;1.037109;
1196149;-0.010742;0.022461;1.026367;
1196289;-0.010742;0.027344;1.011719;
1196429;-0.007812;0.025391;1.013672;
1196569;-0.012695;0.025391;1.007812;
1196709;-0.009766;0.021484;1.009766;
1196844;-0.010742;0.024414;1.012695;
1196994;-0.010742;0.025391;1.021484;
1197145;-0.011719;0.020508;1.018555;
1197295;-0.008789;0.021484;1.019531;
1197449;-0.008789;0.023438;1.019531;
1197589;-0.006836;0.025391;1.017578;
1197729;-0.007812;0.024414;1.023438;
1197869;-0.005859;0.023438;1.024414;
1198009;-0.007812;0.021484;1.016602;
1198149;-0.008789;0.020508;1.016602;
1198289;-0.010742;0.022461;1.007812;
1198429;-0.011719;0.026367;1.008789;
1198569;-0.010742;0.024414;0.998047;
1198709;-0.010742;0.024414;1.000000;
1198859;-0.012695;0.024414;0.991211;
1198999;-0.011719;0.026367;0.985352;
1199139;-0.009766;0.025391;0.991211;
1199289;-0.010742;0.025391;0.989258;
1199424;-0.011719;0.028320;0.992188;
1199575;-0.010742;0.022461;0.984375;
1199714;-0.006836;0.021484;0.994141;
1199864;-0.013672;0.021484;0.983398;
1200019;-0.010742;0.022461;0.979492;
1200159;-0.008789;0.024414;0.992188;
1200299;-0.010742;0.021484;0.997070;
1200439;-0.010742;0.024414;0.999023;
1200579;-0.013672;0.018555;0.996094;
1200719;-0.014648;0.021484;0.992188;
1200859;-0.011719;0.021484;1.000977;
1201009;-0.009766;0.025391;1.009766;
1201149;-0.012695;0.021484;1.001953;
1201289;-0.009766;0.024414;1.005859;
1201439;-0.009766;0.020508;1.004883;
1201579;-0.007812;0.026367;1.024414;
1201719;-0.003906;0.023438;1.026367;
1201859;-0.000977;0.025391;1.030273;
1202001;-0.005859;0.023438;1.040039;
1202155;-0.000977;0.023438;1.053711;
1202305;0.000000;0.021484;1.058594;
1202454;0.000000;0.018555;1.061523;
1202586;0.000000;0.017578;1.076172;
1202729;-0.001953;0.019531;1.068359;
1202869;-0.006836;0.022461;1.058594;
1203009;-0.004883;0.019531;1.056641;
1203159;-0.006836;0.019531;1.044922;
1203299;-0.001953;0.018555;1.047852;
1203439;-0.001953;0.020508;1.048828;
1203589;-0.000977;0.021484;1.040039;
1203729;-0.000977;0.020508;1.033203;
1203869;-0.001953;0.021484;1.025391;
1204019;-0.007812;0.025391;1.015625;
1204159;-0.006836;0.024414;1.006836;
1204299;-0.005859;0.020508;0.995117;
1204439;-0.008789;0.021484;0.995117;
1204579;-0.004883;0.020508;1.009766;
1204714;-0.003906;0.025391;1.006836;
1204864;-0.005859;0.022461;0.999023;
1205014;-0.005859;0.020508;1.002930;
1205164;-0.007812;0.022461;1.010742;
1205309;-0.003906;0.024414;1.014648;
1205435;-0.006836;0.023438;1.006836;
1205589;-0.004883;0.028320;1.013672;
1205729;-0.005859;0.027344;1.018555;
1205869;-0.007812;0.029297;1.021484;
1206009;-0.008789;0.031250;1.027344;
1206149;-0.002930;0.025391;1.018555;
1206299;-0.003906;0.033203;1.027344;
1206439;-0.007812;0.025391;1.021484;
1206579;-0.001953;0.027344;1.026367;
1206729;-0.008789;0.028320;1.014648;
1206869;-0.007812;0.023438;1.012695;
1207009;-0.006836;0.025391;1.015625;
1207149;-0.006836;0.020508;1.003906;
1207289;-0.005859;0.019531;1.008789;
1207439;0.001953;0.020508;1.022461;
1207574;-0.001953;0.018555;1.011719;
1207704;-0.003906;0.019531;1.010742;
1207844;-0.005859;0.020508;1.012695;
1207994;-0.002930;0.020508;1.017578;
1208145;0.000977;0.021484;1.024414;
1208299;-0.001953;0.022461;1.023438;
1208439;-0.005859;0.026367;1.011719;
1208579;-0.002930;0.025391;1.011719;
1208719;-0.003906;0.021484;1.007812;
1208859;-0.001953;0.029297;1.038086;
1208999;-0.001953;0.027344;1.035156;
1209139;0.004883;0.025391;1.042969;
1209279;0.006836;0.024414;1.049805;
1209419;0.006836;0.026367;1.057617;
1209559;0.012695;0.024414;1.061523;
1209699;0.010742;0.023438;1.061523;
1209839;0.011719;0.022461;1.062500;
1209989;0.010742;0.020508;1.074219;
1210129;0.006836;0.022461;1.056641;
1210266;0.008789;0.018555;1.058594;
1210414;0.008789;0.023438;1.057617;
1210569;0.007812;0.013672;1.028320;
1210704;0.005859;0.022461;1.038086;
1210854;0.000000;0.016602;1.024414;
1211014;0.002930;0.020508;1.008789;
1211159;0.001953;0.018555;0.999023;
1211309;0.001953;0.022461;1.006836;
1211449;0.002930;0.023438;1.005859;
1211589;0.003906;0.025391;0.998047;
1211729;0.000977;0.022461;1.008789;
1211869;0.001953;0.025391;1.017578;
1212009;0.001953;0.022461;1.008789;
1212149;0.000977;0.024414;1.024414;
1212289;0.004883;0.024414;1.041992;
1212429;0.004883;0.024414;1.041016;
1212569;0.006836;0.026367;1.043945;
1212709;0.001953;0.023438;1.062500;
1212849;0.005859;0.017578;1.054688;
1212989;0.004883;0.021484;1.055664;
1213136;0.004883;0.025391;1.059570;
1213285;0.006836;0.022461;1.059570;
1213435;0.002930;0.019531;1.037109;
1213586;0.002930;0.022461;1.032227;
1213719;0.005859;0.019531;1.028320;
1213859;0.006836;0.019531;1.022461;
1214009;0.002930;0.018555;1.000000;
1214149;0.003906;0.022461;0.996094;
1214289;0.002930;0.021484;1.000977;
1214429;0.000000;0.024414;0.976562;
1214569;0.003906;0.025391;0.978516;
1214709;0.000000;0.022461;0.983398;
1214849;0.002930;0.024414;0.979492;
1214989;0.001953;0.025391;0.973633;
1215129;0.000977;0.027344;0.979492;
1215269;0.003906;0.030273;0.977539;
1215409;0.003906;0.027344;0.977539;
1215559;0.001953;0.035156;0.986328;
1215699;0.008789;0.022461;0.974609;
1215839;0.003906;0.024414;0.987305;
1215974;0.006836;0.022461;0.983398;
1216115;0.008789;0.023438;0.996094;
1216264;0.009766;0.021484;1.006836;
1216415;0.011719;0.020508;1.014648;
1216569;0.013672;0.017578;1.033203;
1216719;0.016602;0.019531;1.034180;
1216859;0.014648;0.022461;1.042969;
1216999;0.015625;0.020508;1.051758;
1217139;0.018555;0.024414;1.056641;
1217279;0.017578;0.021484;1.057617;
1217419;0.019531;0.017578;1.064453;
1217559;0.019531;0.022461;1.065430;
1217699;0.015625;0.019531;1.067383;
1217839;0.018555;0.020508;1.078125;
1217989;0.016602;0.024414;1.062500;
1218129;0.015625;0.021484;1.075195;
1218269;0.016602;0.026367;1.063477;
1218419;0.015625;0.021484;1.052734;
1218560;0.011719;0.022461;1.044922;
1218715;0.018555;0.024414;1.057617;
1218864;0.014648;0.023438;1.048828;
1219014;0.009766;0.024414;1.044922;
1219169;0.016602;0.023438;1.034180;
1219309;0.011719;0.024414;1.022461;
1219449;0.011719;0.026367;1.028320;
1219589;0.010742;0.022461;1.022461;
1219729;0.011719;0.022461;1.013672;
1219869;0.011719;0.024414;1.013672;
1220009;0.012695;0.024414;1.014648;
1220149;0.010742;0.027344;1.020508;
1220289;0.014648;0.028320;1.031250;
1220439;0.010742;0.020508;1.033203;
1220579;0.011719;0.022461;1.034180;
1220719;0.012695;0.024414;1.034180;
1220859;0.011719;0.021484;1.044922;
1220999;0.015625;0.028320;1.052734;
1221139;0.013672;0.022461;1.044922;
1221276;0.015625;0.022461;1.051758;
1221424;0.011719;0.027344;1.042969;
1221574;0.012695;0.025391;1.047852;
1221725;0.012695;0.021484;1.037109;
1221879;0.014648;0.022461;1.041016;
1222019;0.012695;0.023438;1.038086;
1222159;0.012695;0.018555;1.025391;
1222299;0.009766;0.021484;1.030273;
1222439;0.012695;0.019531;1.028320;
1222589;0.008789;0.018555;1.017578;
1222729;0.013672;0.020508;1.023438;
1222869;0.009766;0.021484;1.017578;
1223009;0.009766;0.024414;1.020508;
1223149;0.007812;0.024414;1.021484;
1223289;0.011719;0.023438;1.011719;
1223429;0.007812;0.025391;1.030273;
1223569;0.010742;0.024414;1.020508;
1223709;0.008789;0.019531;1.027344;
1223844;0.012695;0.024414;1.030273;
1223995;0.010742;0.024414;1.033203;
1224144;0.011719;0.021484;1.030273;
1224294;0.009766;0.016602;1.031250;
1224439;0.010742;0.022461;1.023438;
1224579;0.009766;0.020508;1.018555;
1224719;0.009766;0.017578;1.012695;
1224859;0.012695;0.020508;1.006836;
1224999;0.009766;0.016602;1.002930;
1225139;0.010742;0.022461;0.999023;
1225279;0.009766;0.016602;0.987305;
1225419;0.010742;0.019531;0.977539;
1225559;0.004883;0.015625;0.994141;
1225699;0.011719;0.021484;0.976562;
1225839;0.009766;0.024414;0.988281;
1225979;0.007812;0.016602;0.979492;
1226119;0.006836;0.016602;0.982422;
1226259;0.008789;0.018555;0.967773;
1226406;0.006836;0.023438;0.989258;
1226557;0.007812;0.019531;0.982422;
1226706;0.008789;0.019531;0.990234;
1226854;0.008789;0.018555;0.990234;
1226995;0.007812;0.024414;0.996094;
1227149;0.007812;0.019531;0.985352;
1227289;0.008789;0.026367;0.994141;
1227439;0.007812;0.021484;0.990234;
1227579;0.005859;0.019531;0.984375;
1227719;0.008789;0.017578;0.991211;
1227859;0.007812;0.016602;0.990234;
1227999;0.008789;0.016602;0.993164;
1228139;0.008789;0.021484;0.996094;
1228289;0.009766;0.020508;1.006836;
1228429;0.007812;0.022461;0.997070;
1228569;0.011719;0.023438;1.009766;
1228719;0.006836;0.018555;1.012695;
1228859;0.012695;0.018555;1.011719;
1228999;0.010742;0.022461;1.020508;
1229144;0.009766;0.016602;1.022461;
1229295;0.008789;0.020508;1.029297;
1229424;0.014648;0.021484;1.029297;
1229579;0.011719;0.016602;1.034180;
1229716;0.010742;0.021484;1.030273;
1229864;0.009766;0.021484;1.037109;
1230019;0.013672;0.022461;1.027344;
1230159;0.009766;0.024414;1.040039;
1230309;0.012695;0.028320;1.041992;
1230449;0.011719;0.018555;1.036133;
1230589;0.014648;0.018555;1.039062;
1230739;0.014648;0.022461;1.043945;
1230879;0.019531;0.022461;1.046875;
1231019;0.015625;0.023438;1.050781;
1231159;0.015625;0.022461;1.048828;
1231299;0.017578;0.018555;1.044922;
1231439;0.016602;0.020508;1.056641;
1231579;0.016602;0.015625;1.040039;
1231729;0.016602;0.019531;1.046875;
1231869;0.014648;0.018555;1.047852;
1232004;0.017578;0.019531;1.045898;
1232155;0.013672;0.015625;1.039062;
1232294;0.013672;0.016602;1.039062;
1232435;0.011719;0.015625;1.037109;
1232584;0.012695;0.018555;1.027344;
1232729;0.013672;0.017578;1.029297;
1232869;0.008789;0.016602;1.014648;
1233009;0.011719;0.015625;1.006836;
1233149;0.006836;0.019531;1.009766;
1233289;0.010742;0.015625;0.996094;
1233429;0.009766;0.021484;1.005859;
1233569;0.010742;0.020508;1.007812;
1233709;0.007812;0.020508;1.006836;
1233849;0.010742;0.022461;1.014648;
1233999;0.006836;0.021484;1.017578;
1234139;0.010742;0.019531;1.026367;
1234279;0.009766;0.026367;1.025391;
1234419;0.009766;0.023438;1.025391;
1234559;0.007812;0.022461;1.031250;
1234699;0.011719;0.021484;1.035156;
1234835;0.008789;0.021484;1.052734;
1234984;0.013672;0.023438;1.046875;
1235134;0.013672;0.019531;1.041992;
1235285;0.011719;0.019531;1.039062;
1235444;0.011719;0.020508;1.036133;
1235599;0.010742;0.020508;1.022461;
1235739;0.010742;0.019531;1.028320;
1235879;0.009766;0.019531;1.009766;
1236019;0.014648;0.023438;1.019531;
1236159;0.009766;0.023438;1.000000;
1236299;0.011719;0.023438;0.993164;
1236439;0.008789;0.025391;0.987305;
1236579;0.010742;0.023438;0.982422;
1236719;0.006836;0.024414;0.978516;
1236859;0.007812;0.024414;0.980469;
1236999;0.005859;0.025391;0.968750;
1237139;0.008789;0.020508;0.978516;
1237279;0.007812;0.024414;0.977539;
1237419;0.008789;0.022461;0.985352;
1237554;0.009766;0.029297;0.993164;
1237704;0.009766;0.020508;1.001953;
1237864;0.006836;0.024414;1.006836;
1238014;0.009766;0.019531;1.029297;
1238169;0.006836;0.019531;1.023438;
1238309;0.010742;0.021484;1.048828;
1238459;0.010742;0.023438;1.047852;
1238599;0.010742;0.017578;1.052734;
1238739;0.012695;0.018555;1.050781;
1238879;0.014648;0.015625;1.056641;
1239019;0.014648;0.018555;1.057617;
1239169;0.017578;0.019531;1.072266;
1239309;0.016602;0.018555;1.059570;
1239449;0.016602;0.017578;1.066406;
1239589;0.016602;0.020508;1.058594;
1239729;0.014648;0.018555;1.074219;
1239879;0.016602;0.022461;1.071289;
1240019;0.013672;0.023438;1.067383;
1240165;0.014648;0.017578;1.069336;
1240316;0.015625;0.019531;1.055664;
1240466;0.015625;0.021484;1.062500;
1240626;0.013672;0.017578;1.049805;
1240779;0.017578;0.018555;1.049805;
1240919;0.014648;0.023438;1.040039;
1241059;0.016602;0.022461;1.037109;
1241199;0.019531;0.018555;1.037109;
1241339;0.015625;0.020508;1.034180;
1241479;0.019531;0.023438;1.036133;
1241629;0.020508;0.020508;1.035156;
1241769;0.020508;0.026367;1.033203;
1241909;0.020508;0.019531;1.029297;
1242049;0.025391;0.022461;1.041992;
1242189;0.020508;0.018555;1.031250;
1242329;0.024414;0.025391;1.041016;
1242479;0.023438;0.017578;1.030273;
1242619;0.024414;0.023438;1.037109;
1242755;0.026367;0.024414;1.048828;
1242915;0.026367;0.018555;1.041992;
1243074;0.025391;0.023438;1.043945;
1243225;0.027344;0.022461;1.057617;
1243369;0.024414;0.022461;1.055664;
1243504;0.028320;0.021484;1.052734;
1243659;0.026367;0.021484;1.048828;
1243799;0.026367;0.023438;1.050781;
1243949;0.029297;0.021484;1.050781;
1244089;0.027344;0.023438;1.043945;
1244229;0.033203;0.021484;1.063477;
1244379;0.034180;0.025391;1.053711;
1244519;0.036133;0.024414;1.057617;
1244659;0.033203;0.021484;1.050781;
1244809;0.037109;0.021484;1.057617;
1244949;0.037109;0.018555;1.049805;
1245089;0.040039;0.023438;1.058594;
1245229;0.039062;0.021484;1.059570;
1245369;0.037109;0.023438;1.052734;
1245509;0.041992;0.019531;1.050781;
1245644;0.044922;0.021484;1.052734;
1245776;0.044922;0.018555;1.042969;
1245925;0.045898;0.022461;1.033203;
1246074;0.045898;0.018555;1.028320;
1246224;0.046875;0.018555;1.014648;
1246369;0.049805;0.019531;0.986328;
1246509;0.049805;0.020508;0.980469;
1246649;0.047852;0.021484;0.958984;
1246789;0.049805;0.018555;0.951172;
1246929;0.051758;0.025391;0.940430;
1247079;0.050781;0.025391;0.946289;
1247219;0.052734;0.021484;0.945312;
1247359;0.058594;0.022461;0.957031;
1247499;0.058594;0.021484;0.969727;
1247639;0.058594;0.024414;0.968750;
1247779;0.063477;0.025391;0.989258;
1247919;0.062500;0.024414;0.993164;
1248059;0.067383;0.017578;1.008789;
1248199;0.067383;0.025391;1.023438;
1248324;0.069336;0.019531;1.023438;
1248464;0.073242;0.024414;1.037109;
1248614;0.074219;0.015625;1.041016;
1248764;0.072266;0.023438;1.072266;
1248919;0.079102;0.020508;1.074219;
1249059;0.077148;0.022461;1.074219;
1249199;0.079102;0.026367;1.083984;
1249349;0.080078;0.024414;1.074219;
1249489;0.079102;0.025391;1.071289;
1249629;0.082031;0.021484;1.045898;
1249779;0.081055;0.022461;1.037109;
1249919;0.082031;0.027344;1.025391;
1250059;0.081055;0.024414;1.002930;
1250199;0.081055;0.023438;0.991211;
1250339;0.082031;0.022461;0.988281;
1250479;0.082031;0.019531;0.977539;
1250619;0.082031;0.017578;0.981445;
1250759;0.083008;0.019531;0.984375;
1250911;0.086914;0.014648;0.996094;
1251065;0.083984;0.018555;1.011719;
1251225;0.087891;0.014648;1.019531;
1251375;0.084961;0.018555;1.028320;
1251529;0.085938;0.014648;1.025391;
1251679;0.084961;0.013672;1.031250;
1251829;0.089844;0.019531;1.035156;
1251969;0.084961;0.022461;1.046875;
1252109;0.087891;0.020508;1.039062;
1252259;0.088867;0.017578;1.027344;
1252399;0.084961;0.013672;1.033203;
1252539;0.086914;0.015625;1.032227;
1252689;0.084961;0.022461;1.036133;
1252829;0.082031;0.019531;1.035156;
1252969;0.083008;0.021484;1.026367;
1253119;0.082031;0.022461;1.031250;
1253259;0.079102;0.023438;1.018555;
1253409;0.079102;0.023438;1.021484;
1253554;0.082031;0.030273;1.024414;
1253705;0.082031;0.028320;1.029297;
1253866;0.080078;0.026367;1.022461;
1254014;0.080078;0.032227;1.035156;
1254169;0.082031;0.029297;1.043945;
1254309;0.080078;0.029297;1.051758;
1254449;0.082031;0.027344;1.070312;
1254589;0.081055;0.022461;1.077148;
1254729;0.083984;0.020508;1.090820;
1254869;0.085938;0.022461;1.092773;
1255009;0.084961;0.017578;1.088867;
1255159;0.083984;0.016602;1.094727;
1255299;0.083008;0.021484;1.098633;
1255439;0.084961;0.021484;1.096680;
1255579;0.084961;0.019531;1.086914;
1255719;0.082031;0.018555;1.081055;
1255869;0.082031;0.016602;1.069336;
1256009;0.083008;0.016602;1.067383;
1256144;0.082031;0.016602;1.041992;
1256295;0.081055;0.020508;1.041992;
1256446;0.080078;0.023438;1.020508;
1256594;0.079102;0.020508;1.016602;
1256739;0.079102;0.021484;1.022461;
1256879;0.078125;0.018555;1.023438;
1257029;0.081055;0.022461;1.014648;
1257169;0.081055;0.021484;1.025391;
1257309;0.082031;0.021484;1.012695;
1257459;0.081055;0.018555;1.004883;
1257599;0.077148;0.025391;1.013672;
1257739;0.078125;0.025391;1.001953;
1257879;0.078125;0.018555;1.000000;
1258019;0.078125;0.021484;0.995117;
1258159;0.078125;0.019531;0.994141;
1258299;0.077148;0.023438;1.000000;
1258439;0.077148;0.019531;1.000000;
1258579;0.078125;0.022461;0.998047;
1258714;0.077148;0.017578;0.996094;
1258865;0.078125;0.021484;1.000977;
1259024;0.076172;0.016602;0.993164;
1259166;0.077148;0.017578;0.998047;
1259294;0.079102;0.021484;1.016602;
1259449;0.081055;0.019531;1.008789;
1259589;0.077148;0.024414;1.026367;
1259729;0.079102;0.024414;1.016602;
1259869;0.078125;0.022461;1.023438;
1260009;0.077148;0.022461;1.020508;
1260149;0.078125;0.025391;1.030273;
1260289;0.077148;0.023438;1.040039;
1260429;0.077148;0.029297;1.031250;
1260569;0.077148;0.021484;1.027344;
1260709;0.073242;0.024414;1.027344;
1260849;0.074219;0.024414;1.074219;
1260989;0.079102;0.023438;1.132812;
1261129;0.079102;0.027344;1.212891;
1261269;0.081055;0.022461;1.294922;
1261404;0.091797;0.020508;1.398438;
1261554;0.093750;0.021484;1.487305;
1261694;0.100586;0.022461;1.572266;
1261844;0.109375;0.017578;1.654297;
1261994;0.114258;0.016602;1.692383;
1262149;0.111328;0.014648;1.711914;
1262289;0.113281;0.017578;1.714844;
1262429;0.113281;0.008789;1.698242;
1262569;0.113281;0.010742;1.721680;
1262709;0.111328;0.012695;1.712891;
1262849;0.112305;0.020508;1.721680;
1262989;0.115234;0.013672;1.718750;
1263129;0.113281;0.013672;1.716797;
1263269;0.110352;0.015625;1.716797;
1263409;0.115234;0.017578;1.734375;
1263549;0.112305;0.017578;1.750977;
1263699;0.117188;0.017578;1.754883;
1263839;0.115234;0.016602;1.762695;
1263979;0.116211;0.015625;1.803711;
1264114;0.122070;0.014648;1.826172;
1264265;0.122070;0.019531;1.839844;
1264425;0.124023;0.027344;1.860352;
1264574;0.124023;0.023438;1.856445;
1264729;0.128906;0.019531;1.866211;
1264869;0.123047;0.015625;1.851562;
1265019;0.125000;0.020508;1.865234;
1265159;0.125977;0.020508;1.850586;
1265299;0.128906;0.017578;1.841797;
1265449;0.129883;0.020508;1.846680;
1265589;0.125000;0.008789;1.808594;
1265729;0.123047;0.015625;1.777344;
1265869;0.123047;0.013672;1.755859;
1266009;0.120117;0.000977;1.723633;
1266159;0.118164;0.001953;1.715820;
1266299;0.116211;0.008789;1.722656;
1266439;0.120117;0.001953;1.728516;
1266579;0.123047;0.008789;1.763672;
1266714;0.123047;0.010742;1.759766;
1266864;0.125977;0.014648;1.797852;
1267024;0.125977;0.014648;1.812500;
1267174;0.128906;0.022461;1.832031;
1267319;0.126953;0.013672;1.848633;
1267469;0.129883;0.025391;1.856445;
1267619;0.130859;0.024414;1.859375;
1267759;0.133789;0.020508;1.867188;
1267899;0.134766;0.024414;1.859375;
1268039;0.130859;0.014648;1.856445;
1268179;0.132812;0.017578;1.853516;
1268319;0.135742;0.017578;1.850586;
1268459;0.134766;0.019531;1.842773;
1268599;0.132812;0.018555;1.830078;
1268739;0.134766;0.018555;1.829102;
1268879;0.133789;0.013672;1.821289;
1269019;0.135742;0.016602;1.817383;
1269159;0.137695;0.010742;1.817383;
1269299;0.135742;0.006836;1.824219;
1269435;0.136719;0.002930;1.818359;
1269584;0.135742;0.003906;1.836914;
1269735;0.140625;0.002930;1.844727;
1269875;0.141602;0.005859;1.850586;
1270019;0.143555;0.009766;1.857422;
1270164;0.142578;0.006836;1.861328;
1270324;0.143555;0.014648;1.870117;
1270479;0.145508;0.016602;1.864258;
1270619;0.145508;0.014648;1.856445;
1270759;0.145508;0.020508;1.848633;
1270899;0.148438;0.017578;1.845703;
1271049;0.148438;0.010742;1.843750;
1271189;0.148438;0.020508;1.828125;
1271329;0.146484;0.015625;1.820312;
1271469;0.146484;0.005859;1.809570;
1271609;0.146484;0.009766;1.803711;
1271749;0.153320;0.008789;1.820312;
1271889;0.152344;0.007812;1.811523;
1272029;0.153320;0.016602;1.831055;
1272179;0.152344;0.023438;1.824219;
1272319;0.156250;0.015625;1.816406;
1272447;0.151367;0.015625;1.816406;
1272594;0.157227;0.019531;1.834961;
1272744;0.156250;0.013672;1.832031;
1272894;0.162109;0.011719;1.842773;
1273049;0.160156;0.017578;1.849609;
1273189;0.163086;0.006836;1.838867;
1273329;0.165039;0.008789;1.846680;
1273469;0.164062;0.003906;1.853516;
1273609;0.164062;0.003906;1.824219;
1273759;0.166016;0.002930;1.827148;
1273899;0.169922;-0.001953;1.826172;
1274039;0.166992;0.001953;1.832031;
1274179;0.166016;0.000977;1.812500;
1274319;0.171875;-0.005859;1.830078;
1274459;0.169922;0.003906;1.838867;
1274599;0.172852;0.009766;1.844727;
1274739;0.171875;0.010742;1.836914;
1274879;0.173828;0.007812;1.840820;
1275024;0.175781;0.014648;1.861328;
1275175;0.177734;0.013672;1.852539;
1275326;0.176758;0.020508;1.830078;
1275474;0.176758;0.029297;1.813477;
1275629;0.174805;0.030273;1.804688;
1275769;0.171875;0.038086;1.812500;
1275909;0.175781;0.037109;1.796875;
1276049;0.178711;0.041992;1.794922;
1276189;0.176758;0.036133;1.786133;
1276339;0.179688;0.035156;1.764648;
1276479;0.178711;0.024414;1.777344;
1276619;0.180664;0.020508;1.756836;
1276759;0.177734;0.014648;1.766602;
1276899;0.184570;0.003906;1.765625;
1277039;0.183594;0.001953;1.763672;
1277179;0.189453;0.003906;1.786133;
1277319;0.188477;-0.002930;1.781250;
1277459;0.192383;-0.005859;1.781250;
1277594;0.195312;-0.005859;1.785156;
1277734;0.191406;-0.007812;1.777344;
1277885;0.193359;0.006836;1.762695;
1278045;0.194336;0.008789;1.733398;
1278199;0.190430;0.011719;1.715820;
1278339;0.188477;0.015625;1.687500;
1278479;0.189453;0.014648;1.666992;
1278619;0.187500;0.025391;1.657227;
1278759;0.186523;0.026367;1.639648;
1278899;0.187500;0.025391;1.640625;
1279039;0.187500;0.027344;1.653320;
1279179;0.191406;0.024414;1.646484;
1279319;0.191406;0.023438;1.646484;
1279459;0.191406;0.020508;1.619141;
1279609;0.194336;0.024414;1.621094;
1279759;0.194336;0.018555;1.612305;
1279899;0.194336;0.015625;1.615234;
1280049;0.199219;0.021484;1.609375;
1280184;0.196289;0.018555;1.597656;
1280335;0.196289;0.016602;1.602539;
1280484;0.189453;0.014648;1.607422;
1280634;0.192383;0.023438;1.625977;
1280774;0.185547;0.019531;1.645508;
1280919;0.182617;0.028320;1.641602;
1281059;0.171875;0.023438;1.634766;
1281199;0.170898;0.022461;1.613281;
1281339;0.166016;0.019531;1.591797;
1281479;0.151367;0.030273;1.583008;
1281629;0.150391;0.024414;1.577148;
1281769;0.140625;0.028320;1.540039;
1281909;0.135742;0.026367;1.484375;
1282049;0.126953;0.017578;1.414062;
1282189;0.116211;0.019531;1.364258;
1282329;0.102539;0.029297;1.263672;
1282469;0.086914;0.024414;1.161133;
1282609;0.071289;0.021484;1.052734;
1282749;0.054688;0.025391;0.938477;
1282884;0.044922;0.024414;0.857422;
1283036;0.035156;0.019531;0.731445;
1283176;0.025391;0.018555;0.625977;
1283325;0.015625;0.019531;0.517578;
1283454;0.010742;0.016602;0.433594;
1283609;0.010742;0.023438;0.351562;
1283749;0.007812;0.030273;0.271484;
1283899;0.005859;0.028320;0.212891;
1284039;-0.001953;0.028320;0.144531;
1284189;0.002930;0.029297;0.116211;
1284329;0.000000;0.034180;0.080078;
1284469;-0.001953;0.034180;0.048828;
1284619;0.000000;0.031250;0.024414;
1284759;-0.000977;0.034180;0.020508;
1284899;-0.001953;0.031250;0.021484;
1285039;-0.002930;0.027344;0.022461;
1285179;-0.002930;0.030273;0.032227;
1285319;-0.001953;0.029297;0.036133;
1285459;-0.003906;0.025391;0.041992;
1285584;-0.003906;0.022461;0.043945;
1285734;-0.004883;0.026367;0.055664;
1285885;-0.005859;0.021484;0.055664;
1286014;-0.004883;0.020508;0.058594;
1286164;-0.010742;0.019531;0.054688;
1286319;-0.008789;0.023438;0.068359;
1286459;-0.009766;0.020508;0.064453;
1286609;-0.008789;0.023438;0.064453;
1286749;-0.007812;0.022461;0.068359;
1286889;-0.008789;0.021484;0.069336;
1287029;-0.009766;0.022461;0.072266;
1287169;-0.009766;0.024414;0.066406;
1287309;-0.010742;0.026367;0.057617;
1287449;-0.013672;0.024414;0.048828;
1287589;-0.012695;0.024414;0.049805;
1287729;-0.008789;0.023438;0.041992;
1287869;-0.009766;0.025391;0.037109;
1288009;-0.008789;0.024414;0.037109;
1288149;-0.012695;0.022461;0.027344;
1288286;-0.013672;0.026367;0.000977;
1288436;-0.010742;0.025391;0.019531;
1288585;-0.008789;0.025391;0.026367;
1288735;-0.008789;0.024414;0.024414;
1288887;-0.012695;0.031250;0.015625;
1289039;-0.014648;0.030273;0.012695;
1289179;-0.009766;0.028320;0.014648;
1289319;-0.008789;0.030273;0.013672;
1289459;-0.009766;0.028320;0.012695;
1289599;-0.013672;0.030273;0.014648;
1289739;-0.010742;0.032227;0.009766;
1289879;-0.012695;0.029297;0.007812;
1290019;-0.014648;0.031250;0.003906;
1290159;-0.012695;0.030273;0.012695;
1290294;-0.013672;0.030273;0.012695;
1290449;-0.012695;0.030273;0.017578;
1290589;-0.011719;0.031250;0.020508;
1290729;-0.012695;0.030273;0.020508;
1290865;-0.010742;0.029297;0.025391;
1291004;-0.013672;0.027344;0.027344;
1291154;-0.011719;0.027344;0.028320;
1291305;-0.015625;0.027344;0.026367;
1291455;-0.012695;0.024414;0.035156;
1291604;-0.010742;0.021484;0.033203;
1291749;-0.010742;0.022461;0.034180;
1291889;-0.011719;0.023438;0.028320;
1292029;-0.009766;0.027344;0.036133;
1292179;-0.014648;0.029297;0.035156;
1292319;-0.010742;0.028320;0.035156;
1292459;-0.012695;0.025391;0.027344;
1292599;-0.011719;0.024414;-0.006836;
1292739;-0.013672;0.026367;0.032227;
1292879;-0.012695;0.026367;0.026367;
1293019;-0.010742;0.024414;0.029297;
1293159;-0.012695;0.027344;0.031250;
1293299;-0.012695;0.029297;0.030273;
1293439;-0.009766;0.028320;0.025391;
1293579;-0.011719;0.029297;0.017578;
1293714;-0.014648;0.028320;0.023438;
1293865;-0.014648;0.026367;0.019531;
1294004;-0.013672;0.025391;0.018555;
1294164;-0.013672;0.026367;0.017578;
1294319;-0.015625;0.029297;0.015625;
1294459;-0.015625;0.032227;0.020508;
1294596;-0.017578;0.029297;0.007812;
1294739;-0.013672;0.028320;0.015625;
1294879;-0.016602;0.026367;0.011719;
1295019;-0.012695;0.025391;0.017578;
1295159;-0.014648;0.026367;0.009766;
1295299;-0.011719;0.023438;0.012695;
1295439;-0.011719;0.023438;0.014648;
1295579;-0.013672;0.023438;0.007812;
1295720;-0.014648;0.023438;0.009766;
1295869;-0.014648;0.027344;0.003906;
1296009;-0.012695;0.022461;0.005859;
1296144;-0.012695;0.024414;0.003906;
1296294;-0.014648;0.024414;0.005859;
1296444;-0.013672;0.029297;0.004883;
1296604;-0.012695;0.027344;0.002930;
1296768;-0.014648;0.029297;0.007812;
1296919;-0.015625;0.027344;0.006836;
1297059;-0.014648;0.026367;0.005859;
1297199;-0.015625;0.028320;0.008789;
1297339;-0.015625;0.026367;-0.000977;
1297489;-0.013672;0.025391;0.004883;
1297629;-0.016602;0.024414;-0.002930;
1297769;-0.014648;0.027344;0.002930;
1297910;-0.015625;0.025391;0.002930;
1298059;-0.017578;0.023438;-0.003906;
1298199;-0.017578;0.025391;0.000000;
1298339;-0.019531;0.024414;-0.004883;
1298479;-0.017578;0.028320;0.003906;
1298619;-0.016602;0.027344;0.004883;
1298759;-0.015625;0.029297;0.010742;
1298894;-0.013672;0.028320;0.008789;
1299055;-0.015625;0.027344;0.016602;
1299214;-0.017578;0.026367;0.010742;
1299364;-0.018555;0.027344;0.014648;
1299504;-0.017578;0.028320;0.020508;
1299649;-0.018555;0.028320;0.015625;
1299789;-0.017578;0.029297;0.013672;
1299929;-0.018555;0.030273;0.017578;
1300079;-0.021484;0.030273;0.061523;
1300219;-0.017578;0.028320;0.016602;
1300369;-0.019531;0.027344;0.011719;
1300509;-0.022461;0.027344;0.004883;
1300649;-0.021484;0.026367;0.005859;
1300789;-0.025391;0.028320;0.007812;
1300929;-0.024414;0.025391;0.003906;
1301069;-0.025391;0.030273;0.012695;
1301209;-0.022461;0.029297;0.004883;
1301349;-0.024414;0.030273;0.006836;
1301489;-0.023438;0.029297;0.004883;
1301634;-0.021484;0.029297;0.004883;
1301784;-0.021484;0.019531;0.002930;
1301935;-0.023438;0.021484;0.000000;
1302074;-0.023438;0.019531;-0.001953;
1302224;-0.022461;0.022461;-0.001953;
1302374;-0.022461;0.022461;-0.004883;
1302539;-0.024414;0.019531;-0.009766;
1302679;-0.025391;0.020508;-0.012695;
1302829;-0.023438;0.020508;-0.012695;
1302969;-0.027344;0.017578;-0.021484;
1303109;-0.028320;0.014648;-0.011719;
1303259;-0.028320;0.021484;-0.007812;
1303399;-0.025391;0.020508;-0.007812;
1303539;-0.027344;0.016602;-0.008789;
1303689;-0.030273;0.023438;-0.010742;
1303829;-0.030273;0.011719;0.000977;
1303969;-0.033203;0.017578;-0.002930;
1304109;-0.033203;0.016602;-0.005859;
1304249;-0.027344;0.021484;-0.010742;
1304384;-0.027344;0.017578;-0.004883;
1304545;-0.029297;0.015625;-0.000977;
1304695;-0.029297;0.014648;0.007812;
1304854;-0.027344;0.015625;0.009766;
1305019;-0.029297;0.023438;0.006836;
1305159;-0.031250;0.020508;0.009766;
1305299;-0.032227;0.015625;0.011719;
1305439;-0.032227;0.019531;0.010742;
1305579;-0.032227;0.022461;0.005859;
1305729;-0.036133;0.018555;0.000000;
1305869;-0.031250;0.018555;0.009766;
1306005;-0.033203;0.023438;0.009766;
1306149;-0.037109;0.022461;0.010742;
1306289;-0.037109;0.021484;-0.003906;
1306429;-0.037109;0.024414;-0.000977;
1306569;-0.041016;0.027344;-0.010742;
1306719;-0.039062;0.020508;0.008789;
1306859;-0.040039;0.022461;0.008789;
1306995;-0.037109;0.026367;0.014648;
1307145;-0.041992;0.023438;-0.003906;
1307295;-0.043945;0.019531;0.005859;
1307444;-0.056641;0.027344;0.000977;
1307599;-0.037109;0.024414;0.079102;
1307749;-0.050781;0.013672;0.085938;
1307889;-0.054688;0.024414;0.220703;
1308029;-0.045898;0.009766;0.314453;
1308169;-0.039062;0.022461;0.370117;
1308309;-0.029297;0.012695;0.514648;
1308449;-0.033203;0.023438;0.622070;
1308599;-0.000977;0.014648;0.842773;
1308739;0.009766;0.014648;0.960938;
1308879;-0.000977;0.020508;1.049805;
1309019;0.023438;0.013672;1.221680;
1309159;0.047852;0.025391;1.328125;
1309299;0.055664;0.029297;1.507812;
1309439;0.053711;0.019531;1.579102;
1309576;0.058594;0.025391;1.604492;
1309724;0.062500;0.017578;1.666992;
1309879;0.064453;-0.001953;1.697266;
1310015;0.060547;0.006836;1.730469;
1310144;0.069336;0.021484;1.698242;
1310294;0.078125;0.020508;1.826172;
1310449;0.064453;0.024414;1.763672;
1310589;0.062500;0.044922;1.721680;
1310729;0.059570;0.008789;1.740234;
1310869;0.059570;0.015625;1.700195;
1311009;0.058594;0.018555;1.718750;
1311149;0.042969;0.001953;1.680664;
1311289;0.043945;0.003906;1.650391;
1311429;0.062500;0.019531;1.690430;
1311569;0.045898;0.021484;1.692383;
1311709;0.051758;0.012695;1.662109;
1311859;0.043945;0.037109;1.627930;
1311999;0.047852;0.026367;1.652344;
1312139;0.039062;0.023438;1.664062;
1312289;0.056641;0.035156;1.735352;
1312429;0.053711;0.025391;1.738281;
1312564;0.051758;0.024414;1.735352;
1312715;0.051758;0.040039;1.770508;
1312864;0.050781;0.018555;1.846680;
1313015;0.064453;0.018555;1.883789;
1313169;0.041016;0.036133;1.864258;
1313309;0.046875;0.035156;1.874023;
1313449;0.048828;0.022461;1.868164;
1313589;0.030273;0.001953;1.876953;
1313729;0.052734;0.015625;1.903320;
1313879;0.040039;0.006836;1.818359;
1314019;0.048828;0.013672;1.854492;
1314159;0.035156;0.020508;1.861328;
1314309;0.032227;0.039062;1.847656;
1314449;0.045898;0.028320;1.858398;
1314589;0.034180;0.028320;1.830078;
1314729;0.032227;0.037109;1.818359;
1314869;0.037109;0.027344;1.858398;
1315009;0.027344;0.034180;1.730469;
1315145;0.030273;0.027344;1.772461;
1315294;0.015625;0.033203;1.731445;
1315445;0.037109;0.012695;1.770508;
1315594;0.013672;0.008789;1.717773;
1315759;0.021484;-0.001953;1.746094;
1315909;0.021484;0.011719;1.675781;
1316049;0.014648;0.000977;1.732422;
1316189;0.007812;0.010742;1.660156;
1316339;0.012695;0.000000;1.698242;
1316479;-0.003906;-0.010742;1.683594;
1316619;0.020508;0.003906;1.750977;
1316769;0.016602;-0.000977;1.748047;
1316909;0.008789;0.002930;1.724609;
1317049;0.015625;0.019531;1.735352;
1317189;0.008789;0.015625;1.810547;
1317329;0.008789;0.025391;1.770508;
1317469;0.015625;0.014648;1.851562;
1317609;0.003906;0.016602;1.815430;
1317745;0.021484;0.020508;1.875000;
1317904;0.000977;0.012695;1.845703;
1318055;0.003906;0.029297;1.848633;
1318204;0.004883;0.011719;1.869141;
1318359;0.001953;0.022461;1.755859;
1318499;-0.012695;0.023438;1.764648;
1318639;-0.012695;0.022461;1.730469;
1318779;0.000977;0.006836;1.737305;
1318929;-0.010742;0.019531;1.702148;
1319069;-0.016602;0.036133;1.692383;
1319209;-0.019531;0.016602;1.658203;
1319359;-0.017578;0.023438;1.635742;
1319499;-0.027344;0.019531;1.701172;
1319639;-0.026367;0.028320;1.673828;
1319779;-0.001953;0.009766;1.750977;
1319919;-0.024414;0.015625;1.721680;
1320069;-0.012695;0.026367;1.750977;
1320209;-0.009766;0.011719;1.807617;
1320345;-0.014648;0.012695;1.791992;
1320495;-0.009766;0.014648;1.844727;
1320644;-0.010742;0.028320;1.779297;
1320794;-0.005859;0.017578;1.855469;
1320949;-0.025391;0.015625;1.798828;
1321089;-0.003906;0.025391;1.871094;
1321239;-0.021484;0.008789;1.833008;
1321379;-0.015625;0.008789;1.787109;
1321519;-0.013672;-0.002930;1.884766;
1321669;-0.010742;0.004883;1.797852;
1321809;-0.008789;0.000977;1.834961;
1321949;-0.021484;0.015625;1.786133;
1322099;-0.011719;0.013672;1.822266;
1322239;-0.030273;0.012695;1.797852;
1322379;-0.031250;0.002930;1.778320;
1322519;-0.020508;0.015625;1.835938;
1322659;-0.024414;0.009766;1.817383;
1322799;-0.019531;0.018555;1.764648;
1322934;-0.018555;0.009766;1.791016;
1323084;-0.031250;0.032227;1.754883;
1323234;-0.026367;0.029297;1.765625;
1323379;-0.029297;0.037109;1.744141;
1323514;-0.028320;0.045898;1.777344;
1323654;-0.033203;0.023438;1.816406;
1323799;-0.036133;0.031250;1.701172;
1323949;-0.040039;0.022461;1.764648;
1324089;-0.041992;0.028320;1.724609;
1324229;-0.017578;0.006836;1.772461;
1324379;-0.037109;0.011719;1.722656;
1324519;-0.033203;0.024414;1.715820;
1324659;-0.038086;0.001953;1.725586;
1324809;-0.034180;0.014648;1.705078;
1324949;-0.043945;0.013672;1.717773;
1325089;-0.038086;0.015625;1.637695;
1325229;-0.029297;0.012695;1.687500;
1325369;-0.057617;0.014648;1.607422;
1325509;-0.047852;0.018555;1.606445;
1325649;-0.047852;0.007812;1.614258;
1325785;-0.053711;0.016602;1.541992;
1325914;-0.049805;0.015625;1.518555;
1326066;-0.067383;0.022461;1.505859;
1326215;-0.047852;0.012695;1.539062;
1326364;-0.070312;0.016602;1.477539;
1326519;-0.048828;0.026367;1.528320;
1326659;-0.051758;0.016602;1.565430;
1326799;-0.049805;0.027344;1.531250;
1326939;-0.049805;0.021484;1.589844;
1327079;-0.051758;0.028320;1.589844;
1327229;-0.049805;0.025391;1.606445;
1327369;-0.049805;0.012695;1.677734;
1327509;-0.055664;0.015625;1.673828;
1327649;-0.034180;0.021484;1.742188;
1327789;-0.034180;0.016602;1.745117;
1327929;-0.042969;0.016602;1.709961;
1328069;-0.039062;0.008789;1.802734;
1328209;-0.039062;0.015625;1.764648;
1328349;-0.032227;0.009766;1.766602;
1328485;-0.038086;0.005859;1.761719;
1328634;-0.038086;0.023438;1.757812;
1328784;-0.052734;0.019531;1.715820;
1328935;-0.050781;0.004883;1.698242;
1329089;-0.044922;0.011719;1.737305;
1329229;-0.047852;0.016602;1.640625;
1329369;-0.040039;0.016602;1.680664;
1329509;-0.055664;0.025391;1.638672;
1329649;-0.045898;0.021484;1.660156;
1329789;-0.053711;0.018555;1.625977;
1329929;-0.058594;0.009766;1.624023;
1330069;-0.047852;0.023438;1.667969;
1330219;-0.054688;0.022461;1.566406;
1330359;-0.046875;0.014648;1.588867;
1330499;-0.065430;0.031250;1.544922;
1330639;-0.056641;0.027344;1.535156;
1330779;-0.062500;0.023438;1.493164;
1330929;-0.069336;0.010742;1.469727;
1331064;-0.065430;0.015625;1.494141;
1331214;-0.052734;0.005859;1.416992;
1331364;-0.074219;0.024414;1.355469;
1331516;-0.065430;0.016602;1.372070;
1331665;-0.068359;0.017578;1.302734;
1331809;-0.076172;0.030273;1.238281;
1331949;-0.071289;0.016602;1.240234;
1332089;-0.085938;0.014648;1.169922;
1332229;-0.084961;0.015625;1.153320;
1332369;-0.072266;0.013672;1.168945;
1332509;-0.084961;0.018555;1.119141;
1332649;-0.083008;0.012695;1.110352;
1332789;-0.090820;0.018555;1.069336;
1332929;-0.083008;0.020508;1.031250;
1333069;-0.073242;0.021484;1.005859;
1333209;-0.101562;0.012695;0.892578;
1333359;-0.089844;0.016602;0.911133;
1333499;-0.091797;0.019531;0.892578;
1333639;-0.086914;0.017578;0.877930;
1333775;-0.098633;0.011719;0.889648;
1333914;-0.095703;0.027344;0.875000;
1334065;-0.081055;0.016602;0.930664;
1334194;-0.097656;0.012695;0.902344;
1334344;-0.093750;0.015625;0.939453;
1334499;-0.079102;0.018555;1.004883;
1334639;-0.082031;0.018555;0.938477;
1334779;-0.084961;0.017578;1.012695;
1334919;-0.087891;0.033203;0.982422;
1335059;-0.085938;0.028320;1.013672;
1335199;-0.084961;0.014648;1.024414;
1335339;-0.090820;0.012695;1.009766;
1335479;-0.079102;0.025391;1.067383;
1335629;-0.082031;0.015625;1.030273;
1335769;-0.074219;0.016602;1.002930;
1335909;-0.080078;0.021484;1.068359;
1336049;-0.083008;0.036133;0.985352;
1336189;-0.073242;0.016602;1.051758;
1336329;-0.085938;0.014648;0.995117;
1336464;-0.079102;0.023438;1.029297;
1336614;-0.083984;0.026367;1.022461;
1336764;-0.081055;0.017578;1.008789;
1336924;-0.082031;0.021484;1.021484;
1337084;-0.080078;0.018555;1.026367;
1337239;-0.080078;0.017578;1.031250;
1337389;-0.080078;0.019531;1.040039;
1337525;-0.080078;0.024414;1.050781;
1337679;-0.079102;0.023438;1.071289;
1337819;-0.079102;0.021484;1.076172;
1337959;-0.076172;0.019531;1.081055;
1338099;-0.078125;0.017578;1.090820;
1338259;-0.076172;0.018555;1.098633;
1338399;-0.074219;0.020508;1.101562;
1338539;-0.075195;0.022461;1.117188;
1338679;-0.074219;0.021484;1.104492;
1338804;-0.075195;0.021484;1.111328;
1338959;-0.075195;0.020508;1.118164;
1339099;-0.075195;0.022461;1.118164;
1339244;-0.073242;0.026367;1.116211;
1339394;-0.070312;0.025391;1.123047;
1339545;-0.072266;0.022461;1.111328;
1339695;-0.072266;0.019531;1.100586;
1339855;-0.073242;0.019531;1.099609;
1340004;-0.072266;0.014648;1.085938;
1340144;-0.075195;0.014648;1.079102;
1340289;-0.073242;0.016602;1.078125;
1340424;-0.074219;0.016602;1.072266;
1340579;-0.072266;0.021484;1.074219;
1340719;-0.078125;0.021484;1.061523;
1340869;-0.075195;0.019531;1.070312;
1341010;-0.075195;0.019531;1.054688;
1341154;-0.073242;0.024414;1.060547;
1341309;-0.075195;0.025391;1.060547;
1341459;-0.072266;0.023438;1.066406;
1341599;-0.076172;0.029297;1.064453;
1341735;-0.074219;0.028320;1.056641;
1341889;-0.073242;0.031250;1.059570;
1342029;-0.074219;0.029297;1.063477;
1342166;-0.074219;0.028320;1.063477;
1342315;-0.074219;0.031250;1.059570;
1342464;-0.076172;0.030273;1.056641;
1342614;-0.075195;0.027344;1.059570;
1342759;-0.074219;0.026367;1.048828;
1342895;-0.075195;0.026367;1.057617;
1343045;-0.073242;0.027344;1.051758;
1343195;-0.075195;0.023438;1.049805;
1343349;-0.072266;0.021484;1.056641;
1343489;-0.072266;0.020508;1.054688;
1343629;-0.072266;0.023438;1.022461;
1343769;-0.076172;0.018555;0.994141;
1343904;-0.077148;0.022461;0.960938;
1344059;-0.076172;0.021484;0.930664;
1344199;-0.079102;0.024414;0.908203;
1344339;-0.082031;0.019531;0.869141;
1344479;-0.084961;0.020508;0.852539;
1344615;-0.078125;0.019531;0.862305;
1344769;-0.080078;0.021484;0.867188;
1344909;-0.079102;0.023438;0.881836;
1345049;-0.080078;0.021484;0.896484;
1345185;-0.075195;0.025391;0.912109;
1345335;-0.074219;0.020508;0.929688;
1345476;-0.073242;0.025391;0.950195;
1345625;-0.073242;0.028320;0.971680;
1345775;-0.067383;0.026367;0.992188;
1345925;-0.069336;0.023438;1.014648;
1346076;-0.068359;0.028320;1.023438;
1346229;-0.062500;0.021484;1.039062;
1346369;-0.058594;0.023438;1.042969;
1346509;-0.058594;0.026367;1.054688;
1346644;-0.057617;0.022461;1.054688;
1346784;-0.058594;0.025391;1.045898;
1346915;-0.057617;0.023438;1.048828;
1347069;-0.051758;0.021484;1.065430;
1347209;-0.047852;0.016602;1.065430;
1347359;-0.045898;0.021484;1.068359;
1347494;-0.040039;0.021484;1.071289;
1347639;-0.036133;0.019531;1.066406;
1347779;-0.030273;0.020508;1.069336;
1347919;-0.025391;0.019531;1.085938;
1348056;-0.022461;0.017578;1.068359;
1348204;-0.015625;0.023438;1.082031;
1348364;-0.008789;0.023438;1.098633;
1348514;-0.003906;0.017578;1.105469;
1348664;-0.000977;0.022461;1.107422;
1348804;0.000000;0.028320;1.108398;
1348954;0.003906;0.025391;1.111328;
1349109;0.005859;0.029297;1.103516;
1349244;0.005859;0.023438;1.108398;
1349399;0.004883;0.027344;1.105469;
1349549;0.005859;0.027344;1.101562;
1349689;0.009766;0.026367;1.096680;
1349825;0.012695;0.022461;1.083008;
1349964;0.010742;0.023438;1.083984;
1350109;0.015625;0.029297;1.077148;
1350249;0.019531;0.020508;1.058594;
1350389;0.018555;0.019531;1.053711;
1350539;0.016602;0.021484;1.051758;
1350679;0.014648;0.024414;1.033203;
1350819;0.014648;0.021484;1.024414;
1350959;0.011719;0.017578;1.021484;
1351095;0.010742;0.018555;1.002930;
1351239;0.012695;0.021484;1.013672;
1351374;0.010742;0.018555;1.008789;
1351514;0.012695;0.017578;1.004883;
1351664;0.013672;0.021484;1.017578;
1351814;0.011719;0.022461;1.022461;
1351969;0.014648;0.022461;1.016602;
1352109;0.014648;0.026367;1.033203;
1352249;0.012695;0.028320;1.029297;
1352399;0.013672;0.028320;1.045898;
1352539;0.015625;0.026367;1.036133;
1352679;0.012695;0.031250;1.038086;
1352819;0.016602;0.024414;1.035156;
1352959;0.013672;0.028320;1.032227;
1353099;0.012695;0.026367;1.021484;
1353239;0.016602;0.021484;1.017578;
1353379;0.014648;0.026367;1.007812;
1353519;0.014648;0.027344;0.996094;
1353659;0.012695;0.028320;0.992188;
1353799;0.011719;0.027344;0.992188;
1353944;0.011719;0.022461;0.976562;
1354095;0.011719;0.024414;0.962891;
1354246;0.009766;0.022461;0.967773;
1354395;0.010742;0.022461;0.956055;
1354545;0.009766;0.024414;0.965820;
1354689;0.008789;0.019531;0.951172;
1354829;0.009766;0.016602;0.950195;
1354969;0.008789;0.018555;0.954102;
1355109;0.012695;0.018555;0.958008;
1355249;0.009766;0.021484;0.955078;
1355389;0.012695;0.020508;0.960938;
1355529;0.009766;0.024414;0.958984;
1355669;0.009766;0.029297;0.948242;
1355819;0.009766;0.026367;0.948242;
1355959;0.010742;0.031250;0.944336;
1356099;0.010742;0.029297;0.942383;
1356249;0.007812;0.032227;0.938477;
1356389;0.009766;0.030273;0.936523;
1356529;0.011719;0.030273;0.924805;
1356665;0.014648;0.027344;0.935547;
1356815;0.016602;0.022461;0.930664;
1356974;0.018555;0.025391;0.941406;
1357134;0.020508;0.020508;0.947266;
1357289;0.022461;0.016602;0.970703;
1357429;0.022461;0.020508;0.984375;
1357579;0.027344;0.018555;1.017578;
1357719;0.028320;0.019531;1.030273;
1357859;0.026367;0.016602;1.050781;
1358009;0.031250;0.018555;1.081055;
1358149;0.028320;0.019531;1.083984;
1358289;0.029297;0.025391;1.104492;
1358429;0.026367;0.022461;1.101562;
1358569;0.026367;0.027344;1.107422;
1358709;0.024414;0.022461;1.104492;
1358849;0.027344;0.026367;1.105469;
1358989;0.022461;0.025391;1.104492;
1359129;0.026367;0.026367;1.097656;
1359265;0.024414;0.026367;1.095703;
1359414;0.029297;0.027344;1.098633;
1359574;0.026367;0.022461;1.081055;
1359724;0.024414;0.024414;1.088867;
1359865;0.026367;0.027344;1.085938;
1360009;0.025391;0.027344;1.088867;
1360149;0.026367;0.023438;1.086914;
1360289;0.025391;0.022461;1.084961;
1360429;0.026367;0.025391;1.086914;
1360569;0.029297;0.021484;1.093750;
1360719;0.025391;0.025391;1.090820;
1360859;0.027344;0.021484;1.096680;
1360999;0.026367;0.021484;1.099609;
1361149;0.025391;0.023438;1.088867;
1361289;0.023438;0.019531;1.085938;
1361429;0.025391;0.019531;1.083008;
1361579;0.023438;0.021484;1.081055;
1361719;0.024414;0.022461;1.069336;
1361859;0.021484;0.025391;1.064453;
1362004;0.021484;0.021484;1.063477;
1362144;0.022461;0.027344;1.058594;
1362296;0.023438;0.021484;1.042969;
1362445;0.021484;0.023438;1.034180;
1362599;0.020508;0.024414;1.033203;
1362739;0.019531;0.024414;1.011719;
1362879;0.018555;0.024414;1.023438;
1363019;0.019531;0.025391;1.006836;
1363159;0.022461;0.024414;1.003906;
1363299;0.017578;0.024414;1.003906;
1363439;0.018555;0.028320;0.996094;
1363579;0.018555;0.022461;0.997070;
1363719;0.018555;0.024414;0.997070;
1363859;0.017578;0.024414;0.998047;
1364009;0.024414;0.024414;0.994141;
1364149;0.019531;0.026367;1.001953;
1364289;0.018555;0.025391;0.991211;
1364439;0.018555;0.024414;1.001953;
1364574;0.020508;0.023438;1.001953;
1364724;0.021484;0.020508;1.004883;
1364874;0.020508;0.022461;1.008789;
1365034;0.018555;0.014648;1.012695;
1365194;0.019531;0.024414;1.026367;
1365339;0.020508;0.019531;1.017578;
1365479;0.019531;0.027344;1.013672;
1365619;0.018555;0.025391;1.015625;
1365759;0.019531;0.025391;1.003906;
1365909;0.018555;0.024414;1.025391;
1366049;0.022461;0.025391;1.011719;
1366189;0.016602;0.026367;0.998047;
1366329;0.017578;0.023438;1.002930;
1366469;0.014648;0.026367;0.988281;
1366609;0.013672;0.025391;0.990234;
1366759;0.012695;0.026367;0.987305;
1366899;0.016602;0.024414;0.992188;
1367039;0.018555;0.021484;0.996094;
1367189;0.013672;0.021484;1.001953;
1367334;0.017578;0.024414;1.006836;
1367484;0.013672;0.025391;1.008789;
1367634;0.017578;0.022461;1.015625;
1367785;0.014648;0.021484;1.020508;
1367929;0.015625;0.021484;1.018555;
1368079;0.016602;0.026367;1.014648;
1368219;0.017578;0.024414;1.012695;
1368359;0.015625;0.027344;1.008789;
1368499;0.019531;0.024414;1.015625;
1368639;0.017578;0.029297;1.013672;
1368789;0.018555;0.025391;1.013672;
1368929;0.013672;0.026367;1.013672;
1369069;0.015625;0.025391;1.004883;
1369209;0.017578;0.029297;1.021484;
1369349;0.013672;0.028320;1.001953;
1369499;0.013672;0.026367;1.002930;
1369639;0.015625;0.027344;1.008789;
1369779;0.013672;0.021484;1.013672;
1369926;0.017578;0.025391;1.026367;
1370074;0.014648;0.014648;1.029297;
1370225;0.019531;0.019531;1.043945;
1370384;0.017578;0.018555;1.060547;
1370529;0.020508;0.018555;1.078125;
1370669;0.019531;0.014648;1.080078;
1370819;0.021484;0.015625;1.100586;
1370959;0.021484;0.016602;1.093750;
1371099;0.022461;0.024414;1.122070;
1371249;0.021484;0.020508;1.120117;
1371389;0.019531;0.021484;1.117188;
1371529;0.022461;0.023438;1.113281;
1371669;0.017578;0.027344;1.114258;
1371809;0.016602;0.031250;1.109375;
1371949;0.010742;0.026367;1.104492;
1372089;0.011719;0.026367;1.085938;
1372229;0.010742;0.024414;1.081055;
1372369;0.008789;0.030273;1.066406;
1372506;0.008789;0.027344;1.062500;
1372654;0.007812;0.029297;1.049805;
1372804;0.006836;0.031250;1.041992;
1372945;0.005859;0.020508;1.031250;
1373099;0.011719;0.023438;1.034180;
1373239;0.006836;0.024414;1.023438;
1373389;0.008789;0.024414;1.016602;
1373529;0.008789;0.025391;1.022461;
1373669;0.005859;0.026367;1.017578;
1373809;0.010742;0.026367;1.007812;
1373949;0.007812;0.028320;1.007812;
1374089;0.008789;0.025391;1.020508;
1374229;0.007812;0.030273;1.024414;
1374379;0.006836;0.030273;1.022461;
1374519;0.006836;0.024414;1.026367;
1374659;0.011719;0.031250;1.041016;
1374799;0.009766;0.029297;1.049805;
1374939;0.008789;0.025391;1.047852;
1375079;0.008789;0.026367;1.051758;
1375224;0.008789;0.022461;1.060547;
1375366;0.010742;0.019531;1.043945;
1375515;0.010742;0.018555;1.045898;
1375664;0.012695;0.022461;1.053711;
1375819;0.011719;0.012695;1.058594;
1375959;0.007812;0.021484;1.078125;
1376099;0.013672;0.025391;1.059570;
1376239;0.008789;0.026367;1.062500;
1376379;0.010742;0.024414;1.052734;
1376519;0.009766;0.033203;1.040039;
1376659;0.006836;0.026367;1.041992;
1376799;0.008789;0.027344;1.033203;
1376939;0.006836;0.027344;1.030273;
1377079;0.009766;0.029297;1.017578;
1377219;0.009766;0.024414;1.016602;
1377359;0.009766;0.031250;1.006836;
1377499;0.011719;0.024414;1.010742;
1377639;0.010742;0.022461;1.005859;
1377774;0.012695;0.030273;0.997070;
1377924;0.011719;0.025391;1.006836;
1378084;0.011719;0.024414;0.990234;
1378225;0.013672;0.023438;0.987305;
1378379;0.012695;0.025391;0.985352;
1378519;0.014648;0.017578;0.983398;
1378659;0.016602;0.026367;1.000977;
1378799;0.014648;0.029297;0.990234;
1378939;0.017578;0.026367;1.003906;
1379079;0.015625;0.026367;1.014648;
1379229;0.012695;0.025391;1.018555;
1379369;0.015625;0.025391;1.028320;
1379509;0.013672;0.024414;1.025391;
1379649;0.017578;0.024414;1.042969;
1379789;0.018555;0.023438;1.034180;
1379929;0.018555;0.022461;1.045898;
1380069;0.021484;0.025391;1.036133;
1380209;0.019531;0.021484;1.019531;
1380345;0.019531;0.021484;1.019531;
1380494;0.019531;0.021484;1.012695;
1380645;0.019531;0.019531;0.996094;
1380795;0.018555;0.021484;1.000000;
1380959;0.016602;0.021484;0.976562;
1381099;0.016602;0.021484;0.986328;
1381239;0.017578;0.024414;0.990234;
1381379;0.016602;0.020508;0.978516;
1381519;0.015625;0.020508;0.992188;
1381659;0.015625;0.018555;0.992188;
1381799;0.017578;0.023438;0.988281;
1381949;0.016602;0.024414;1.003906;
1382089;0.015625;0.026367;1.000977;
1382229;0.017578;0.025391;1.013672;
1382379;0.020508;0.025391;1.019531;
1382519;0.015625;0.026367;1.015625;
1382659;0.018555;0.030273;1.014648;
1382809;0.017578;0.024414;1.016602;
1382944;0.014648;0.022461;1.021484;
1383094;0.017578;0.024414;1.031250;
1383244;0.014648;0.020508;1.019531;
1383394;0.015625;0.023438;1.037109;
1383544;0.015625;0.025391;1.019531;
1383709;0.012695;0.024414;1.027344;
1383849;0.016602;0.021484;1.041016;
1383989;0.016602;0.023438;1.037109;
1384139;0.017578;0.021484;1.046875;
1384279;0.014648;0.024414;1.036133;
1384419;0.013672;0.025391;1.037109;
1384569;0.016602;0.024414;1.046875;
1384709;0.012695;0.022461;1.035156;
1384849;0.017578;0.027344;1.043945;
1384999;0.013672;0.021484;1.033203;
1385139;0.015625;0.017578;1.038086;
1385279;0.013672;0.021484;1.033203;
1385419;0.014648;0.025391;1.032227;
1385559;0.013672;0.024414;1.023438;
1385699;0.014648;0.019531;1.019531;
1385826;0.014648;0.022461;1.030273;
1385964;0.016602;0.024414;1.042969;
1386114;0.014648;0.022461;1.032227;
1386275;0.016602;0.025391;1.021484;
1386424;0.016602;0.024414;1.018555;
1386579;0.013672;0.019531;1.039062;
1386719;0.018555;0.023438;1.044922;
1386869;0.020508;0.019531;1.027344;
1387009;0.016602;0.021484;1.029297;
1387149;0.018555;0.025391;1.017578;
1387289;0.020508;0.022461;1.031250;
1387429;0.020508;0.025391;1.041992;
1387569;0.020508;0.026367;1.042969;
1387709;0.017578;0.021484;1.045898;
1387849;0.019531;0.021484;1.046875;
1387989;0.015625;0.021484;1.045898;
1388139;0.016602;0.017578;1.038086;
1388279;0.017578;0.020508;1.045898;
1388429;0.017578;0.023438;1.047852;
1388565;0.015625;0.019531;1.046875;
1388704;0.017578;0.017578;1.041016;
1388854;0.014648;0.023438;1.032227;
1389005;0.018555;0.022461;1.041992;
1389169;0.015625;0.028320;1.030273;
1389309;0.016602;0.028320;1.027344;
1389459;0.021484;0.029297;1.037109;
1389609;0.017578;0.021484;1.031250;
1389749;0.018555;0.029297;1.042969;
1389899;0.018555;0.027344;1.033203;
1390039;0.018555;0.026367;1.028320;
1390179;0.016602;0.024414;1.031250;
1390329;0.017578;0.027344;1.036133;
1390469;0.012695;0.024414;1.034180;
1390609;0.015625;0.018555;1.046875;
1390749;0.014648;0.014648;1.034180;
1390889;0.019531;0.013672;1.035156;
1391029;0.016602;0.013672;1.037109;
1391175;0.016602;0.021484;1.037109;
1391325;0.018555;0.022461;1.045898;
1391475;0.015625;0.023438;1.035156;
1391624;0.017578;0.025391;1.033203;
1391779;0.016602;0.027344;1.033203;
1391919;0.013672;0.022461;1.030273;
1392059;0.018555;0.027344;1.036133;
1392199;0.014648;0.023438;1.017578;
1392349;0.012695;0.022461;1.015625;
1392489;0.012695;0.022461;1.024414;
1392629;0.016602;0.022461;1.026367;
1392769;0.016602;0.019531;1.024414;
1392909;0.017578;0.013672;1.027344;
1393049;0.015625;0.020508;1.014648;
1393189;0.016602;0.011719;1.021484;
1393329;0.013672;0.019531;1.018555;
1393479;0.015625;0.019531;1.018555;
1393619;0.015625;0.019531;1.017578;
1393754;0.011719;0.023438;1.014648;
1393905;0.013672;0.022461;1.001953;
1394055;0.013672;0.024414;1.018555;
1394205;0.012695;0.022461;1.004883;
1394359;0.011719;0.025391;1.019531;
1394499;0.012695;0.025391;1.016602;
1394639;0.012695;0.018555;1.023438;
1394789;0.012695;0.020508;1.027344;
1394929;0.011719;0.027344;1.008789;
1395069;0.010742;0.028320;1.028320;
1395209;0.007812;0.032227;1.019531;
1395349;0.004883;0.026367;1.031250;
1395499;0.001953;0.024414;1.021484;
1395639;0.000000;0.025391;1.023438;
1395779;-0.003906;0.017578;1.017578;
1395929;-0.011719;0.024414;1.010742;
1396069;-0.009766;0.024414;1.024414;
1396219;-0.010742;0.019531;1.028320;
1396356;-0.011719;0.021484;1.026367;
1396504;-0.007812;0.023438;1.025391;
1396654;-0.006836;0.019531;1.029297;
1396805;-0.004883;0.018555;1.032227;
1397002;-0.000977;0.020508;1.030273;
1397149;0.003906;0.014648;1.033203;
1397289;0.002930;0.008789;1.036133;
1397429;0.003906;0.018555;1.033203;
1397569;0.003906;0.016602;1.043945;
1397709;0.000000;0.020508;1.033203;
1397849;0.005859;0.020508;1.044922;
1397989;0.004883;0.023438;1.056641;
1398129;0.005859;0.022461;1.043945;
1398279;0.002930;0.027344;1.058594;
1398419;0.003906;0.023438;1.051758;
1398559;0.000000;0.024414;1.041992;
1398699;0.004883;0.022461;1.056641;
1398839;0.004883;0.025391;1.032227;
1398979;0.008789;0.030273;1.055664;
1399124;0.011719;0.031250;1.041016;
1399274;0.012695;0.023438;1.042969;
1399414;0.012695;0.031250;1.042969;
1399555;0.011719;0.020508;1.026367;
1399705;0.012695;0.025391;1.032227;
1399859;0.011719;0.021484;1.024414;
1399999;0.011719;0.031250;1.024414;
1400139;0.012695;0.022461;1.014648;
1400279;0.010742;0.032227;1.025391;
1400419;0.011719;0.027344;1.029297;
1400559;0.010742;0.020508;1.026367;
1400699;0.008789;0.025391;1.013672;
1400839;0.011719;0.020508;1.016602;
1400979;0.009766;0.019531;1.025391;
1401119;0.013672;0.020508;1.010742;
1401259;0.012695;0.019531;1.027344;
1401399;0.013672;0.020508;1.041992;
1401539;0.010742;0.019531;1.034180;
1401679;0.016602;0.024414;1.048828;
1401824;0.016602;0.016602;1.049805;
1401964;0.016602;0.020508;1.061523;
1402114;0.015625;0.025391;1.034180;
1402265;0.017578;0.030273;1.037109;
1402417;0.011719;0.029297;1.034180;
1402569;0.014648;0.030273;1.052734;
1402709;0.018555;0.015625;1.075195;
1402849;0.014648;0.022461;1.080078;
1402989;0.017578;0.027344;1.060547;
1403129;0.014648;0.024414;1.054688;
1403269;0.016602;0.020508;1.063477;
1403409;0.018555;0.016602;1.067383;
1403549;0.017578;0.020508;1.063477;
1403689;0.014648;0.015625;1.048828;
1403829;0.018555;0.026367;1.061523;
1403969;0.012695;0.019531;1.058594;
1404109;0.016602;0.016602;1.040039;
1404249;0.016602;0.019531;1.034180;
1404389;0.014648;0.030273;1.042969;
1404524;0.018555;0.022461;1.038086;
1404676;0.012695;0.025391;1.032227;
1404836;0.015625;0.017578;1.017578;
1404994;0.017578;0.014648;0.995117;
1405149;0.014648;0.014648;0.998047;
1405289;0.014648;0.014648;0.994141;
1405429;0.011719;0.023438;0.989258;
1405569;0.012695;0.035156;1.026367;
1405709;0.009766;0.032227;1.005859;
1405849;0.013672;0.016602;0.987305;
1405989;0.013672;0.012695;0.976562;
1406129;0.012695;0.036133;1.014648;
1406279;0.014648;0.026367;1.019531;
1406419;0.009766;0.023438;1.017578;
1406559;0.011719;0.024414;1.019531;
1406709;0.016602;0.023438;1.039062;
1406849;0.015625;0.014648;1.032227;
1406989;0.018555;0.017578;1.031250;
1407127;0.013672;0.026367;1.044922;
1407274;0.013672;0.021484;1.029297;
1407414;0.012695;0.019531;1.033203;
1407564;0.010742;0.028320;1.020508;
1407694;0.006836;0.021484;1.018555;
1407839;0.000977;0.015625;1.007812;
1407979;-0.000977;0.021484;1.008789;
1408119;0.000977;0.023438;1.015625;
1408259;-0.004883;0.021484;0.998047;
1408399;-0.006836;0.026367;1.020508;
1408539;-0.002930;0.030273;1.004883;
1408679;-0.003906;0.023438;0.992188;
1408819;-0.003906;0.027344;0.991211;
1408959;-0.007812;0.026367;0.981445;
1409099;-0.001953;0.026367;0.986328;
1409239;-0.003906;0.025391;0.984375;
1409379;-0.001953;0.029297;0.985352;
1409519;0.000977;0.023438;0.988281;
1409659;-0.004883;0.018555;0.997070;
1409795;-0.001953;0.022461;0.995117;
1409944;-0.001953;0.018555;1.001953;
1410074;-0.001953;0.018555;1.011719;
1410205;-0.002930;0.018555;1.012695;
1410355;-0.002930;0.027344;1.034180;
1410504;-0.002930;0.020508;1.049805;
1410659;-0.001953;0.026367;1.043945;
1410799;-0.003906;0.025391;1.032227;
1410939;-0.002930;0.021484;1.039062;
1411079;-0.000977;0.026367;1.044922;
1411219;-0.004883;0.024414;1.033203;
1411359;-0.002930;0.021484;1.010742;
1411499;-0.007812;0.018555;1.007812;
1411639;-0.002930;0.021484;1.009766;
1411779;-0.001953;0.016602;1.012695;
1411919;-0.007812;0.016602;0.993164;
1412059;-0.004883;0.023438;0.998047;
1412199;-0.004883;0.027344;0.997070;
1412339;-0.007812;0.023438;1.001953;
1412479;-0.006836;0.030273;0.992188;
1412614;-0.006836;0.026367;0.982422;
1412764;-0.010742;0.025391;0.978516;
1412924;-0.008789;0.026367;0.980469;
1413074;-0.006836;0.028320;0.989258;
1413229;-0.008789;0.026367;0.999023;
1413369;-0.006836;0.023438;1.012695;
1413509;-0.006836;0.022461;1.025391;
1413649;-0.004883;0.019531;1.035156;
1413789;-0.000977;0.022461;1.051758;
1413929;-0.001953;0.023438;1.062500;
1414069;-0.002930;0.018555;1.055664;
1414209;-0.002930;0.022461;1.064453;
1414349;-0.002930;0.020508;1.071289;
1414489;-0.000977;0.019531;1.072266;
1414629;0.000000;0.021484;1.080078;
1414779;-0.002930;0.018555;1.069336;
1414919;-0.001953;0.020508;1.070312;
1415059;-0.000977;0.019531;1.069336;
1415194;-0.000977;0.022461;1.047852;
1415345;-0.001953;0.025391;1.040039;
1415496;-0.001953;0.026367;1.043945;
1415639;-0.003906;0.022461;1.035156;
1415764;-0.003906;0.017578;1.021484;
1415904;-0.005859;0.016602;1.007812;
1416059;-0.003906;0.019531;1.002930;
1416199;-0.005859;0.018555;1.006836;
1416339;-0.007812;0.020508;1.019531;
1416479;-0.009766;0.020508;1.013672;
1416619;-0.006836;0.023438;1.023438;
1416759;-0.007812;0.023438;1.035156;
1416899;-0.006836;0.025391;1.041016;
1417039;-0.002930;0.021484;1.042969;
1417179;-0.004883;0.025391;1.056641;
1417329;-0.000977;0.020508;1.076172;
1417469;-0.005859;0.023438;1.066406;
1417609;-0.004883;0.020508;1.077148;
1417749;-0.006836;0.019531;1.052734;
1417889;-0.002930;0.022461;1.056641;
1418024;-0.001953;0.020508;1.057617;
1418169;0.001953;0.015625;1.046875;
1418306;0.002930;0.016602;1.041992;
1418449;0.004883;0.017578;1.020508;
1418584;0.006836;0.015625;1.008789;
1418725;0.004883;0.014648;0.995117;
1418874;0.002930;0.022461;0.981445;
1419014;0.006836;0.025391;0.958984;
1419174;0.006836;0.026367;0.966797;
1419329;0.000977;0.029297;0.967773;
1419469;0.005859;0.020508;0.979492;
1419609;0.004883;0.019531;1.012695;
1419759;0.003906;0.026367;1.043945;
1419899;0.004883;0.026367;1.041016;
1420039;0.006836;0.018555;1.033203;
1420179;0.002930;0.023438;1.048828;
1420319;0.008789;0.024414;1.069336;
1420469;0.011719;0.019531;1.110352;
1420609;0.010742;0.017578;1.143555;
1420749;0.013672;0.012695;1.167969;
1420889;0.008789;0.007812;1.136719;
1421029;0.018555;0.018555;1.134766;
1421179;0.006836;0.020508;1.107422;
1421314;0.007812;0.027344;1.075195;
1421464;0.006836;0.021484;1.028320;
1421615;0.000977;0.022461;0.971680;
1421764;0.003906;0.033203;0.967773;
1421919;0.005859;0.028320;0.957031;
1422059;0.011719;0.025391;0.965820;
1422199;0.018555;0.027344;0.961914;
1422339;0.016602;0.019531;0.961914;
1422479;0.015625;0.027344;0.971680;
1422619;0.018555;0.027344;0.979492;
1422769;0.027344;0.024414;1.004883;
1422909;0.028320;0.023438;1.001953;
1423049;0.035156;0.027344;1.038086;
1423189;0.037109;0.030273;1.061523;
1423329;0.041016;0.027344;1.076172;
1423469;0.042969;0.023438;1.066406;
1423619;0.048828;0.028320;1.082031;
1423759;0.049805;0.027344;1.088867;
1423894;0.050781;0.024414;1.087891;
1424046;0.054688;0.031250;1.084961;
1424194;0.058594;0.030273;1.082031;
1424345;0.058594;0.027344;1.069336;
1424499;0.056641;0.026367;1.048828;
1424634;0.059570;0.028320;1.050781;
1424779;0.058594;0.021484;1.018555;
1424914;0.060547;0.016602;1.011719;
1425059;0.059570;0.014648;0.991211;
1425199;0.061523;0.025391;0.959961;
1425339;0.061523;0.019531;0.959961;
1425479;0.062500;0.018555;0.929688;
1425619;0.066406;0.024414;0.939453;
1425759;0.065430;0.027344;0.916016;
1425899;0.066406;0.020508;0.922852;
1426039;0.070312;0.027344;0.935547;
1426189;0.071289;0.019531;0.958008;
1426329;0.078125;0.020508;0.986328;
1426469;0.077148;0.024414;1.014648;
1426609;0.083008;0.017578;1.037109;
1426749;0.084961;0.022461;1.070312;
1426889;0.088867;0.021484;1.093750;
1427024;0.090820;0.026367;1.098633;
1427174;0.094727;0.020508;1.109375;
1427315;0.095703;0.027344;1.131836;
1427459;0.094727;0.012695;1.129883;
1427594;0.095703;0.018555;1.122070;
1427734;0.093750;0.018555;1.116211;
1427884;0.094727;0.023438;1.086914;
1428039;0.092773;0.020508;1.041016;
1428179;0.087891;0.022461;1.028320;
1428319;0.083984;0.014648;0.993164;
1428459;0.084961;0.013672;0.983398;
1428599;0.086914;0.011719;0.982422;
1428749;0.084961;0.014648;0.978516;
1428889;0.087891;0.020508;0.978516;
1429029;0.085938;0.021484;0.979492;
1429179;0.081055;0.021484;0.988281;
1429319;0.083008;0.025391;1.003906;
1429459;0.083984;0.024414;1.011719;
1429609;0.085938;0.032227;1.028320;
1429749;0.083984;0.023438;1.021484;
1429889;0.082031;0.018555;1.022461;
1430030;0.082031;0.014648;1.024414;
1430175;0.082031;0.017578;1.026367;
1430314;0.084961;0.024414;1.015625;
1430465;0.085938;0.022461;1.029297;
1430615;0.087891;0.012695;1.027344;
1430779;0.083984;0.018555;1.033203;
1430929;0.084961;0.011719;1.046875;
1431069;0.085938;0.017578;1.047852;
1431209;0.084961;0.016602;1.058594;
1431359;0.082031;0.020508;1.051758;
1431499;0.083008;0.016602;1.058594;
1431649;0.081055;0.021484;1.051758;
1431789;0.082031;0.025391;1.047852;
1431929;0.071289;0.027344;1.035156;
1432069;0.068359;0.020508;1.033203;
1432209;0.064453;0.031250;1.015625;
1432349;0.056641;0.022461;0.996094;
1432489;0.059570;0.022461;1.011719;
1432629;0.057617;0.022461;1.007812;
1432767;0.056641;0.023438;1.007812;
1432915;0.055664;0.014648;1.005859;
1433074;0.056641;0.023438;1.025391;
1433224;0.059570;0.024414;1.042969;
1433369;0.061523;0.022461;1.059570;
1433519;0.060547;0.024414;1.068359;
1433659;0.061523;0.023438;1.057617;
1433799;0.058594;0.021484;1.070312;
1433939;0.059570;0.026367;1.072266;
1434079;0.062500;0.030273;1.079102;
1434219;0.059570;0.024414;1.058594;
1434359;0.061523;0.023438;1.070312;
1434499;0.063477;0.022461;1.042969;
1434639;0.058594;0.024414;1.042969;
1434779;0.062500;0.023438;1.024414;
1434919;0.060547;0.027344;1.033203;
1435069;0.063477;0.026367;1.024414;
1435209;0.063477;0.025391;1.013672;
1435344;0.064453;0.020508;1.012695;
1435506;0.067383;0.021484;1.000977;
1435664;0.075195;0.025391;0.998047;
1435814;0.074219;0.018555;0.995117;
1435959;0.070312;0.017578;1.000977;
1436109;0.072266;0.016602;1.007812;
1436249;0.073242;0.017578;1.009766;
1436389;0.074219;0.017578;1.019531;
1436529;0.075195;0.014648;1.029297;
1436669;0.076172;0.017578;1.016602;
1436819;0.077148;0.026367;1.023438;
1436959;0.075195;0.015625;1.024414;
1437099;0.077148;0.025391;1.028320;
1437249;0.078125;0.025391;1.035156;
1437389;0.076172;0.027344;1.028320;
1437529;0.077148;0.026367;1.053711;
1437669;0.076172;0.030273;1.050781;
1437809;0.081055;0.030273;1.051758;
1437944;0.083008;0.022461;1.055664;
1438096;0.080078;0.028320;1.047852;
1438239;0.079102;0.022461;1.057617;
1438376;0.080078;0.021484;1.056641;
1438535;0.079102;0.023438;1.058594;
1438694;0.079102;0.020508;1.065430;
1438849;0.080078;0.017578;1.054688;
1438989;0.082031;0.012695;1.072266;
1439129;0.076172;0.022461;1.090820;
1439269;0.083008;0.015625;1.116211;
1439409;0.079102;0.015625;1.150391;
1439559;0.082031;0.015625;1.203125;
1439699;0.088867;0.017578;1.271484;
1439839;0.088867;0.015625;1.349609;
1439989;0.094727;0.020508;1.423828;
1440129;0.099609;0.014648;1.503906;
1440269;0.106445;0.013672;1.590820;
1440419;0.109375;0.015625;1.654297;
1440559;0.114258;0.021484;1.710938;
1440699;0.114258;0.012695;1.732422;
1440835;0.118164;0.013672;1.764648;
1440984;0.125977;0.017578;1.790039;
1441135;0.121094;0.013672;1.809570;
1441285;0.123047;0.013672;1.822266;
1441446;0.125977;0.013672;1.853516;
1441599;0.123047;0.008789;1.858398;
1441739;0.124023;0.011719;1.855469;
1441879;0.125000;0.016602;1.850586;
1442019;0.125977;0.009766;1.841797;
1442169;0.123047;0.018555;1.849609;
1442309;0.124023;0.014648;1.850586;
1442449;0.126953;0.013672;1.857422;
1442589;0.125977;0.017578;1.847656;
1442729;0.124023;0.013672;1.859375;
1442869;0.121094;0.020508;1.833984;
1443009;0.125977;0.017578;1.830078;
1443149;0.121094;0.021484;1.823242;
1443299;0.119141;0.016602;1.810547;
1443439;0.122070;0.014648;1.810547;
1443579;0.120117;0.016602;1.804688;
1443734;0.121094;0.020508;1.816406;
1443894;0.125000;0.012695;1.813477;
1444044;0.123047;0.022461;1.820312;
1444189;0.125977;0.011719;1.829102;
1444329;0.126953;0.007812;1.817383;
1444469;0.126953;0.010742;1.830078;
1444609;0.126953;0.010742;1.829102;
1444759;0.129883;0.011719;1.846680;
1444899;0.132812;0.015625;1.826172;
1445039;0.127930;0.022461;1.857422;
1445179;0.130859;0.015625;1.845703;
1445319;0.131836;0.017578;1.852539;
1445469;0.132812;0.017578;1.865234;
1445609;0.133789;0.012695;1.865234;
1445749;0.135742;0.013672;1.861328;
1445889;0.130859;0.015625;1.875000;
1446029;0.135742;0.012695;1.858398;
1446166;0.131836;0.004883;1.857422;
1446315;0.131836;0.009766;1.848633;
1446464;0.134766;0.006836;1.836914;
1446605;0.135742;0.008789;1.842773;
1446744;0.131836;0.010742;1.840820;
1446899;0.133789;0.008789;1.838867;
1447039;0.135742;0.009766;1.831055;
1447189;0.135742;0.019531;1.816406;
1447329;0.137695;0.022461;1.835938;
1447469;0.138672;0.022461;1.849609;
1447619;0.139648;0.026367;1.843750;
1447759;0.141602;0.021484;1.841797;
1447899;0.142578;0.007812;1.838867;
1448039;0.142578;0.026367;1.854492;
1448179;0.145508;0.014648;1.848633;
1448319;0.147461;0.016602;1.852539;
1448459;0.144531;0.017578;1.853516;
1448599;0.149414;0.031250;1.857422;
1448739;0.150391;0.015625;1.853516;
1448885;0.147461;0.017578;1.860352;
1449035;0.151367;0.017578;1.859375;
1449185;0.153320;0.012695;1.857422;
1449319;0.150391;0.004883;1.849609;
1449454;0.158203;0.006836;1.855469;
1449605;0.154297;0.000977;1.852539;
1449759;0.157227;0.009766;1.848633;
1449899;0.158203;0.005859;1.835938;
1450049;0.156250;0.004883;1.843750;
1450189;0.154297;0.004883;1.823242;
1450329;0.162109;0.011719;1.823242;
1450469;0.157227;0.007812;1.812500;
1450609;0.158203;0.007812;1.816406;
1450749;0.158203;0.011719;1.818359;
1450889;0.159180;0.013672;1.818359;
1451029;0.158203;0.011719;1.804688;
1451169;0.161133;0.019531;1.808594;
1451309;0.157227;0.013672;1.793945;
1451449;0.164062;0.023438;1.822266;
1451589;0.164062;0.024414;1.836914;
1451724;0.166992;0.028320;1.856445;
1451864;0.165039;0.027344;1.835938;
1452009;0.166992;0.021484;1.827148;
1452144;0.167969;0.017578;1.811523;
1452294;0.166016;0.017578;1.817383;
1452444;0.168945;0.013672;1.801758;
1452599;0.173828;0.003906;1.803711;
1452739;0.167969;0.013672;1.804688;
1452879;0.173828;0.013672;1.803711;
1453019;0.175781;0.002930;1.799805;
1453159;0.175781;0.006836;1.793945;
1453309;0.176758;0.007812;1.801758;
1453449;0.179688;0.007812;1.809570;
1453589;0.180664;0.004883;1.795898;
1453739;0.178711;0.004883;1.802734;
1453879;0.184570;0.015625;1.817383;
1454019;0.183594;0.008789;1.807617;
1454159;0.182617;0.010742;1.808594;
1454299;0.186523;0.017578;1.814453;
1454439;0.186523;0.010742;1.797852;
1454574;0.187500;0.005859;1.784180;
1454724;0.186523;0.009766;1.765625;
1454874;0.189453;0.001953;1.740234;
1455024;0.186523;0.002930;1.724609;
1455179;0.183594;0.019531;1.713867;
1455319;0.184570;0.016602;1.707031;
1455459;0.184570;0.022461;1.712891;
1455599;0.185547;0.017578;1.687500;
1455739;0.188477;0.022461;1.688477;
1455879;0.188477;0.019531;1.684570;
1456019;0.191406;0.027344;1.690430;
1456159;0.189453;0.019531;1.695312;
1456299;0.198242;0.021484;1.712891;
1456439;0.197266;0.014648;1.724609;
1456579;0.197266;0.021484;1.718750;
1456729;0.199219;0.013672;1.726562;
1456879;0.201172;0.016602;1.732422;
1457019;0.201172;0.007812;1.728516;
1457154;0.203125;0.011719;1.715820;
1457304;0.199219;0.010742;1.687500;
1457454;0.199219;0.018555;1.667969;
1457604;0.201172;0.014648;1.642578;
1457759;0.200195;0.016602;1.643555;
1457899;0.200195;0.013672;1.613281;
1458039;0.199219;0.011719;1.601562;
1458179;0.202148;0.005859;1.580078;
1458319;0.205078;0.004883;1.576172;
1458459;0.201172;0.008789;1.568359;
1458599;0.195312;-0.000977;1.549805;
1458739;0.193359;0.007812;1.540039;
1458879;0.188477;0.007812;1.530273;
1459019;0.181641;0.012695;1.519531;
1459159;0.176758;0.014648;1.498047;
1459299;0.170898;0.019531;1.482422;
1459439;0.163086;0.014648;1.459961;
1459579;0.157227;0.022461;1.449219;
1459715;0.148438;0.022461;1.426758;
1459865;0.141602;0.023438;1.407227;
1460014;0.132812;0.022461;1.379883;
1460167;0.122070;0.025391;1.332031;
1460314;0.112305;0.019531;1.273438;
1460459;0.101562;0.023438;1.206055;
1460599;0.084961;0.028320;1.132812;
1460749;0.070312;0.031250;1.007812;
1460889;0.060547;0.032227;0.933594;
1461029;0.043945;0.035156;0.837891;
1461169;0.040039;0.029297;0.740234;
1461309;0.028320;0.026367;0.626953;
1461459;0.019531;0.028320;0.531250;
1461599;0.013672;0.027344;0.450195;
1461749;0.009766;0.024414;0.386719;
1461889;0.007812;0.026367;0.325195;
1462029;0.006836;0.029297;0.253906;
1462179;0.003906;0.022461;0.187500;
1462321;0.000977;0.021484;0.164062;
1462465;0.012695;0.023438;0.242188;
1462614;-0.001953;0.023438;0.103516;
1462765;-0.001953;0.026367;0.089844;
1462897;0.000977;0.019531;0.067383;
1463059;-0.001953;0.024414;0.077148;
1463199;-0.002930;0.023438;0.064453;
1463339;-0.005859;0.024414;0.066406;
1463489;-0.005859;0.022461;0.057617;
1463629;-0.008789;0.030273;0.060547;
1463769;0.000000;0.027344;0.052734;
1463909;-0.002930;0.026367;0.075195;
1464049;-0.001953;0.025391;0.075195;
1464189;-0.004883;0.024414;0.076172;
1464329;-0.001953;0.024414;0.068359;
1464479;-0.005859;0.025391;0.051758;
1464619;-0.004883;0.026367;0.053711;
1464759;-0.001953;0.022461;0.062500;
1464899;-0.008789;0.027344;0.056641;
1465035;-0.007812;0.023438;0.041992;
1465164;-0.008789;0.024414;0.041992;
1465314;-0.004883;0.026367;0.050781;
1465464;-0.004883;0.025391;0.037109;
1465624;-0.005859;0.023438;0.029297;
1465779;-0.007812;0.024414;0.032227;
1465919;-0.008789;0.022461;0.036133;
1466059;-0.007812;0.022461;0.034180;
1466199;-0.009766;0.023438;0.020508;
1466339;-0.009766;0.026367;0.032227;
1466479;-0.008789;0.020508;0.021484;
1466629;-0.009766;0.025391;0.019531;
1466769;-0.010742;0.027344;0.010742;
1466919;-0.006836;0.024414;0.012695;
1467059;-0.008789;0.024414;0.011719;
1467199;-0.010742;0.026367;-0.001953;
1467339;-0.011719;0.027344;-0.012695;
1467479;-0.009766;0.024414;-0.000977;
1467619;-0.011719;0.025391;-0.001953;
1467754;-0.011719;0.027344;0.000977;
1467904;-0.010742;0.026367;-0.002930;
1468054;-0.011719;0.027344;-0.006836;
1468204;-0.012695;0.028320;0.004883;
1468354;-0.010742;0.026367;0.008789;
1468499;-0.013672;0.023438;0.007812;
1468649;-0.009766;0.025391;0.009766;
1468789;-0.013672;0.025391;0.006836;
1468929;-0.013672;0.028320;0.012695;
1469069;-0.014648;0.025391;0.015625;
1469209;-0.012695;0.026367;0.017578;
1469349;-0.011719;0.024414;0.019531;
1469489;-0.011719;0.027344;0.026367;
1469629;-0.014648;0.025391;0.023438;
1469779;-0.013672;0.024414;0.022461;
1469919;-0.012695;0.023438;0.026367;
1470059;-0.013672;0.025391;0.029297;
1470209;-0.011719;0.024414;0.033203;
1470349;-0.011719;0.024414;0.029297;
1470495;-0.010742;0.026367;0.030273;
1470645;-0.013672;0.026367;0.035156;
1470784;-0.012695;0.023438;0.026367;
1470934;-0.013672;0.021484;0.033203;
1471089;-0.011719;0.020508;0.030273;
1471229;-0.013672;0.023438;0.023438;
1471369;-0.013672;0.022461;0.031250;
1471509;-0.013672;0.026367;0.027344;
1471649;-0.009766;0.030273;0.028320;
1471789;-0.015625;0.024414;0.028320;
1471929;-0.013672;0.023438;0.022461;
1472069;-0.013672;0.022461;0.025391;
1472204;-0.012695;0.023438;0.033203;
1472359;-0.012695;0.020508;0.028320;
1472499;-0.012695;0.024414;0.026367;
1472639;-0.010742;0.026367;0.029297;
1472839;-0.008789;0.024414;0.025391;
1473049;-0.014648;0.019531;0.020508;
1473265;-0.010742;0.020508;0.025391;
1473494;-0.011719;0.025391;0.015625;
1473729;-0.013672;0.021484;0.022461;
1473944;-0.011719;0.022461;0.016602;
1474169;-0.012695;0.024414;0.008789;
1474379;-0.011719;0.021484;0.005859;
1474589;-0.011719;0.023438;0.007812;
1474799;-0.011719;0.026367;0.005859;
1475009;-0.011719;0.025391;0.000000;
1475229;-0.011719;0.024414;0.002930;
1475439;-0.010742;0.023438;0.002930;
1475649;-0.013672;0.025391;-0.003906;
1475859;-0.013672;0.024414;0.001953;
1476069;-0.013672;0.024414;-0.007812;
1476275;-0.015625;0.024414;-0.008789;
1476489;-0.013672;0.024414;-0.000977;
1476699;-0.012695;0.024414;0.003906;
1476909;-0.015625;0.026367;0.001953;
1477124;-0.014648;0.021484;0.003906;
1477345;-0.018555;0.023438;0.004883;
1477554;-0.013672;0.026367;0.001953;
1477789;-0.017578;0.023438;0.012695;
1477999;-0.016602;0.023438;0.017578;
1478219;-0.015625;0.028320;0.007812;
1478429;-0.016602;0.023438;0.007812;
1478649;-0.017578;0.023438;0.010742;
1478856;-0.018555;0.024414;0.008789;
1479089;-0.018555;0.023438;0.013672;
1479299;-0.021484;0.022461;0.010742;
1479509;-0.018555;0.025391;0.012695;
1479729;-0.021484;0.023438;0.000977;
1479939;-0.018555;0.023438;0.012695;
1480149;-0.019531;0.023438;0.004883;
1480359;-0.022461;0.020508;0.003906;
1480579;-0.022461;0.021484;0.002930;
1480784;-0.021484;0.025391;0.012695;
1480994;-0.016602;0.022461;0.066406;
1481225;-0.008789;0.020508;0.116211;
1481449;-0.014648;0.024414;0.094727;
1481659;-0.027344;0.028320;0.016602;
1481869;-0.025391;0.023438;0.012695;
1482089;-0.026367;0.025391;0.006836;
1482299;-0.027344;0.021484;0.000000;
1482509;-0.026367;0.023438;0.006836;
1482719;-0.029297;0.026367;-0.004883;
1482929;-0.027344;0.024414;0.003906;
1483139;-0.027344;0.022461;0.000000;
1483349;-0.030273;0.025391;-0.000977;
1483569;-0.029297;0.023438;-0.007812;
1483779;-0.032227;0.025391;-0.010742;
1483989;-0.031250;0.025391;-0.008789;
1484209;-0.031250;0.022461;-0.004883;
1484418;-0.034180;0.025391;-0.001953;
1484634;-0.034180;0.023438;0.013672;
1484864;-0.039062;0.026367;0.039062;
1485079;-0.043945;0.030273;0.079102;
1485299;-0.042969;0.029297;0.196289;
1485509;-0.040039;0.028320;0.330078;
1485719;-0.030273;0.024414;0.508789;
1485929;-0.020508;0.023438;0.664062;
1486139;-0.009766;0.029297;0.807617;
1486349;0.000000;0.028320;0.937500;
1486559;0.012695;0.025391;1.073242;
1486769;0.025391;0.020508;1.174805;
1486979;0.040039;0.027344;1.265625;
1487189;0.049805;0.018555;1.355469;
1487399;0.052734;0.017578;1.412109;
1487609;0.056641;0.019531;1.446289;
1487819;0.055664;0.017578;1.484375;
1488036;0.055664;0.019531;1.531250;
1488254;0.063477;0.019531;1.583008;
1488489;0.061523;0.020508;1.622070;
1488699;0.062500;0.017578;1.625977;
1488909;0.059570;0.018555;1.641602;
1489119;0.062500;0.023438;1.639648;
1489329;0.050781;0.024414;1.666992;
1489539;0.050781;0.020508;1.664062;
1489749;0.053711;0.030273;1.686523;
1489959;0.048828;0.033203;1.667969;
1490179;0.044922;0.023438;1.698242;
1490389;0.050781;0.028320;1.727539;
1490599;0.048828;0.030273;1.779297;
1490809;0.044922;0.022461;1.791016;
1491029;0.046875;0.024414;1.843750;
1491241;0.050781;0.030273;1.863281;
1491464;0.060547;0.028320;1.901367;
1491704;0.051758;0.015625;1.897461;
1491929;0.054688;0.016602;1.916992;
1492139;0.054688;0.029297;1.937500;
1492349;0.044922;0.022461;1.928711;
1492559;0.046875;0.000977;1.920898;
1492769;0.045898;0.022461;1.956055;
1492979;0.040039;0.027344;1.934570;
1493189;0.043945;0.020508;1.933594;
1493399;0.042969;0.013672;1.894531;
1493609;0.036133;0.013672;1.899414;
1493829;0.031250;0.006836;1.853516;
1494039;0.026367;0.017578;1.825195;
1494259;0.019531;0.015625;1.799805;
1494469;0.020508;0.021484;1.790039;
1494679;0.010742;0.027344;1.773438;
1494894;0.009766;0.022461;1.776367;
1495124;0.007812;0.027344;1.790039;
1495369;0.013672;0.020508;1.813477;
1495589;0.016602;0.011719;1.836914;
1495799;0.014648;0.016602;1.854492;
1496009;0.009766;0.012695;1.875000;
1496219;0.013672;0.003906;1.865234;
1496429;0.010742;0.002930;1.864258;
1496639;0.010742;-0.002930;1.854492;
1496849;0.006836;0.000977;1.845703;
1497059;0.003906;0.000977;1.821289;
1497269;0.000977;0.011719;1.828125;
1497479;-0.001953;0.010742;1.816406;
1497689;-0.002930;0.016602;1.812500;
1497899;-0.005859;0.021484;1.808594;
1498111;-0.007812;0.014648;1.809570;
1498334;-0.005859;0.005859;1.815430;
1498574;-0.004883;0.006836;1.837891;
1498809;-0.004883;0.012695;1.856445;
1499019;-0.005859;0.009766;1.866211;
1499229;-0.006836;0.011719;1.875977;
1499449;-0.008789;0.010742;1.875977;
1499659;-0.007812;0.013672;1.886719;
1499869;-0.010742;0.009766;1.884766;
1500079;-0.009766;0.017578;1.869141;
1500299;-0.009766;0.015625;1.858398;
1500519;-0.014648;0.010742;1.835938;
1500729;-0.017578;0.020508;1.819336;
1500939;-0.021484;0.020508;1.782227;
1501149;-0.021484;0.022461;1.768555;
1501359;-0.027344;0.020508;1.732422;
1501569;-0.026367;0.019531;1.715820;
1501786;-0.029297;0.023438;1.689453;
1502014;-0.030273;0.019531;1.675781;
1502249;-0.033203;0.013672;1.663086;
1502459;-0.036133;0.011719;1.660156;
1502669;-0.035156;0.012695;1.646484;
1502879;-0.036133;0.014648;1.647461;
1503089;-0.036133;0.018555;1.641602;
1503299;-0.039062;0.021484;1.633789;
1503509;-0.039062;0.019531;1.633789;
1503729;-0.041016;0.020508;1.604492;
1503939;-0.045898;0.016602;1.590820;
1504149;-0.043945;0.022461;1.574219;
1504359;-0.046875;0.023438;1.551758;
1504579;-0.050781;0.023438;1.516602;
1504799;-0.052734;0.025391;1.477539;
1505005;-0.054688;0.021484;1.436523;
1505224;-0.058594;0.023438;1.403320;
1505454;-0.059570;0.012695;1.357422;
1505679;-0.066406;0.015625;1.316406;
1505889;-0.065430;0.017578;1.293945;
1506099;-0.066406;0.023438;1.265625;
1506309;-0.067383;0.021484;1.244141;
1506519;-0.068359;0.020508;1.227539;
1506729;-0.067383;0.021484;1.217773;
1506939;-0.071289;0.021484;1.206055;
1507149;-0.073242;0.022461;1.189453;
1507359;-0.073242;0.023438;1.182617;
1507569;-0.072266;0.020508;1.178711;
1507779;-0.073242;0.019531;1.163086;
1507989;-0.075195;0.027344;1.129883;
1508199;-0.078125;0.018555;1.107422;
1508409;-0.080078;0.018555;1.076172;
1508615;-0.079102;0.023438;1.069336;
1508825;-0.081055;0.023438;1.061523;
1509047;-0.077148;0.022461;1.062500;
1509264;-0.075195;0.021484;1.075195;
1509499;-0.077148;0.022461;1.093750;
1509709;-0.074219;0.020508;1.119141;
1509919;-0.073242;0.022461;1.142578;
1510129;-0.071289;0.023438;1.163086;
1510339;-0.072266;0.025391;1.173828;
1510549;-0.071289;0.022461;1.191406;
1510759;-0.072266;0.024414;1.180664;
1510969;-0.070312;0.019531;1.165039;
1511179;-0.073242;0.022461;1.146484;
1511389;-0.074219;0.029297;1.145508;
1511599;-0.075195;0.025391;1.116211;
1511819;-0.074219;0.026367;1.115234;
1512029;-0.077148;0.023438;1.104492;
1512239;-0.076172;0.021484;1.107422;
1512449;-0.074219;0.017578;1.122070;
1512664;-0.073242;0.015625;1.125977;
1512894;-0.072266;0.019531;1.133789;
1513129;-0.075195;0.018555;1.154297;
1513339;-0.074219;0.021484;1.156250;
1513549;-0.072266;0.018555;1.149414;
1513759;-0.069336;0.024414;1.151367;
1513969;-0.073242;0.022461;1.150391;
1514179;-0.073242;0.021484;1.144531;
1514389;-0.070312;0.023438;1.141602;
1514609;-0.069336;0.021484;1.137695;
1514819;-0.067383;0.021484;1.139648;
1515029;-0.063477;0.021484;1.133789;
1515239;-0.064453;0.020508;1.125000;
1515449;-0.062500;0.023438;1.126953;
1515669;-0.060547;0.020508;1.127930;
1515879;-0.055664;0.019531;1.113281;
1516084;-0.052734;0.015625;1.111328;
1516314;-0.052734;0.022461;1.099609;
1516544;-0.046875;0.027344;1.093750;
1516769;-0.044922;0.024414;1.089844;
1516979;-0.034180;0.026367;1.095703;
1517199;-0.027344;0.027344;1.076172;
1517409;-0.024414;0.025391;1.058594;
1517619;-0.020508;0.024414;1.057617;
1517829;-0.018555;0.023438;1.049805;
1518049;-0.017578;0.025391;1.049805;
1518259;-0.018555;0.022461;1.060547;
1518479;-0.017578;0.019531;1.063477;
1518689;-0.013672;0.021484;1.055664;
1518899;-0.014648;0.018555;1.049805;
1519119;-0.007812;0.014648;1.056641;
1519329;-0.006836;0.015625;1.037109;
1519539;0.000000;0.017578;1.042969;
1519744;-0.000977;0.022461;1.041016;
1519975;0.001953;0.021484;1.038086;
1520209;0.000977;0.022461;1.047852;
1520419;0.002930;0.024414;1.061523;
1520629;0.008789;0.025391;1.082031;
1520839;0.004883;0.020508;1.087891;
1521049;0.008789;0.020508;1.097656;
1521259;0.011719;0.016602;1.097656;
1521469;0.011719;0.017578;1.101562;
1521679;0.012695;0.023438;1.074219;
1521889;0.013672;0.020508;1.054688;
1522099;0.009766;0.022461;1.027344;
1522309;0.008789;0.023438;1.034180;
1522519;0.009766;0.022461;1.021484;
1522729;0.010742;0.021484;1.015625;
1522947;0.008789;0.024414;1.015625;
1523174;0.006836;0.018555;1.020508;
1523394;0.006836;0.026367;1.024414;
1523629;0.008789;0.023438;1.026367;
1523839;0.013672;0.018555;1.026367;
1524049;0.012695;0.021484;1.010742;
1524259;0.010742;0.021484;0.994141;
1524479;0.006836;0.024414;0.991211;
1524699;0.009766;0.018555;0.972656;
1524909;0.004883;0.013672;0.955078;
1525119;0.004883;0.013672;0.946289;
1525329;0.004883;0.014648;0.969727;
1525539;0.007812;0.012695;1.000977;
1525749;0.007812;0.018555;1.024414;
1525959;0.006836;0.018555;1.049805;
1526169;0.008789;0.021484;1.067383;
1526379;0.008789;0.022461;1.083008;
1526584;0.009766;0.020508;1.078125;
1526815;0.009766;0.022461;1.078125;
1527044;0.008789;0.024414;1.066406;
1527269;0.008789;0.020508;1.060547;
1527479;0.005859;0.018555;1.034180;
1527689;0.006836;0.019531;1.032227;
1527899;0.007812;0.018555;1.020508;
1528109;0.007812;0.020508;1.029297;
1528319;0.007812;0.013672;1.033203;
1528529;0.005859;0.017578;1.057617;
1528739;0.006836;0.014648;1.073242;
1528959;0.007812;0.014648;1.080078;
1529169;0.009766;0.014648;1.087891;
1529379;0.009766;0.020508;1.103516;
1529589;0.006836;0.021484;1.089844;
1529809;0.009766;0.021484;1.076172;
1530019;0.003906;0.018555;1.053711;
1530224;0.004883;0.025391;1.047852;
1530454;0.002930;0.026367;1.032227;
1530684;0.004883;0.025391;1.021484;
1530899;0.004883;0.030273;1.015625;
1531109;0.001953;0.026367;1.025391;
1531319;0.000977;0.027344;1.017578;
1531529;0.001953;0.024414;1.031250;
1531739;0.001953;0.021484;1.015625;
1531949;0.004883;0.021484;1.028320;
1532159;0.008789;0.021484;1.043945;
1532369;0.005859;0.019531;1.037109;
1532579;0.007812;0.022461;1.056641;
1532789;0.004883;0.017578;1.046875;
1532999;0.005859;0.022461;1.041992;
1533209;0.007812;0.024414;1.027344;
1533429;0.008789;0.020508;1.033203;
1533649;0.006836;0.021484;1.030273;
1533855;0.004883;0.020508;1.029297;
1534097;0.006836;0.023438;1.042969;
1534334;0.004883;0.027344;1.041016;
1534559;0.007812;0.023438;1.043945;
1534779;0.008789;0.023438;1.044922;
1534989;0.006836;0.027344;1.060547;
1535199;0.008789;0.024414;1.073242;
1535419;0.006836;0.026367;1.082031;
1535629;0.005859;0.026367;1.091797;
1535839;0.005859;0.024414;1.079102;
1536049;0.006836;0.026367;1.071289;
1536259;0.005859;0.025391;1.071289;
1536469;0.009766;0.016602;1.075195;
1536679;0.006836;0.023438;1.078125;
1536889;0.008789;0.022461;1.067383;
1537099;0.007812;0.019531;1.070312;
1537319;0.007812;0.015625;1.056641;
1537535;0.008789;0.019531;1.041016;
1537775;0.009766;0.017578;1.033203;
1537999;0.009766;0.017578;1.047852;
1538209;0.006836;0.017578;1.023438;
1538419;0.004883;0.023438;1.017578;
1538629;0.006836;0.019531;0.975586;
1538839;0.003906;0.021484;0.965820;
1539049;0.004883;0.019531;0.941406;
1539259;0.002930;0.023438;0.914062;
1539469;0.002930;0.019531;0.902344;
1539679;0.000000;0.023438;0.907227;
1539899;0.001953;0.028320;0.938477;
1540109;0.000000;0.025391;0.968750;
1540319;0.005859;0.026367;1.023438;
1540529;0.009766;0.024414;1.027344;
1540745;0.007812;0.029297;1.035156;
1540964;0.007812;0.028320;1.042969;
1541184;0.006836;0.022461;1.053711;
1541419;0.005859;0.024414;1.054688;
1541629;0.007812;0.022461;1.068359;
1541839;0.007812;0.026367;1.072266;
1542049;0.007812;0.017578;1.083008;
1542259;0.005859;0.021484;1.098633;
1542479;0.009766;0.024414;1.096680;
1542689;0.009766;0.019531;1.110352;
1542899;0.009766;0.019531;1.097656;
1543109;0.008789;0.021484;1.098633;
1543319;0.010742;0.023438;1.098633;
1543539;0.008789;0.019531;1.087891;
1543749;0.005859;0.020508;1.073242;
1543959;0.006836;0.015625;1.041016;
1544164;0.006836;0.017578;1.026367;
1544394;0.002930;0.017578;0.999023;
1544624;0.004883;0.018555;0.994141;
1544869;0.002930;0.023438;0.989258;
1545079;0.000977;0.025391;0.967773;
1545289;0.000977;0.020508;0.955078;
1545499;0.004883;0.025391;0.954102;
1545719;-0.000977;0.022461;0.952148;
1545929;0.000977;0.022461;0.966797;
1546139;-0.003906;0.024414;0.965820;
1546349;0.000977;0.022461;0.974609;
1546559;-0.000977;0.020508;0.981445;
1546769;0.002930;0.021484;0.975586;
1546979;0.003906;0.017578;0.978516;
1547189;0.001953;0.022461;0.972656;
1547409;0.002930;0.025391;0.986328;
1547619;0.000000;0.019531;0.983398;
1547835;0.000000;0.021484;0.995117;
1548065;0.001953;0.021484;1.003906;
1548299;0.000977;0.016602;1.021484;
1548509;0.004883;0.022461;1.058594;
1548719;0.003906;0.014648;1.070312;
1548929;0.002930;0.025391;1.088867;
1549139;0.003906;0.026367;1.099609;
1549349;0.003906;0.019531;1.098633;
1549559;0.004883;0.018555;1.097656;
1549769;0.007812;0.020508;1.106445;
1549989;0.005859;0.019531;1.103516;
1550199;0.007812;0.023438;1.106445;
1550409;0.009766;0.019531;1.094727;
1550619;0.005859;0.021484;1.085938;
1550829;0.004883;0.019531;1.066406;
1551034;0.004883;0.019531;1.059570;
1551264;0.003906;0.020508;1.044922;
1551495;0.002930;0.022461;1.034180;
1551719;0.001953;0.019531;1.026367;
1551929;0.000000;0.017578;1.018555;
1552139;0.000977;0.023438;1.012695;
1552359;0.000000;0.019531;1.005859;
1552569;0.000000;0.022461;0.991211;
1552789;-0.000977;0.026367;0.996094;
1552999;0.000000;0.022461;0.997070;
1553219;0.000977;0.021484;0.995117;
1553429;0.004883;0.019531;1.009766;
1553639;0.001953;0.023438;1.011719;
1553849;0.000977;0.022461;1.024414;
1554059;0.004883;0.024414;1.028320;
1554269;0.004883;0.021484;1.029297;
1554479;0.004883;0.021484;1.033203;
1554684;0.002930;0.024414;1.033203;
1554915;0.005859;0.024414;1.047852;
1555149;0.004883;0.023438;1.060547;
1555369;0.000000;0.024414;1.060547;
1555589;0.001953;0.020508;1.054688;
1555799;0.001953;0.023438;1.068359;
1556019;0.002930;0.024414;1.065430;
1556229;0.003906;0.025391;1.060547;
1556439;0.001953;0.023438;1.046875;
1556659;0.001953;0.020508;1.037109;
1556869;0.004883;0.023438;1.032227;
1557079;0.002930;0.016602;1.029297;
1557289;0.004883;0.020508;1.035156;
1557499;0.000977;0.021484;1.042969;
1557719;0.004883;0.022461;1.059570;
1557935;0.003906;0.024414;1.079102;
1558174;0.005859;0.017578;1.099609;
1558405;0.007812;0.021484;1.111328;
1558620;0.005859;0.023438;1.120117;
1558839;0.009766;0.014648;1.123047;
1559049;0.007812;0.018555;1.093750;
1559269;0.006836;0.023438;1.082031;
1559489;0.004883;0.017578;1.074219;
1559699;0.004883;0.018555;1.043945;
1559909;0.000977;0.015625;1.036133;
1560124;0.001953;0.019531;1.030273;
1560329;0.000000;0.017578;1.011719;
1560539;-0.002930;0.021484;0.995117;
1560759;-0.006836;0.015625;0.980469;
1560969;-0.011719;0.011719;0.957031;
1561179;-0.010742;0.019531;0.954102;
1561389;-0.017578;0.016602;0.923828;
1561605;-0.011719;0.020508;0.920898;
1561835;-0.016602;0.018555;0.893555;
1562069;-0.012695;0.027344;0.908203;
1562289;-0.014648;0.021484;0.913086;
1562499;-0.016602;0.023438;0.920898;
1562709;-0.007812;0.022461;0.948242;
1562919;-0.012695;0.019531;0.952148;
1563129;-0.010742;0.029297;0.968750;
1563339;-0.008789;0.022461;0.981445;
1563549;-0.008789;0.018555;0.988281;
1563759;-0.011719;0.019531;0.994141;
1563969;-0.008789;0.019531;1.010742;
1564179;-0.009766;0.018555;1.001953;
1564389;-0.008789;0.018555;1.009766;
1564599;-0.008789;0.017578;1.017578;
1564809;-0.011719;0.023438;1.026367;
1565026;-0.007812;0.019531;1.013672;
1565244;-0.007812;0.016602;1.032227;
1565486;-0.008789;0.021484;1.037109;
1565719;-0.005859;0.024414;1.043945;
1565929;-0.010742;0.021484;1.027344;
1566139;-0.008789;0.021484;1.028320;
1566359;-0.007812;0.025391;1.025391;
1566569;-0.007812;0.021484;1.025391;
1566789;-0.011719;0.022461;1.022461;
1566999;-0.005859;0.027344;1.052734;
1567209;-0.007812;0.023438;1.064453;
1567429;-0.003906;0.025391;1.086914;
1567639;-0.003906;0.023438;1.104492;
1567849;-0.002930;0.026367;1.109375;
1568059;-0.003906;0.019531;1.117188;
1568269;0.000000;0.021484;1.134766;
1568479;-0.003906;0.019531;1.138672;
1568695;-0.003906;0.013672;1.130859;
1568924;0.000000;0.017578;1.134766;
1569169;-0.002930;0.014648;1.132812;
1569379;0.000000;0.018555;1.128906;
1569599;-0.002930;0.025391;1.109375;
1569809;-0.003906;0.023438;1.109375;
1570019;-0.002930;0.019531;1.109375;
1570229;-0.003906;0.021484;1.105469;
1570439;-0.002930;0.022461;1.111328;
1570649;-0.001953;0.023438;1.123047;
1570859;-0.001953;0.019531;1.101562;
1571069;-0.002930;0.015625;1.107422;
1571279;-0.002930;0.020508;1.104492;
1571499;-0.004883;0.021484;1.076172;
1571709;-0.008789;0.020508;1.054688;
1571919;-0.005859;0.025391;1.047852;
1572124;-0.010742;0.023438;1.008789;
1572344;-0.007812;0.018555;1.016602;
1572564;-0.009766;0.023438;0.996094;
1572799;-0.006836;0.024414;0.999023;
1573019;-0.007812;0.020508;1.001953;
1573229;-0.009766;0.021484;1.001953;
1573439;-0.008789;0.024414;1.004883;
1573649;-0.006836;0.023438;1.025391;
1573859;-0.009766;0.022461;1.034180;
1574069;-0.007812;0.022461;1.035156;
1574279;-0.008789;0.023438;1.030273;
1574489;-0.008789;0.020508;1.014648;
1574699;-0.009766;0.019531;1.007812;
1574909;-0.005859;0.019531;1.009766;
1575129;-0.007812;0.026367;0.998047;
1575339;-0.008789;0.024414;0.985352;
1575545;-0.009766;0.017578;0.983398;
1575774;-0.010742;0.021484;0.971680;
