Time;acc_x;acc_y;acc_z;

246083;0.092773;0.024414;1.048828;
246305;0.089844;0.017578;1.051758;
246455;0.088867;0.018555;1.071289;
246595;0.089844;0.024414;1.063477;
246735;0.094727;0.016602;1.058594;
246875;0.090820;0.012695;1.051758;
247015;0.088867;0.008789;1.043945;
247155;0.087891;0.015625;1.056641;
247295;0.089844;0.021484;1.069336;
247435;0.087891;0.018555;1.042969;
247575;0.093750;0.024414;1.040039;
247715;0.085938;0.017578;1.042969;
247855;0.083984;0.020508;1.027344;
247995;0.086914;0.019531;1.028320;
248135;0.087891;0.027344;1.036133;
248275;0.088867;0.026367;1.022461;
248415;0.087891;0.030273;1.035156;
248555;0.083008;0.026367;1.043945;
248690;0.084961;0.027344;1.073242;
248841;0.086914;0.026367;1.081055;
248990;0.087891;0.028320;1.057617;
249140;0.089844;0.022461;1.064453;
249285;0.089844;0.021484;1.056641;
249425;0.082031;0.022461;1.061523;
249565;0.084961;0.022461;1.050781;
249705;0.086914;0.016602;1.061523;
249840;0.085938;0.021484;1.036133;
249975;0.085938;0.026367;1.022461;
250115;0.080078;0.027344;1.012695;
250255;0.082031;0.023438;1.018555;
250395;0.087891;0.027344;1.010742;
250535;0.085938;0.025391;0.987305;
250675;0.087891;0.033203;0.976562;
250825;0.081055;0.023438;0.975586;
250965;0.079102;0.030273;1.000977;
251105;0.079102;0.031250;1.004883;
251250;0.083008;0.029297;1.010742;
251401;0.082031;0.026367;1.013672;
251555;0.084961;0.022461;1.029297;
251702;0.081055;0.020508;1.030273;
251860;0.082031;0.019531;1.034180;
252015;0.081055;0.019531;1.057617;
252155;0.083984;0.015625;1.061523;
252295;0.085938;0.019531;1.055664;
252435;0.082031;0.020508;1.029297;
252575;0.083008;0.012695;1.023438;
252725;0.083008;0.020508;1.041992;
252865;0.086914;0.019531;1.035156;
253005;0.084961;0.022461;1.002930;
253145;0.082031;0.022461;1.000000;
253285;0.078125;0.028320;0.996094;
253425;0.078125;0.025391;1.004883;
253565;0.080078;0.027344;1.024414;
253705;0.080078;0.031250;0.992188;
253845;0.081055;0.021484;0.975586;
253981;0.077148;0.022461;0.981445;
254130;0.076172;0.021484;0.990234;
254282;0.077148;0.020508;0.992188;
254430;0.082031;0.015625;0.993164;
254575;0.079102;0.018555;0.997070;
254715;0.081055;0.029297;1.046875;
254855;0.075195;0.022461;1.044922;
255005;0.079102;0.027344;1.068359;
255145;0.085938;0.026367;1.058594;
255285;0.080078;0.027344;1.057617;
255435;0.078125;0.018555;1.039062;
255575;0.078125;0.026367;1.057617;
255715;0.077148;0.024414;1.057617;
255865;0.082031;0.024414;1.041016;
256005;0.078125;0.027344;1.045898;
256145;0.077148;0.021484;1.044922;
256285;0.078125;0.023438;1.043945;
256425;0.077148;0.016602;1.045898;
256570;0.080078;0.027344;1.029297;
256720;0.080078;0.025391;1.040039;
256872;0.078125;0.024414;1.030273;
257025;0.078125;0.024414;1.044922;
257165;0.079102;0.020508;1.053711;
257305;0.078125;0.025391;1.059570;
257445;0.078125;0.024414;1.039062;
257585;0.077148;0.027344;1.039062;
257725;0.078125;0.019531;1.072266;
257865;0.081055;0.024414;1.053711;
258005;0.077148;0.019531;1.047852;
258145;0.079102;0.014648;1.109375;
258285;0.083984;0.010742;1.184570;
258425;0.084961;0.015625;1.260742;
258565;0.086914;0.021484;1.330078;
258705;0.093750;0.015625;1.418945;
258845;0.093750;0.012695;1.504883;
258981;0.105469;0.013672;1.588867;
259131;0.111328;0.012695;1.652344;
259291;0.111328;0.016602;1.700195;
259441;0.112305;0.016602;1.728516;
259595;0.115234;0.021484;1.752930;
259735;0.116211;0.022461;1.790039;
259875;0.120117;0.018555;1.794922;
260015;0.119141;0.026367;1.806641;
260155;0.118164;0.017578;1.804688;
260295;0.122070;0.017578;1.806641;
260445;0.121094;0.007812;1.823242;
260585;0.123047;0.011719;1.811523;
260725;0.119141;0.013672;1.807617;
260875;0.121094;0.015625;1.835938;
261015;0.120117;0.015625;1.830078;
261155;0.123047;0.009766;1.831055;
261295;0.124023;0.007812;1.817383;
261435;0.125977;0.009766;1.823242;
261580;0.123047;0.011719;1.845703;
261731;0.121094;0.015625;1.849609;
261880;0.123047;0.013672;1.850586;
262025;0.124023;0.019531;1.845703;
262160;0.125000;0.022461;1.843750;
262310;0.127930;0.022461;1.843750;
262465;0.125000;0.017578;1.853516;
262605;0.121094;0.018555;1.851562;
262745;0.127930;0.020508;1.848633;
262885;0.125000;0.021484;1.856445;
263025;0.125000;0.018555;1.848633;
263165;0.125977;0.017578;1.857422;
263305;0.123047;0.021484;1.870117;
263445;0.125977;0.015625;1.839844;
263585;0.129883;0.012695;1.833008;
263725;0.125000;0.011719;1.846680;
263865;0.127930;0.016602;1.871094;
264005;0.126953;0.009766;1.839844;
264145;0.127930;0.004883;1.834961;
264285;0.123047;0.016602;1.836914;
264420;0.126953;0.020508;1.851562;
264571;0.130859;0.018555;1.864258;
264715;0.132812;0.011719;1.835938;
264851;0.132812;0.018555;1.845703;
264990;0.126953;0.016602;1.871094;
265142;0.128906;0.008789;1.875977;
265300;0.130859;0.019531;1.890625;
265445;0.131836;0.014648;1.885742;
265585;0.128906;0.009766;1.862305;
265725;0.128906;0.004883;1.846680;
265865;0.125000;0.012695;1.815430;
266005;0.123047;0.004883;1.779297;
266155;0.126953;0.005859;1.766602;
266295;0.130859;0.008789;1.770508;
266435;0.122070;0.002930;1.717773;
266575;0.130859;-0.011719;1.685547;
266715;0.131836;0.002930;1.713867;
266855;0.128906;0.008789;1.718750;
266995;0.126953;0.005859;1.718750;
267135;0.139648;0.008789;1.773438;
267285;0.141602;0.000000;1.822266;
267420;0.133789;0.014648;1.836914;
267570;0.141602;0.025391;1.864258;
267731;0.150391;0.027344;1.921875;
267890;0.141602;0.010742;1.890625;
268035;0.140625;0.028320;1.798828;
268175;0.159180;0.031250;1.852539;
268315;0.150391;0.019531;1.856445;
268455;0.148438;0.031250;1.867188;
268595;0.164062;0.033203;1.890625;
268735;0.155273;0.016602;1.921875;
268875;0.162109;0.016602;1.980469;
269015;0.160156;0.011719;1.975586;
269155;0.167969;0.008789;1.975586;
269295;0.162109;0.001953;1.948242;
269435;0.170898;-0.000977;1.968750;
269575;0.166992;0.011719;1.968750;
269715;0.170898;0.018555;1.917969;
269855;0.166016;0.015625;1.902344;
269990;0.163086;0.005859;1.932617;
270141;0.157227;0.000977;1.889648;
270290;0.167969;0.003906;1.854492;
270441;0.160156;-0.007812;1.818359;
270595;0.154297;0.011719;1.817383;
270735;0.163086;0.015625;1.791016;
270875;0.155273;-0.005859;1.776367;
271015;0.159180;0.008789;1.799805;
271155;0.163086;0.014648;1.789062;
271295;0.159180;0.010742;1.786133;
271435;0.173828;0.005859;1.827148;
271575;0.164062;0.036133;1.833984;
271715;0.169922;0.022461;1.839844;
271855;0.172852;0.001953;1.833984;
271995;0.170898;-0.001953;1.861328;
272135;0.184570;0.018555;1.928711;
272275;0.172852;0.017578;1.910156;
272415;0.179688;0.019531;1.905273;
272561;0.182617;0.014648;1.887695;
272710;0.177734;0.004883;1.864258;
272870;0.179688;0.002930;1.858398;
273025;0.179688;0.012695;1.833008;
273165;0.178711;0.005859;1.817383;
273305;0.178711;0.008789;1.806641;
273445;0.178711;0.010742;1.783203;
273585;0.180664;0.011719;1.772461;
273725;0.177734;0.015625;1.749023;
273865;0.177734;0.017578;1.743164;
274005;0.180664;0.029297;1.756836;
274145;0.180664;0.028320;1.729492;
274285;0.183594;0.030273;1.738281;
274425;0.182617;0.035156;1.726562;
274565;0.183594;0.058594;1.745117;
274705;0.184570;0.041016;1.716797;
274845;0.190430;0.038086;1.731445;
274980;0.184570;0.046875;1.728516;
275130;0.191406;0.039062;1.733398;
275281;0.194336;0.031250;1.725586;
275430;0.190430;0.045898;1.723633;
275595;0.195312;0.021484;1.725586;
275745;0.201172;0.014648;1.727539;
275885;0.201172;0.004883;1.720703;
276025;0.204102;0.000000;1.722656;
276175;0.205078;-0.013672;1.726562;
276315;0.208008;-0.000977;1.738281;
276465;0.206055;-0.002930;1.731445;
276605;0.207031;-0.009766;1.730469;
276745;0.204102;-0.004883;1.713867;
276885;0.207031;0.000000;1.706055;
277025;0.199219;-0.006836;1.699219;
277165;0.198242;0.009766;1.679688;
277305;0.185547;0.013672;1.654297;
277445;0.186523;0.015625;1.641602;
277581;0.177734;0.023438;1.591797;
277740;0.161133;0.031250;1.573242;
277890;0.157227;0.031250;1.545898;
278040;0.150391;0.030273;1.514648;
278195;0.137695;0.027344;1.458984;
278335;0.125977;0.028320;1.410156;
278475;0.115234;0.027344;1.347656;
278615;0.100586;0.026367;1.254883;
278755;0.086914;0.023438;1.179688;
278895;0.071289;0.023438;1.057617;
279035;0.060547;0.023438;0.973633;
279175;0.042969;0.021484;0.851562;
279325;0.036133;0.021484;0.727539;
279465;0.027344;0.024414;0.619141;
279605;0.016602;0.019531;0.515625;
279755;0.011719;0.017578;0.439453;
279896;0.008789;0.018555;0.354492;
280055;0.005859;0.015625;0.278320;
280190;0.002930;0.017578;0.239258;
280340;0.003906;0.017578;0.213867;
280490;0.002930;0.027344;0.169922;
280650;-0.000977;0.026367;0.132812;
280785;-0.000977;0.028320;0.125977;
280925;-0.000977;0.028320;0.105469;
281065;0.000000;0.035156;0.091797;
281205;-0.000977;0.032227;0.076172;
281355;-0.001953;0.038086;0.029297;
281495;0.000000;0.037109;0.018555;
281635;-0.002930;0.031250;-0.003906;
281775;-0.001953;0.028320;-0.017578;
281916;-0.002930;0.026367;-0.023438;
282075;-0.000977;0.021484;0.005859;
282225;-0.003906;0.020508;0.007812;
282365;-0.001953;0.016602;0.000000;
282505;-0.001953;0.019531;0.017578;
282655;-0.007812;0.017578;0.011719;
282791;-0.006836;0.019531;0.023438;
282935;-0.005859;0.020508;0.031250;
283080;-0.005859;0.022461;0.042969;
283225;-0.007812;0.022461;0.043945;
283370;-0.006836;0.025391;0.057617;
283520;-0.005859;0.024414;0.052734;
283670;-0.006836;0.023438;0.049805;
283825;-0.008789;0.022461;0.051758;
283975;-0.008789;0.024414;0.044922;
284115;-0.009766;0.023438;0.042969;
284255;-0.012695;0.023438;0.043945;
284395;-0.007812;0.025391;0.043945;
284535;-0.010742;0.029297;0.043945;
284675;-0.013672;0.026367;0.049805;
284815;-0.009766;0.026367;0.049805;
284955;-0.010742;0.025391;0.042969;
285095;-0.012695;0.028320;0.025391;
285235;-0.010742;0.027344;0.025391;
285375;-0.009766;0.026367;0.033203;
285515;-0.009766;0.028320;0.031250;
285655;-0.016602;0.025391;0.023438;
285791;-0.011719;0.027344;0.024414;
285941;-0.009766;0.027344;0.025391;
286090;-0.014648;0.027344;0.021484;
286251;-0.012695;0.026367;0.015625;
286405;-0.010742;0.027344;0.023438;
286545;-0.014648;0.031250;0.018555;
286685;-0.032227;0.006836;-0.096680;
286825;-0.010742;0.032227;0.035156;
286965;-0.013672;0.033203;0.021484;
287105;-0.013672;0.031250;0.015625;
287245;-0.012695;0.032227;0.016602;
287385;-0.012695;0.031250;0.015625;
287525;-0.014648;0.032227;0.016602;
287675;-0.013672;0.033203;0.021484;
287815;-0.014648;0.034180;0.019531;
287955;-0.014648;0.032227;0.027344;
288095;-0.015625;0.032227;0.026367;
288235;-0.016602;0.033203;0.024414;
288381;-0.012695;0.035156;0.027344;
288532;-0.009766;0.029297;0.027344;
288681;-0.013672;0.033203;0.025391;
288830;-0.013672;0.032227;0.026367;
288985;-0.014648;0.034180;0.023438;
289125;-0.014648;0.030273;0.028320;
289265;-0.011719;0.032227;0.028320;
289415;-0.012695;0.032227;0.023438;
289565;-0.012695;0.031250;0.025391;
289705;-0.013672;0.029297;0.030273;
289855;-0.012695;0.034180;0.025391;
289995;-0.013672;0.035156;0.026367;
290135;-0.013672;0.033203;0.025391;
290285;-0.011719;0.034180;0.019531;
290425;-0.012695;0.035156;0.023438;
290565;-0.010742;0.032227;0.019531;
290705;-0.013672;0.031250;0.024414;
290850;-0.013672;0.030273;0.024414;
291010;-0.013672;0.032227;0.017578;
291161;-0.015625;0.030273;0.024414;
291305;-0.010742;0.029297;0.022461;
291440;-0.013672;0.027344;0.022461;
291580;-0.011719;0.030273;0.026367;
291745;-0.014648;0.026367;0.023438;
291885;-0.014648;0.026367;0.025391;
292035;-0.014648;0.028320;0.019531;
292175;-0.014648;0.022461;0.007812;
292305;-0.017578;0.024414;0.010742;
292445;-0.017578;0.028320;0.012695;
292585;-0.014648;0.027344;0.017578;
292726;-0.013672;0.024414;0.010742;
292885;-0.013672;0.025391;0.006836;
293025;-0.015625;0.024414;0.008789;
293165;-0.016602;0.024414;0.009766;
293305;-0.015625;0.025391;0.009766;
293445;-0.017578;0.021484;-0.003906;
293585;-0.015625;0.025391;0.003906;
293720;-0.012695;0.022461;0.005859;
293871;-0.010742;0.025391;-0.053711;
294020;-0.013672;0.021484;0.003906;
294171;-0.015625;0.021484;-0.000977;
294320;-0.012695;0.025391;0.011719;
294475;-0.009766;0.022461;0.001953;
294625;-0.013672;0.017578;0.004883;
294765;-0.017578;0.020508;-0.004883;
294905;-0.015625;0.014648;0.003906;
295045;-0.016602;0.018555;0.003906;
295185;-0.014648;0.014648;0.008789;
295325;-0.015625;0.016602;0.005859;
295465;-0.016602;0.014648;0.004883;
295605;-0.017578;0.013672;0.005859;
295745;-0.018555;0.014648;0.007812;
295895;-0.017578;0.012695;0.002930;
296035;-0.018555;0.014648;0.006836;
296175;-0.018555;0.010742;0.004883;
296315;-0.019531;0.010742;0.003906;
296450;-0.019531;0.005859;0.003906;
296590;-0.018555;0.009766;0.000000;
296741;-0.019531;0.008789;-0.003906;
296890;-0.021484;0.007812;-0.000977;
297040;-0.021484;0.004883;-0.004883;
297195;-0.021484;0.003906;-0.004883;
297335;-0.020508;0.006836;-0.001953;
297475;-0.022461;0.005859;-0.005859;
297615;-0.021484;0.006836;-0.002930;
297755;-0.022461;0.008789;-0.001953;
297895;-0.022461;0.010742;0.000000;
298035;-0.022461;0.011719;0.007812;
298175;-0.023438;0.010742;0.001953;
298315;-0.024414;0.013672;0.011719;
298455;-0.026367;0.014648;0.004883;
298595;-0.025391;0.009766;0.010742;
298735;-0.024414;0.011719;0.011719;
298875;-0.024414;0.009766;0.019531;
299015;-0.024414;0.011719;0.012695;
299150;-0.025391;0.010742;0.019531;
299301;-0.026367;0.010742;0.015625;
299460;-0.025391;0.010742;0.016602;
299610;-0.026367;0.012695;0.005859;
299765;-0.027344;0.014648;0.014648;
299915;-0.026367;0.015625;0.003906;
300055;-0.029297;0.015625;0.009766;
300195;-0.026367;0.014648;0.015625;
300335;-0.030273;0.015625;0.015625;
300475;-0.027344;0.014648;0.018555;
300621;-0.030273;0.011719;0.007812;
300775;-0.030273;0.014648;0.012695;
300915;-0.027344;0.016602;0.014648;
301065;-0.033203;0.016602;0.001953;
301205;-0.034180;0.019531;0.004883;
301345;-0.050781;0.031250;0.022461;
301485;-0.032227;0.021484;0.011719;
301625;-0.032227;0.026367;0.003906;
301760;-0.031250;0.023438;0.007812;
301911;-0.030273;0.026367;0.018555;
302060;-0.033203;0.023438;0.005859;
302210;-0.034180;0.023438;0.000977;
302351;-0.036133;0.023438;-0.011719;
302505;-0.034180;0.019531;-0.011719;
302655;-0.037109;0.019531;-0.017578;
302795;-0.038086;0.022461;-0.022461;
302935;-0.035156;0.028320;-0.014648;
303085;-0.040039;0.023438;-0.004883;
303220;-0.039062;0.024414;-0.017578;
303365;-0.041992;0.022461;0.000977;
303505;-0.044922;0.025391;0.020508;
303645;-0.043945;0.027344;0.052734;
303785;-0.047852;0.029297;0.092773;
303925;-0.047852;0.027344;0.136719;
304065;-0.048828;0.025391;0.233398;
304205;-0.042969;0.025391;0.300781;
304345;-0.034180;0.029297;0.400391;
304480;-0.035156;0.036133;0.469727;
304630;-0.029297;0.034180;0.561523;
304780;-0.028320;0.036133;0.675781;
304920;-0.021484;0.034180;0.779297;
305081;-0.010742;0.033203;0.865234;
305225;-0.003906;0.027344;0.989258;
305365;0.000977;0.023438;1.120117;
305515;0.012695;0.025391;1.201172;
305655;0.021484;0.029297;1.279297;
305795;0.030273;0.028320;1.363281;
305935;0.038086;0.030273;1.437500;
306075;0.049805;0.030273;1.499023;
306225;0.054688;0.026367;1.527344;
306365;0.059570;0.025391;1.583008;
306505;0.062500;0.026367;1.601562;
306645;0.060547;0.026367;1.652344;
306785;0.061523;0.023438;1.645508;
306925;0.056641;0.031250;1.664062;
307065;0.053711;0.025391;1.673828;
307200;0.059570;0.025391;1.718750;
307350;0.058594;0.020508;1.744141;
307500;0.051758;0.020508;1.718750;
307650;0.056641;0.014648;1.718750;
307815;0.055664;0.016602;1.708984;
307955;0.049805;0.017578;1.729492;
308095;0.047852;0.027344;1.768555;
308235;0.053711;0.023438;1.798828;
308375;0.052734;0.037109;1.814453;
308515;0.054688;0.036133;1.851562;
308655;0.050781;0.024414;1.865234;
308795;0.053711;0.033203;1.895508;
308935;0.041016;0.018555;1.840820;
309075;0.049805;0.023438;1.897461;
309215;0.057617;-0.004883;1.893555;
309355;0.053711;-0.015625;1.879883;
309495;0.051758;-0.010742;1.951172;
309645;0.041992;0.005859;1.902344;
309780;0.053711;-0.007812;1.899414;
309930;0.040039;-0.008789;1.910156;
310080;0.044922;-0.000977;1.882812;
310230;0.049805;0.000000;1.913086;
310385;0.041016;0.004883;1.916016;
310525;0.036133;0.008789;1.902344;
310665;0.034180;0.013672;1.877930;
310805;0.032227;0.011719;1.870117;
310945;0.031250;0.005859;1.859375;
311085;0.029297;0.001953;1.838867;
311235;0.027344;0.009766;1.833008;
311375;0.024414;0.011719;1.831055;
311515;0.020508;0.022461;1.834961;
311655;0.018555;0.026367;1.828125;
311795;0.016602;0.033203;1.829102;
311935;0.017578;0.043945;1.839844;
312075;0.015625;0.040039;1.845703;
312215;0.014648;0.038086;1.840820;
312350;0.015625;0.044922;1.857422;
312501;0.015625;0.035156;1.859375;
312661;0.014648;0.027344;1.855469;
312810;0.011719;0.026367;1.863281;
312960;0.012695;0.021484;1.879883;
313105;0.010742;0.019531;1.880859;
313245;0.013672;0.018555;1.900391;
313385;0.010742;0.016602;1.897461;
313525;0.012695;0.020508;1.929688;
313665;0.008789;0.023438;1.927734;
313805;0.010742;0.021484;1.950195;
313945;0.009766;0.026367;1.951172;
314085;0.009766;0.025391;1.958008;
314225;0.010742;0.027344;1.970703;
314365;0.010742;0.021484;1.973633;
314505;0.006836;0.013672;1.959961;
314645;0.006836;0.017578;1.974609;
314785;0.010742;0.022461;1.985352;
314925;0.002930;0.022461;1.980469;
315060;0.006836;0.022461;1.971680;
315211;0.000977;0.028320;1.946289;
315340;0.000977;0.014648;1.942383;
315480;-0.000977;0.006836;1.944336;
315630;-0.003906;0.012695;1.919922;
315780;0.000000;0.018555;1.904297;
315925;-0.006836;0.007812;1.892578;
316065;-0.008789;0.018555;1.896484;
316205;-0.007812;0.023438;1.893555;
316345;-0.011719;0.022461;1.882812;
316485;-0.011719;0.023438;1.893555;
316625;-0.010742;0.024414;1.892578;
316775;-0.012695;0.022461;1.864258;
316915;-0.010742;0.014648;1.879883;
317055;-0.016602;0.020508;1.883789;
317205;-0.012695;0.008789;1.886719;
317345;-0.012695;0.007812;1.887695;
317485;-0.011719;0.000977;1.875977;
317635;-0.009766;0.017578;1.890625;
317775;-0.019531;0.013672;1.875000;
317920;-0.015625;0.021484;1.875977;
318070;-0.020508;0.023438;1.867188;
318212;-0.024414;0.017578;1.834961;
318360;-0.019531;0.022461;1.835938;
318515;-0.025391;0.020508;1.812500;
318655;-0.025391;0.013672;1.799805;
318795;-0.023438;0.008789;1.792969;
318935;-0.032227;0.018555;1.779297;
319075;-0.027344;0.018555;1.775391;
319225;-0.031250;0.020508;1.773438;
319365;-0.033203;0.019531;1.763672;
319505;-0.025391;0.023438;1.759766;
319645;-0.033203;0.014648;1.766602;
319785;-0.029297;0.018555;1.767578;
319925;-0.030273;0.012695;1.766602;
320065;-0.032227;0.020508;1.783203;
320205;-0.031250;0.029297;1.771484;
320345;-0.032227;0.017578;1.774414;
320481;-0.033203;0.013672;1.769531;
320631;-0.032227;0.011719;1.732422;
320780;-0.034180;0.013672;1.707031;
320930;-0.041992;0.019531;1.681641;
321081;-0.040039;0.017578;1.648438;
321225;-0.044922;0.021484;1.603516;
321375;-0.046875;0.027344;1.592773;
321515;-0.051758;0.024414;1.546875;
321655;-0.050781;0.023438;1.551758;
321795;-0.052734;0.025391;1.533203;
321935;-0.057617;0.023438;1.495117;
322075;-0.053711;0.020508;1.473633;
322215;-0.055664;0.020508;1.469727;
322365;-0.058594;0.020508;1.476562;
322505;-0.056641;0.016602;1.461914;
322645;-0.052734;0.010742;1.467773;
322785;-0.053711;0.012695;1.483398;
322925;-0.056641;0.008789;1.493164;
323065;-0.053711;0.011719;1.490234;
323210;-0.054688;0.009766;1.481445;
323362;-0.057617;0.022461;1.473633;
323490;-0.057617;0.019531;1.458984;
323640;-0.059570;0.017578;1.453125;
323790;-0.062500;0.018555;1.428711;
323945;-0.062500;0.020508;1.408203;
324095;-0.062500;0.019531;1.374023;
324235;-0.065430;0.022461;1.355469;
324375;-0.070312;0.025391;1.316406;
324525;-0.070312;0.025391;1.271484;
324665;-0.072266;0.027344;1.251953;
324805;-0.077148;0.024414;1.231445;
324955;-0.072266;0.026367;1.207031;
325095;-0.077148;0.023438;1.191406;
325235;-0.077148;0.022461;1.180664;
325375;-0.077148;0.016602;1.172852;
325515;-0.079102;0.020508;1.166992;
325665;-0.076172;0.022461;1.168945;
325805;-0.076172;0.013672;1.178711;
325940;-0.077148;0.015625;1.177734;
326091;-0.075195;0.018555;1.177734;
326250;-0.076172;0.020508;1.177734;
326390;-0.076172;0.020508;1.193359;
326540;-0.071289;0.018555;1.211914;
326685;-0.072266;0.015625;1.210938;
326825;-0.073242;0.022461;1.217773;
326965;-0.073242;0.024414;1.208984;
327105;-0.076172;0.025391;1.185547;
327245;-0.073242;0.020508;1.206055;
327385;-0.079102;0.020508;1.189453;
327525;-0.070312;0.025391;1.189453;
327665;-0.081055;0.026367;1.170898;
327805;-0.075195;0.028320;1.163086;
327945;-0.076172;0.022461;1.139648;
328085;-0.078125;0.018555;1.130859;
328225;-0.080078;0.014648;1.080078;
328365;-0.081055;0.021484;1.051758;
328505;-0.084961;0.012695;1.005859;
328640;-0.085938;0.016602;0.975586;
328780;-0.086914;0.016602;0.964844;
328940;-0.088867;0.017578;0.958984;
329070;-0.082031;0.016602;0.971680;
329220;-0.083008;0.013672;0.984375;
329375;-0.077148;0.017578;1.050781;
329515;-0.078125;0.020508;1.055664;
329655;-0.075195;0.020508;1.093750;
329805;-0.073242;0.019531;1.116211;
329945;-0.071289;0.027344;1.142578;
330085;-0.077148;0.024414;1.148438;
330225;-0.073242;0.018555;1.170898;
330365;-0.068359;0.022461;1.176758;
330515;-0.064453;0.020508;1.185547;
330655;-0.064453;0.023438;1.205078;
330795;-0.063477;0.019531;1.205078;
330935;-0.060547;0.018555;1.172852;
331075;-0.058594;0.018555;1.190430;
331215;-0.058594;0.018555;1.186523;
331351;-0.055664;0.014648;1.183594;
331501;-0.052734;0.012695;1.183594;
331650;-0.045898;0.009766;1.167969;
331800;-0.045898;0.017578;1.166992;
331950;-0.041992;0.015625;1.144531;
332105;-0.038086;0.016602;1.130859;
332245;-0.034180;0.021484;1.129883;
332385;-0.035156;0.022461;1.125000;
332525;-0.029297;0.022461;1.092773;
332675;-0.032227;0.023438;1.077148;
332815;-0.028320;0.025391;1.061523;
332955;-0.031250;0.017578;1.053711;
333105;-0.029297;0.020508;1.043945;
333245;-0.033203;0.016602;1.035156;
333385;-0.025391;0.027344;1.041016;
333525;-0.028320;0.017578;1.027344;
333665;-0.027344;0.024414;1.007812;
333815;-0.022461;0.028320;1.011719;
333955;-0.019531;0.027344;1.023438;
334092;-0.016602;0.023438;0.997070;
334240;-0.012695;0.029297;1.000000;
334390;-0.015625;0.023438;0.990234;
334540;-0.010742;0.027344;0.985352;
334690;-0.008789;0.028320;0.989258;
334845;-0.006836;0.025391;0.995117;
334985;-0.007812;0.026367;1.001953;
335125;-0.010742;0.022461;0.998047;
335265;-0.013672;0.018555;0.982422;
335405;-0.013672;0.022461;0.974609;
335545;-0.014648;0.019531;0.973633;
335685;-0.017578;0.015625;0.976562;
335825;-0.013672;0.017578;0.979492;
335965;-0.018555;0.017578;0.973633;
336105;-0.016602;0.019531;0.998047;
336245;-0.016602;0.021484;1.001953;
336385;-0.014648;0.023438;1.011719;
336525;-0.016602;0.024414;1.016602;
336665;-0.013672;0.026367;1.034180;
336812;-0.012695;0.019531;1.045898;
336961;-0.014648;0.019531;1.055664;
337110;-0.013672;0.023438;1.044922;
337265;-0.014648;0.014648;1.056641;
337401;-0.014648;0.020508;1.079102;
337551;-0.009766;0.017578;1.068359;
337705;-0.012695;0.021484;1.067383;
337855;-0.012695;0.015625;1.071289;
337995;-0.009766;0.015625;1.096680;
338135;-0.006836;0.007812;1.100586;
338285;-0.011719;0.021484;1.096680;
338425;-0.009766;0.024414;1.092773;
338565;-0.015625;0.021484;1.076172;
338715;-0.019531;0.020508;1.078125;
338855;-0.010742;0.032227;1.094727;
338995;-0.012695;0.018555;1.105469;
339145;-0.010742;0.014648;1.131836;
339285;-0.010742;0.022461;1.154297;
339425;-0.008789;0.028320;1.163086;
339565;-0.002930;0.025391;1.205078;
339700;-0.005859;0.015625;1.226562;
339850;0.000000;0.027344;1.254883;
340001;-0.001953;0.023438;1.235352;
340151;-0.005859;0.024414;1.233398;
340305;-0.003906;0.022461;1.210938;
340445;-0.005859;0.027344;1.204102;
340585;-0.008789;0.022461;1.190430;
340735;-0.005859;0.015625;1.166992;
340875;-0.005859;0.019531;1.171875;
341015;-0.014648;0.032227;1.145508;
341155;-0.003906;0.015625;1.146484;
341295;-0.011719;0.005859;1.129883;
341435;-0.009766;0.019531;1.114258;
341575;-0.007812;0.020508;1.073242;
341715;-0.011719;0.026367;1.076172;
341855;-0.015625;0.026367;1.053711;
341995;-0.013672;0.029297;1.034180;
342135;-0.018555;0.020508;1.013672;
342275;-0.018555;0.022461;1.004883;
342422;-0.016602;0.028320;1.003906;
342580;-0.020508;0.024414;0.996094;
342730;-0.015625;0.014648;0.994141;
342870;-0.017578;0.025391;0.999023;
343012;-0.014648;0.021484;1.002930;
343165;-0.016602;0.023438;0.983398;
343305;-0.012695;0.027344;1.003906;
343445;-0.017578;0.023438;1.019531;
343585;-0.011719;0.018555;1.016602;
343725;-0.020508;0.023438;0.993164;
343865;-0.012695;0.032227;1.019531;
344005;-0.016602;0.025391;1.017578;
344145;-0.020508;0.027344;0.999023;
344285;-0.017578;0.031250;1.000977;
344425;-0.015625;0.022461;1.027344;
344565;-0.017578;0.021484;1.030273;
344705;-0.014648;0.022461;1.027344;
344845;-0.012695;0.026367;1.031250;
344985;-0.010742;0.021484;1.021484;
345120;-0.010742;0.026367;1.037109;
345255;-0.013672;0.018555;1.038086;
345400;-0.013672;0.021484;1.021484;
345551;-0.012695;0.019531;1.007812;
345700;-0.017578;0.033203;1.018555;
345845;-0.017578;0.029297;1.018555;
345985;-0.016602;0.021484;1.012695;
346125;-0.015625;0.019531;1.026367;
346265;-0.019531;0.024414;1.013672;
346405;-0.014648;0.023438;1.013672;
346555;-0.015625;0.026367;1.033203;
346695;-0.011719;0.027344;1.029297;
346835;-0.012695;0.028320;1.039062;
346975;-0.012695;0.029297;1.042969;
347115;-0.011719;0.030273;1.029297;
347255;-0.014648;0.031250;1.030273;
347395;-0.014648;0.029297;1.015625;
347535;-0.016602;0.024414;1.010742;
347675;-0.018555;0.024414;0.999023;
347811;-0.014648;0.023438;1.000977;
347960;-0.017578;0.023438;1.016602;
348110;-0.014648;0.019531;1.041016;
348270;-0.009766;0.019531;1.047852;
348420;-0.013672;0.017578;1.070312;
348575;-0.007812;0.021484;1.070312;
348725;-0.008789;0.022461;1.093750;
348865;-0.010742;0.025391;1.104492;
349005;-0.010742;0.022461;1.100586;
349145;-0.011719;0.025391;1.107422;
349285;-0.010742;0.019531;1.100586;
349425;-0.009766;0.024414;1.110352;
349565;-0.008789;0.022461;1.118164;
349715;-0.008789;0.031250;1.119141;
349855;-0.008789;0.028320;1.112305;
349995;-0.009766;0.032227;1.106445;
350135;-0.011719;0.020508;1.078125;
350275;-0.012695;0.020508;1.074219;
350415;-0.011719;0.018555;1.072266;
350551;-0.008789;0.023438;1.070312;
350690;-0.011719;0.020508;1.069336;
350841;-0.012695;0.024414;1.055664;
350981;-0.007812;0.019531;1.038086;
351110;-0.014648;0.021484;1.030273;
351250;-0.011719;0.019531;1.022461;
351395;-0.011719;0.024414;1.016602;
351535;-0.011719;0.022461;1.014648;
351675;-0.016602;0.028320;0.994141;
351815;-0.010742;0.030273;0.978516;
351955;-0.019531;0.034180;0.975586;
352095;-0.015625;0.034180;0.982422;
352235;-0.015625;0.038086;0.968750;
352375;-0.017578;0.031250;0.978516;
352515;-0.016602;0.029297;0.954102;
352655;-0.015625;0.039062;0.976562;
352795;-0.019531;0.027344;0.971680;
352935;-0.015625;0.021484;0.982422;
353075;-0.013672;0.019531;0.991211;
353215;-0.013672;0.018555;0.985352;
353350;-0.014648;0.012695;0.983398;
353491;-0.014648;0.011719;0.988281;
353620;-0.013672;0.025391;1.001953;
353780;-0.012695;0.015625;1.035156;
353920;-0.013672;0.011719;1.042969;
354065;-0.010742;0.019531;1.038086;
354215;-0.010742;0.013672;1.047852;
354355;-0.015625;0.013672;1.060547;
354495;-0.009766;0.020508;1.069336;
354645;-0.012695;0.029297;1.061523;
354785;-0.008789;0.019531;1.093750;
354925;-0.006836;0.018555;1.077148;
355065;-0.006836;0.025391;1.080078;
355205;-0.006836;0.022461;1.093750;
355345;-0.004883;0.041992;1.105469;
355495;-0.006836;0.035156;1.067383;
355635;-0.004883;0.030273;1.096680;
355775;-0.007812;0.033203;1.082031;
355915;-0.003906;0.031250;1.093750;
356050;-0.008789;0.025391;1.089844;
356190;-0.009766;0.023438;1.091797;
356341;-0.008789;0.030273;1.086914;
356490;-0.008789;0.021484;1.107422;
356641;-0.010742;0.026367;1.073242;
356795;-0.006836;0.031250;1.075195;
356935;-0.008789;0.020508;1.078125;
357075;-0.010742;0.008789;1.067383;
357215;-0.010742;0.011719;1.047852;
357365;-0.008789;0.008789;1.034180;
357505;-0.013672;0.020508;1.013672;
357645;-0.013672;0.022461;0.985352;
357785;-0.015625;0.018555;0.998047;
357925;-0.013672;0.014648;0.981445;
358065;-0.011719;0.024414;0.970703;
358205;-0.016602;0.032227;0.982422;
358345;-0.015625;0.023438;0.968750;
358485;-0.013672;0.028320;0.974609;
358625;-0.015625;0.027344;0.974609;
358760;-0.013672;0.027344;0.985352;
358911;-0.015625;0.021484;0.987305;
359051;-0.010742;0.019531;1.008789;
359200;-0.013672;0.012695;1.007812;
359350;-0.014648;0.016602;0.993164;
359505;-0.011719;0.029297;0.993164;
359655;-0.018555;0.022461;0.991211;
359795;-0.013672;0.025391;0.990234;
359935;-0.012695;0.024414;0.983398;
360075;-0.015625;0.028320;0.999023;
360215;-0.015625;0.026367;1.004883;
360355;-0.011719;0.027344;1.019531;
360495;-0.016602;0.023438;1.023438;
360635;-0.012695;0.021484;1.026367;
360785;-0.012695;0.021484;1.023438;
360925;-0.012695;0.023438;1.028320;
361065;-0.013672;0.029297;1.039062;
361205;-0.012695;0.023438;1.039062;
361345;-0.008789;0.022461;1.055664;
361490;-0.012695;0.018555;1.066406;
361651;-0.008789;0.022461;1.069336;
361800;-0.008789;0.023438;1.064453;
361952;-0.009766;0.022461;1.066406;
362105;-0.013672;0.013672;1.044922;
362245;-0.008789;0.024414;1.078125;
362385;-0.011719;0.014648;1.068359;
362535;-0.011719;0.027344;1.047852;
362675;-0.005859;0.019531;1.049805;
362815;-0.011719;0.024414;1.025391;
362965;-0.014648;0.012695;1.014648;
363105;-0.010742;0.027344;1.024414;
363245;-0.015625;0.019531;1.008789;
363395;-0.011719;0.030273;1.025391;
363535;-0.011719;0.026367;1.021484;
363675;-0.017578;0.032227;1.033203;
363815;-0.012695;0.032227;1.024414;
363955;-0.008789;0.034180;1.030273;
364100;-0.018555;0.025391;1.011719;
364240;-0.007812;0.019531;1.024414;
364390;-0.016602;0.029297;1.006836;
364531;-0.012695;0.019531;1.004883;
364680;-0.005859;0.022461;1.014648;
364825;-0.015625;0.018555;1.013672;
364965;-0.009766;0.025391;1.017578;
365105;-0.013672;0.021484;1.031250;
365245;-0.012695;0.024414;1.038086;
365385;-0.009766;0.015625;1.008789;
365525;-0.011719;0.016602;1.009766;
365665;-0.016602;0.019531;1.021484;
365815;-0.012695;0.028320;1.010742;
365955;-0.013672;0.029297;0.990234;
366095;-0.014648;0.032227;0.997070;
366235;-0.014648;0.031250;0.994141;
366375;-0.016602;0.024414;0.975586;
366515;-0.016602;0.026367;0.976562;
366655;-0.013672;0.035156;0.999023;
366790;-0.016602;0.032227;0.997070;
366941;-0.014648;0.024414;1.007812;
367090;-0.015625;0.025391;0.986328;
367240;-0.016602;0.024414;0.995117;
367393;-0.014648;0.014648;0.997070;
367545;-0.012695;0.026367;0.989258;
367685;-0.012695;0.015625;0.993164;
367825;-0.009766;0.019531;1.026367;
367965;-0.014648;0.020508;1.022461;
368105;-0.010742;0.024414;1.031250;
368245;-0.006836;0.018555;1.045898;
368385;-0.008789;0.025391;1.022461;
368525;-0.011719;0.027344;1.024414;
368665;-0.008789;0.026367;1.049805;
368805;-0.015625;0.025391;1.027344;
368955;-0.010742;0.038086;1.017578;
369095;-0.011719;0.028320;1.000000;
369235;-0.013672;0.022461;1.010742;
369375;-0.011719;0.025391;1.026367;
369511;-0.011719;0.028320;1.038086;
369661;-0.014648;0.029297;1.041016;
369811;-0.010742;0.035156;1.051758;
369960;-0.013672;0.028320;1.059570;
370110;-0.015625;0.014648;1.046875;
370265;-0.009766;0.015625;1.037109;
370405;-0.009766;0.028320;1.059570;
370545;-0.010742;0.021484;1.052734;
370685;-0.006836;0.016602;1.043945;
370825;-0.012695;0.019531;1.008789;
370965;-0.009766;0.007812;1.042969;
371105;-0.010742;0.026367;1.051758;
371245;-0.011719;0.028320;1.053711;
371385;-0.009766;0.032227;1.067383;
371525;-0.008789;0.026367;1.071289;
371665;-0.013672;0.034180;1.061523;
371805;-0.009766;0.027344;1.052734;
371945;-0.010742;0.030273;1.051758;
372085;-0.010742;0.017578;1.050781;
372220;-0.010742;0.018555;1.038086;
372360;-0.008789;0.015625;1.061523;
372511;-0.012695;0.019531;1.062500;
372660;-0.008789;0.022461;1.048828;
372815;-0.008789;0.024414;1.042969;
372965;-0.015625;0.021484;1.063477;
373105;-0.008789;0.024414;1.062500;
373245;-0.010742;0.023438;1.063477;
373385;-0.006836;0.027344;1.060547;
373525;-0.014648;0.021484;1.041016;
373665;-0.009766;0.023438;1.053711;
373805;-0.012695;0.023438;1.040039;
373945;-0.006836;0.028320;1.031250;
374085;-0.007812;0.027344;1.033203;
374225;-0.013672;0.030273;1.039062;
374365;-0.008789;0.023438;1.016602;
374505;-0.007812;0.022461;1.026367;
374655;-0.011719;0.020508;1.029297;
374795;-0.006836;0.026367;1.026367;
374940;-0.014648;0.026367;1.000000;
375090;-0.011719;0.026367;1.010742;
375240;-0.010742;0.009766;1.022461;
375390;-0.012695;0.022461;0.995117;
375545;-0.013672;0.018555;0.993164;
375695;-0.014648;0.014648;0.991211;
375835;-0.010742;0.017578;1.009766;
375975;-0.011719;0.022461;1.016602;
376115;-0.010742;0.029297;1.041016;
376255;-0.008789;0.032227;1.067383;
376405;-0.011719;0.019531;1.054688;
376545;-0.009766;0.020508;1.026367;
376685;-0.012695;0.026367;1.032227;
376825;-0.007812;0.028320;1.046875;
376965;-0.009766;0.028320;1.064453;
377115;-0.005859;0.032227;1.077148;
377255;-0.010742;0.031250;1.072266;
377395;-0.007812;0.025391;1.083984;
377540;-0.006836;0.021484;1.073242;
377691;-0.009766;0.015625;1.062500;
377841;-0.009766;0.019531;1.046875;
377980;-0.007812;0.010742;1.055664;
378110;-0.013672;0.032227;1.059570;
378265;-0.010742;0.025391;1.060547;
378405;-0.005859;0.032227;1.059570;
378545;-0.007812;0.022461;1.056641;
378695;-0.011719;0.031250;1.049805;
378835;-0.008789;0.021484;1.053711;
378975;-0.009766;0.025391;1.061523;
379115;-0.010742;0.015625;1.061523;
379255;-0.008789;0.017578;1.048828;
379395;-0.008789;0.005859;1.049805;
379535;-0.010742;0.019531;1.040039;
379675;-0.006836;0.009766;1.022461;
379815;-0.010742;0.018555;1.030273;
379955;-0.009766;0.022461;1.049805;
380095;-0.006836;0.027344;1.051758;
380235;-0.011719;0.019531;1.031250;
380370;-0.014648;0.020508;1.017578;
380510;-0.011719;0.030273;1.029297;
380660;-0.014648;0.033203;1.017578;
380800;-0.012695;0.030273;1.019531;
380940;-0.012695;0.029297;1.021484;
381095;-0.011719;0.025391;1.031250;
381235;-0.011719;0.025391;1.036133;
381375;-0.011719;0.016602;0.996094;
381525;-0.009766;0.026367;1.025391;
381665;-0.010742;0.019531;1.020508;
381805;-0.010742;0.018555;1.017578;
381955;-0.009766;0.019531;1.018555;
382095;-0.011719;0.019531;1.013672;
382235;-0.010742;0.018555;1.006836;
382375;-0.012695;0.019531;1.014648;
382515;-0.007812;0.019531;1.000000;
382655;-0.012695;0.022461;1.008789;
382795;-0.013672;0.031250;0.999023;
382935;-0.011719;0.023438;1.000977;
383070;-0.014648;0.030273;0.999023;
383215;-0.016602;0.032227;1.017578;
383361;-0.008789;0.030273;1.019531;
383510;-0.011719;0.020508;1.018555;
383661;-0.010742;0.031250;1.033203;
383815;-0.012695;0.027344;1.032227;
383965;-0.009766;0.025391;1.024414;
384105;-0.008789;0.022461;1.021484;
384245;-0.013672;0.020508;1.011719;
384395;-0.009766;0.014648;1.013672;
384535;-0.010742;0.023438;1.027344;
384675;-0.009766;0.027344;1.032227;
384825;-0.009766;0.020508;1.029297;
384965;-0.011719;0.021484;1.017578;
385105;-0.010742;0.026367;1.031250;
385255;-0.010742;0.026367;1.030273;
385395;-0.009766;0.022461;1.035156;
385535;-0.005859;0.020508;1.035156;
385677;-0.012695;0.016602;1.056641;
385830;-0.010742;0.020508;1.059570;
385980;-0.007812;0.017578;1.041992;
386130;-0.006836;0.022461;1.054688;
386260;-0.013672;0.022461;1.040039;
386412;-0.008789;0.031250;1.058594;
386555;-0.009766;0.023438;1.044922;
386695;-0.008789;0.028320;1.037109;
386845;-0.009766;0.026367;1.028320;
386985;-0.008789;0.026367;1.039062;
387125;-0.012695;0.015625;1.021484;
387265;-0.007812;0.024414;1.030273;
387405;-0.010742;0.022461;1.029297;
387545;-0.011719;0.022461;1.035156;
387685;-0.009766;0.020508;1.029297;
387825;-0.009766;0.022461;1.041992;
387965;-0.006836;0.020508;1.029297;
388105;-0.010742;0.024414;1.028320;
388245;-0.011719;0.026367;1.034180;
388395;-0.006836;0.029297;1.006836;
388530;-0.007812;0.026367;1.001953;
388680;-0.010742;0.026367;1.010742;
388830;-0.008789;0.022461;1.007812;
388970;-0.009766;0.024414;1.008789;
389125;-0.010742;0.024414;0.990234;
389275;-0.012695;0.022461;0.985352;
389415;-0.011719;0.022461;0.974609;
389565;-0.017578;0.026367;0.981445;
389705;-0.011719;0.017578;0.989258;
389845;-0.012695;0.025391;0.975586;
389995;-0.015625;0.023438;0.974609;
390135;-0.013672;0.024414;0.977539;
390275;-0.017578;0.027344;0.988281;
390415;-0.014648;0.028320;0.986328;
390555;-0.011719;0.028320;1.000000;
390695;-0.011719;0.027344;0.992188;
390835;-0.010742;0.025391;0.998047;
390975;-0.010742;0.024414;0.987305;
391111;-0.009766;0.025391;1.004883;
391260;-0.012695;0.021484;0.988281;
391400;-0.011719;0.021484;0.996094;
391552;-0.009766;0.023438;1.008789;
391690;-0.013672;0.021484;0.990234;
391845;-0.012695;0.029297;0.995117;
391995;-0.010742;0.028320;0.996094;
392135;-0.010742;0.032227;1.002930;
392275;-0.012695;0.032227;0.994141;
392425;-0.005859;0.029297;1.001953;
392565;-0.005859;0.028320;1.005859;
392705;-0.005859;0.024414;1.008789;
392855;-0.004883;0.026367;1.007812;
392995;-0.005859;0.029297;1.016602;
393135;-0.003906;0.025391;1.019531;
393285;-0.006836;0.022461;1.010742;
393425;-0.005859;0.029297;1.031250;
393565;-0.005859;0.027344;1.050781;
393705;-0.009766;0.032227;1.050781;
393850;-0.006836;0.023438;1.055664;
394000;-0.006836;0.035156;1.062500;
394150;-0.007812;0.029297;1.065430;
394291;-0.006836;0.030273;1.072266;
394445;-0.002930;0.020508;1.060547;
394595;-0.006836;0.028320;1.066406;
394735;-0.004883;0.020508;1.059570;
394885;-0.005859;0.018555;1.054688;
395025;-0.006836;0.021484;1.044922;
395165;-0.006836;0.021484;1.049805;
395315;-0.007812;0.018555;1.054688;
395455;-0.005859;0.022461;1.045898;
395595;-0.002930;0.017578;1.040039;
395735;-0.005859;0.020508;1.027344;
395875;-0.012695;0.014648;1.017578;
396015;-0.004883;0.023438;1.021484;
396165;-0.009766;0.022461;1.035156;
396305;-0.008789;0.028320;1.032227;
396440;-0.009766;0.025391;1.029297;
396583;-0.009766;0.027344;1.021484;
396732;-0.011719;0.032227;1.025391;
396890;-0.006836;0.031250;1.034180;
397030;-0.008789;0.025391;1.033203;
397175;-0.008789;0.029297;1.047852;
397315;-0.007812;0.025391;1.031250;
397455;-0.004883;0.020508;1.040039;
397595;-0.006836;0.020508;1.040039;
397735;-0.008789;0.027344;1.033203;
397875;-0.007812;0.019531;1.041016;
398015;-0.008789;0.028320;1.032227;
398155;-0.013672;0.027344;1.037109;
398295;-0.008789;0.026367;1.034180;
398435;-0.010742;0.019531;1.037109;
398575;-0.006836;0.025391;1.037109;
398715;-0.009766;0.019531;1.026367;
398855;-0.006836;0.026367;1.025391;
398995;-0.002930;0.022461;1.016602;
399131;-0.001953;0.025391;1.016602;
399280;0.000977;0.024414;1.027344;
399440;0.002930;0.026367;1.031250;
399590;0.003906;0.032227;1.024414;
399752;0.003906;0.029297;1.018555;
399885;0.008789;0.033203;1.036133;
400025;0.003906;0.035156;1.042969;
400165;0.004883;0.034180;1.054688;
400305;0.002930;0.027344;1.062500;
400445;-0.004883;0.028320;1.051758;
400585;0.001953;0.026367;1.062500;
400725;0.002930;0.023438;1.064453;
400865;0.000977;0.021484;1.070312;
401005;-0.001953;0.027344;1.049805;
401145;-0.003906;0.023438;1.034180;
401285;-0.000977;0.026367;1.042969;
401425;-0.001953;0.022461;1.055664;
401565;-0.002930;0.024414;1.043945;
401715;-0.003906;0.023438;1.032227;
401851;-0.005859;0.018555;1.022461;
402000;-0.002930;0.018555;1.018555;
402150;-0.000977;0.021484;1.015625;
402280;0.000000;0.019531;1.032227;
402431;-0.002930;0.024414;1.022461;
402580;-0.001953;0.026367;1.027344;
402735;-0.004883;0.024414;1.026367;
402875;-0.001953;0.027344;1.016602;
403025;0.000977;0.027344;1.026367;
403165;-0.006836;0.024414;1.018555;
403305;-0.006836;0.026367;1.014648;
403445;-0.001953;0.037109;1.018555;
403585;-0.002930;0.037109;1.055664;
403725;-0.002930;0.027344;1.038086;
403865;-0.003906;0.026367;1.027344;
404005;-0.006836;0.027344;1.019531;
404145;-0.000977;0.022461;1.035156;
404285;-0.004883;0.018555;1.027344;
404425;-0.001953;0.013672;1.028320;
404575;-0.000977;0.023438;1.023438;
404710;-0.007812;0.020508;1.019531;
404860;0.000977;0.016602;1.018555;
405000;0.002930;0.020508;1.039062;
405150;-0.004883;0.023438;1.021484;
405300;-0.001953;0.016602;1.028320;
405445;-0.000977;0.024414;1.022461;
405585;-0.001953;0.021484;1.033203;
405725;-0.003906;0.026367;1.018555;
405865;0.000000;0.015625;1.012695;
406005;-0.003906;0.028320;1.017578;
406145;-0.000977;0.019531;1.029297;
406285;0.000977;0.026367;1.043945;
406425;-0.000977;0.030273;1.057617;
406565;-0.002930;0.038086;1.052734;
406705;-0.002930;0.035156;1.033203;
406845;-0.006836;0.027344;1.023438;
406985;-0.002930;0.027344;1.020508;
407125;-0.002930;0.016602;1.015625;
407265;-0.005859;0.023438;1.020508;
407401;0.001953;0.018555;1.039062;
407550;-0.000977;0.018555;1.051758;
407700;-0.001953;0.017578;1.053711;
407851;0.000977;0.026367;1.055664;
408000;-0.002930;0.024414;1.052734;
408145;-0.007812;0.026367;1.050781;
408285;0.002930;0.025391;1.050781;
408435;0.000977;0.028320;1.064453;
408575;0.000000;0.020508;1.038086;
408715;-0.002930;0.028320;1.025391;
408855;-0.002930;0.030273;1.032227;
408995;-0.003906;0.028320;1.045898;
409135;0.000000;0.029297;1.043945;
409275;0.000977;0.022461;1.051758;
409425;-0.005859;0.021484;1.024414;
409565;0.000000;0.031250;1.041992;
409705;-0.004883;0.023438;1.048828;
409845;0.003906;0.016602;1.041016;
409985;0.012695;0.019531;1.040039;
410121;0.007812;0.018555;1.032227;
410272;0.013672;0.026367;1.023438;
410420;0.010742;0.030273;1.028320;
410565;0.004883;0.030273;1.025391;
410700;0.009766;0.030273;1.048828;
410850;0.004883;0.033203;1.029297;
411005;0.004883;0.024414;1.038086;
411145;0.002930;0.019531;1.033203;
411295;0.003906;0.030273;1.017578;
411435;0.002930;0.031250;1.002930;
411575;0.003906;0.031250;1.029297;
411715;-0.000977;0.035156;1.018555;
411855;0.002930;0.024414;1.013672;
411995;0.000977;0.011719;0.995117;
412135;0.000977;0.026367;0.987305;
412275;0.000977;0.024414;0.986328;
412415;0.005859;0.030273;0.985352;
412555;-0.001953;0.023438;0.967773;
412695;0.007812;0.031250;1.010742;
412835;0.000000;0.036133;1.010742;
412970;-0.000977;0.025391;0.994141;
413110;0.002930;0.017578;0.974609;
413260;0.000977;0.016602;0.972656;
413410;0.002930;0.022461;0.999023;
413560;0.000000;0.010742;0.998047;
413715;0.004883;0.016602;1.026367;
413865;0.000977;0.020508;1.050781;
414005;0.006836;0.014648;1.054688;
414145;0.006836;0.023438;1.051758;
414285;0.004883;0.027344;1.043945;
414425;0.003906;0.020508;1.059570;
414565;0.002930;0.017578;1.052734;
414705;0.005859;0.017578;1.035156;
414845;0.009766;0.026367;1.037109;
414985;0.002930;0.019531;1.044922;
415125;0.003906;0.018555;1.031250;
415265;0.001953;0.022461;1.025391;
415405;0.002930;0.018555;1.023438;
415545;0.004883;0.019531;1.009766;
415680;0.002930;0.019531;1.012695;
415820;-0.000977;0.025391;1.000977;
415970;0.006836;0.019531;0.992188;
416121;0.004883;0.019531;0.996094;
416265;0.007812;0.026367;1.007812;
416405;0.010742;0.035156;1.013672;
416545;0.010742;0.022461;1.010742;
416685;0.013672;0.026367;1.008789;
416825;0.020508;0.030273;1.000000;
416965;0.023438;0.026367;1.009766;
417115;0.031250;0.021484;1.033203;
417255;0.041016;0.030273;1.039062;
417395;0.042969;0.025391;1.041016;
417545;0.046875;0.021484;1.049805;
417685;0.049805;0.019531;1.056641;
417825;0.058594;0.015625;1.069336;
417975;0.057617;0.021484;1.044922;
418115;0.059570;0.027344;1.072266;
418255;0.061523;0.015625;1.054688;
418391;0.070312;0.016602;1.058594;
418531;0.067383;0.022461;1.067383;
418682;0.079102;0.023438;1.079102;
418835;0.083984;0.022461;1.074219;
418972;0.085938;0.026367;1.084961;
419120;0.095703;0.034180;1.100586;
419275;0.094727;0.017578;1.077148;
419415;0.094727;0.018555;1.042969;
419565;0.100586;0.029297;1.068359;
419705;0.096680;0.033203;1.062500;
419845;0.096680;0.023438;1.027344;
419985;0.100586;0.030273;1.008789;
420125;0.089844;0.029297;0.997070;
420265;0.094727;0.022461;0.972656;
420405;0.095703;0.023438;0.978516;
420545;0.094727;0.024414;0.974609;
420685;0.092773;0.023438;0.967773;
420825;0.094727;0.024414;0.958984;
420965;0.090820;0.031250;0.964844;
421105;0.092773;0.031250;0.939453;
421231;0.093750;0.023438;0.932617;
421380;0.094727;0.027344;0.929688;
421530;0.094727;0.025391;0.936523;
421682;0.091797;0.021484;0.937500;
421830;0.093750;0.025391;0.952148;
421975;0.091797;0.018555;0.933594;
422125;0.091797;0.022461;0.959961;
422265;0.090820;0.020508;0.961914;
422405;0.093750;0.022461;0.992188;
422555;0.095703;0.017578;1.014648;
422695;0.099609;0.029297;1.024414;
422835;0.097656;0.029297;1.044922;
422985;0.097656;0.029297;1.025391;
423125;0.099609;0.026367;1.047852;
423265;0.094727;0.022461;1.045898;
423405;0.097656;0.016602;1.047852;
423545;0.094727;0.024414;1.048828;
423685;0.094727;0.028320;1.039062;
423825;0.093750;0.021484;1.046875;
423971;0.094727;0.017578;1.054688;
424120;0.096680;0.020508;1.068359;
424270;0.101562;0.013672;1.094727;
424420;0.092773;0.020508;1.091797;
424575;0.101562;0.017578;1.080078;
424715;0.095703;0.020508;1.096680;
424855;0.094727;0.025391;1.068359;
424995;0.097656;0.029297;1.073242;
425135;0.091797;0.018555;1.082031;
425275;0.094727;0.020508;1.064453;
425415;0.091797;0.026367;1.050781;
425555;0.093750;0.022461;1.055664;
425695;0.092773;0.021484;1.031250;
425835;0.093750;0.025391;1.010742;
425975;0.091797;0.025391;0.998047;
426115;0.088867;0.017578;0.991211;
426255;0.090820;0.026367;0.974609;
426395;0.086914;0.022461;0.982422;
426533;0.089844;0.023438;0.984375;
426680;0.088867;0.023438;0.963867;
426821;0.087891;0.031250;0.958008;
426970;0.086914;0.019531;0.962891;
427110;0.088867;0.027344;0.951172;
427260;0.087891;0.028320;0.977539;
427415;0.087891;0.023438;1.000000;
427555;0.087891;0.027344;1.023438;
427695;0.089844;0.029297;1.021484;
427835;0.087891;0.022461;1.030273;
427975;0.087891;0.024414;1.020508;
428115;0.085938;0.026367;1.034180;
428255;0.087891;0.027344;1.033203;
428395;0.087891;0.020508;1.048828;
428535;0.084961;0.028320;1.066406;
428675;0.089844;0.026367;1.055664;
428825;0.091797;0.026367;1.048828;
428965;0.088867;0.020508;1.027344;
429105;0.087891;0.019531;1.026367;
429245;0.085938;0.028320;1.033203;
429380;0.083008;0.025391;1.042969;
429530;0.083008;0.026367;1.046875;
429680;0.087891;0.022461;1.041016;
429821;0.091797;0.023438;1.031250;
429970;0.085938;0.023438;1.019531;
430125;0.084961;0.021484;1.020508;
430265;0.085938;0.022461;1.001953;
430405;0.083008;0.029297;1.019531;
430545;0.083008;0.027344;1.034180;
430685;0.084961;0.025391;1.041016;
430825;0.083008;0.029297;1.036133;
430965;0.086914;0.026367;1.029297;
431105;0.086914;0.023438;1.031250;
431245;0.083984;0.025391;1.041016;
431385;0.085938;0.027344;1.046875;
431525;0.085938;0.020508;1.043945;
431665;0.086914;0.023438;1.026367;
431805;0.082031;0.023438;1.016602;
431945;0.083008;0.024414;1.023438;
432080;0.081055;0.017578;1.037109;
432230;0.083008;0.022461;1.031250;
432381;0.084961;0.019531;1.031250;
432530;0.082031;0.026367;1.013672;
432670;0.080078;0.022461;1.010742;
432825;0.081055;0.022461;1.015625;
432965;0.080078;0.024414;1.037109;
433105;0.079102;0.023438;1.043945;
433255;0.083008;0.021484;1.050781;
433395;0.085938;0.024414;1.020508;
433535;0.081055;0.018555;1.004883;
433685;0.080078;0.021484;1.026367;
433825;0.078125;0.022461;1.041016;
433965;0.077148;0.022461;1.040039;
434115;0.084961;0.018555;1.027344;
434255;0.081055;0.020508;1.017578;
434395;0.081055;0.019531;1.036133;
434535;0.081055;0.024414;1.047852;
434675;0.081055;0.021484;1.033203;
434812;0.082031;0.022461;1.036133;
434950;0.080078;0.021484;1.028320;
435080;0.077148;0.022461;1.045898;
435230;0.079102;0.021484;1.055664;
435370;0.082031;0.027344;1.054688;
435525;0.079102;0.020508;1.047852;
435665;0.080078;0.023438;1.024414;
435805;0.078125;0.018555;1.031250;
435955;0.074219;0.021484;1.041016;
436095;0.078125;0.020508;1.041016;
436235;0.078125;0.015625;1.059570;
436385;0.077148;0.018555;1.070312;
436525;0.079102;0.016602;1.130859;
436665;0.083008;0.021484;1.232422;
436805;0.083984;0.019531;1.340820;
436945;0.094727;0.020508;1.457031;
437095;0.102539;0.014648;1.527344;
437235;0.110352;0.019531;1.631836;
437375;0.111328;0.019531;1.720703;
437511;0.116211;0.015625;1.791992;
437660;0.124023;0.020508;1.847656;
437812;0.126953;0.014648;1.864258;
437960;0.128906;0.016602;1.911133;
438100;0.125977;0.008789;1.911133;
438255;0.127930;0.010742;1.912109;
438395;0.125000;0.010742;1.890625;
438535;0.123047;0.011719;1.868164;
438675;0.123047;0.008789;1.836914;
438815;0.121094;0.009766;1.826172;
438955;0.123047;0.010742;1.817383;
439095;0.116211;0.008789;1.790039;
439235;0.119141;0.014648;1.767578;
439375;0.117188;0.010742;1.743164;
439515;0.118164;0.015625;1.757812;
439655;0.120117;0.021484;1.778320;
439795;0.122070;0.018555;1.800781;
439935;0.125000;0.015625;1.816406;
440075;0.124023;0.015625;1.846680;
440211;0.125000;0.010742;1.879883;
440360;0.126953;0.020508;1.896484;
440501;0.128906;0.012695;1.897461;
440650;0.130859;0.013672;1.903320;
440801;0.135742;0.013672;1.912109;
440945;0.130859;0.005859;1.905273;
441085;0.126953;0.010742;1.880859;
441225;0.125977;0.008789;1.863281;
441365;0.125000;0.013672;1.841797;
441505;0.125977;0.017578;1.816406;
441645;0.125977;0.010742;1.780273;
441785;0.124023;0.014648;1.790039;
441925;0.124023;0.015625;1.792969;
442065;0.123047;0.018555;1.771484;
442205;0.125000;0.016602;1.786133;
442345;0.125000;0.018555;1.801758;
442485;0.126953;0.018555;1.818359;
442625;0.125977;0.018555;1.824219;
442765;0.130859;0.023438;1.833008;
442901;0.132812;0.018555;1.844727;
443050;0.128906;0.017578;1.828125;
443180;0.130859;0.017578;1.840820;
443311;0.132812;0.010742;1.845703;
443460;0.137695;0.012695;1.865234;
443615;0.135742;0.008789;1.864258;
443765;0.137695;0.011719;1.845703;
443905;0.139648;0.009766;1.838867;
444055;0.136719;0.011719;1.841797;
444195;0.136719;0.013672;1.823242;
444335;0.139648;0.014648;1.852539;
444475;0.138672;0.018555;1.843750;
444615;0.140625;0.013672;1.824219;
444755;0.145508;0.014648;1.840820;
444895;0.141602;0.010742;1.827148;
445035;0.145508;0.011719;1.815430;
445185;0.143555;0.012695;1.808594;
445325;0.138672;0.018555;1.829102;
445465;0.141602;0.025391;1.840820;
445610;0.140625;0.008789;1.839844;
445760;0.147461;0.019531;1.850586;
445910;0.146484;0.011719;1.849609;
446060;0.150391;0.017578;1.850586;
446211;0.145508;0.013672;1.820312;
446365;0.156250;0.024414;1.836914;
446505;0.147461;0.025391;1.837891;
446655;0.153320;0.027344;1.833984;
446795;0.149414;0.022461;1.815430;
446935;0.151367;0.011719;1.825195;
447085;0.157227;0.011719;1.849609;
447225;0.155273;0.022461;1.852539;
447365;0.151367;0.003906;1.861328;
447515;0.164062;0.001953;1.872070;
447655;0.160156;0.004883;1.852539;
447795;0.159180;0.002930;1.850586;
447935;0.156250;0.006836;1.843750;
448075;0.162109;0.010742;1.848633;
448215;0.160156;0.008789;1.828125;
448360;0.166016;0.006836;1.827148;
448511;0.164062;0.010742;1.827148;
448660;0.162109;0.021484;1.830078;
448802;0.165039;0.008789;1.825195;
448950;0.162109;0.013672;1.814453;
449095;0.165039;0.012695;1.809570;
449245;0.169922;0.008789;1.816406;
449385;0.166016;0.015625;1.796875;
449525;0.165039;0.013672;1.805664;
449675;0.167969;0.011719;1.799805;
449815;0.166992;0.011719;1.805664;
449955;0.170898;0.017578;1.805664;
450105;0.169922;0.007812;1.784180;
450245;0.172852;0.005859;1.767578;
450385;0.174805;0.008789;1.792969;
450535;0.173828;0.006836;1.789062;
450675;0.177734;0.005859;1.798828;
450815;0.176758;0.005859;1.798828;
450955;0.179688;0.006836;1.813477;
451090;0.180664;0.009766;1.824219;
451240;0.182617;0.019531;1.825195;
451370;0.182617;0.018555;1.826172;
451520;0.185547;0.018555;1.839844;
451660;0.185547;0.029297;1.863281;
451815;0.190430;0.025391;1.851562;
451965;0.193359;0.023438;1.838867;
452105;0.185547;0.027344;1.825195;
452245;0.191406;0.014648;1.804688;
452385;0.194336;0.015625;1.817383;
452525;0.189453;0.019531;1.816406;
452665;0.195312;0.014648;1.824219;
452805;0.193359;0.011719;1.801758;
452945;0.187500;0.020508;1.745117;
453095;0.187500;0.007812;1.710938;
453235;0.192383;0.008789;1.733398;
453375;0.186523;0.013672;1.758789;
453515;0.191406;0.000000;1.707031;
453655;0.192383;0.004883;1.697266;
453790;0.192383;0.023438;1.709961;
453941;0.192383;0.019531;1.704102;
454090;0.195312;0.016602;1.739258;
454240;0.200195;0.021484;1.732422;
454391;0.197266;0.017578;1.726562;
454545;0.202148;0.019531;1.700195;
454685;0.204102;0.020508;1.697266;
454835;0.199219;0.020508;1.698242;
454975;0.205078;0.024414;1.660156;
455115;0.203125;0.030273;1.660156;
455265;0.197266;0.031250;1.607422;
455405;0.205078;0.021484;1.605469;
455545;0.196289;0.027344;1.587891;
455685;0.191406;0.016602;1.553711;
455825;0.188477;0.021484;1.541016;
455965;0.180664;0.017578;1.513672;
456105;0.177734;0.019531;1.497070;
456245;0.173828;0.021484;1.484375;
456395;0.163086;0.014648;1.458984;
456540;0.164062;0.014648;1.477539;
456690;0.154297;0.012695;1.474609;
456840;0.145508;0.013672;1.416016;
456991;0.132812;0.013672;1.348633;
457130;0.118164;0.011719;1.279297;
457275;0.099609;0.010742;1.176758;
457415;0.086914;0.016602;1.101562;
457555;0.070312;0.015625;0.974609;
457695;0.060547;0.020508;0.910156;
457835;0.045898;0.018555;0.784180;
457975;0.037109;0.020508;0.681641;
458115;0.022461;0.021484;0.568359;
458250;0.021484;0.017578;0.534180;
458395;0.017578;0.018555;0.425781;
458535;0.013672;0.021484;0.340820;
458675;0.012695;0.024414;0.301758;
458815;0.008789;0.019531;0.217773;
458955;0.007812;0.020508;0.192383;
459095;0.001953;0.016602;0.152344;
459230;0.004883;0.020508;0.132812;
459380;0.001953;0.022461;0.130859;
459510;0.000977;0.022461;0.122070;
459660;-0.001953;0.022461;0.098633;
459811;-0.000977;0.020508;0.090820;
459965;0.000977;0.023438;0.087891;
460105;-0.001953;0.019531;0.083984;
460245;-0.003906;0.020508;0.070312;
460385;0.000977;0.023438;0.078125;
460525;-0.004883;0.021484;0.073242;
460665;-0.000977;0.021484;0.090820;
460805;-0.003906;0.020508;0.079102;
460945;-0.003906;0.019531;0.075195;
461085;-0.005859;0.021484;0.065430;
461225;-0.005859;0.022461;0.054688;
461365;-0.006836;0.017578;0.049805;
461505;-0.008789;0.021484;0.053711;
461645;-0.008789;0.023438;0.042969;
461785;-0.007812;0.024414;0.048828;
461920;-0.009766;0.028320;0.036133;
462061;-0.005859;0.029297;0.045898;
462201;-0.006836;0.030273;0.030273;
462360;-0.009766;0.029297;0.018555;
462511;-0.008789;0.028320;0.023438;
462662;-0.009766;0.031250;0.018555;
462805;-0.008789;0.032227;0.000977;
462945;-0.012695;0.032227;0.003906;
463085;-0.009766;0.033203;-0.003906;
463226;-0.008789;0.033203;0.000000;
463375;-0.009766;0.029297;-0.004883;
463515;-0.009766;0.029297;-0.005859;
463655;-0.009766;0.031250;-0.000977;
463795;-0.012695;0.028320;0.000977;
463935;-0.010742;0.032227;0.009766;
464075;-0.008789;0.030273;0.019531;
464215;-0.007812;0.027344;0.024414;
464345;-0.010742;0.031250;0.021484;
464495;-0.012695;0.030273;0.019531;
464630;-0.012695;0.033203;0.023438;
464780;-0.011719;0.033203;0.025391;
464930;-0.010742;0.032227;0.026367;
465070;-0.012695;0.030273;0.026367;
465220;-0.016602;0.029297;0.030273;
465375;-0.015625;0.029297;0.031250;
465525;-0.014648;0.029297;0.035156;
465665;-0.016602;0.033203;0.036133;
465805;-0.014648;0.030273;0.036133;
465945;-0.017578;0.036133;0.028320;
466085;-0.014648;0.034180;0.040039;
466225;-0.015625;0.033203;0.040039;
466360;-0.012695;0.031250;0.039062;
466505;-0.012695;0.032227;0.038086;
466655;-0.012695;0.028320;0.038086;
466795;-0.012695;0.033203;0.028320;
466935;-0.013672;0.030273;0.034180;
467075;-0.017578;0.032227;0.031250;
467215;-0.014648;0.028320;0.027344;
467351;-0.009766;0.027344;0.040039;
467500;-0.012695;0.030273;0.031250;
467641;-0.011719;0.032227;0.028320;
467780;-0.013672;0.033203;0.021484;
467911;-0.009766;0.030273;0.023438;
468060;-0.008789;0.035156;0.016602;
468215;-0.010742;0.037109;0.008789;
468365;-0.011719;0.030273;0.008789;
468505;-0.011719;0.034180;0.017578;
468645;-0.010742;0.032227;0.029297;
468795;-0.011719;0.028320;0.028320;
468935;-0.011719;0.028320;0.017578;
469075;-0.012695;0.034180;0.013672;
469215;-0.006836;0.031250;0.006836;
469355;-0.009766;0.034180;-0.003906;
469505;-0.008789;0.030273;-0.016602;
469645;-0.008789;0.033203;-0.017578;
469785;-0.014648;0.027344;0.000000;
469935;-0.014648;0.032227;0.004883;
470075;-0.015625;0.035156;-0.006836;
470215;-0.013672;0.034180;-0.016602;
470341;-0.015625;0.024414;0.003906;
470481;-0.013672;0.022461;0.004883;
470631;-0.013672;0.029297;0.017578;
470780;-0.012695;0.026367;0.015625;
470930;-0.013672;0.025391;0.022461;
471085;-0.015625;0.024414;0.032227;
471225;-0.012695;0.029297;0.016602;
471365;-0.013672;0.027344;0.028320;
471505;-0.017578;0.023438;0.037109;
471655;-0.012695;0.024414;0.037109;
471795;-0.016602;0.027344;0.029297;
471935;-0.017578;0.020508;0.038086;
472075;-0.013672;0.020508;0.043945;
472215;-0.013672;0.016602;0.035156;
472365;-0.016602;0.019531;0.022461;
472505;-0.014648;0.019531;0.030273;
472655;-0.016602;0.018555;0.030273;
472805;-0.015625;0.021484;0.017578;
472945;-0.017578;0.020508;0.016602;
473080;-0.016602;0.018555;0.012695;
473220;-0.015625;0.013672;0.013672;
473371;-0.017578;0.015625;0.012695;
473522;-0.015625;0.012695;0.009766;
473660;-0.015625;0.014648;-0.000977;
473800;-0.016602;0.008789;0.000000;
473960;-0.015625;0.008789;0.000977;
474115;-0.017578;0.005859;-0.010742;
474255;-0.017578;0.009766;-0.010742;
474405;-0.015625;0.009766;-0.018555;
474545;-0.019531;0.009766;-0.022461;
474685;-0.019531;0.013672;-0.021484;
474835;-0.018555;0.016602;-0.029297;
474975;-0.019531;0.014648;-0.023438;
475115;-0.020508;0.017578;-0.031250;
475265;-0.016602;0.016602;-0.024414;
475405;-0.021484;0.016602;-0.030273;
475545;-0.021484;0.014648;-0.023438;
475685;-0.022461;0.016602;-0.028320;
475825;-0.021484;0.016602;-0.022461;
475960;-0.021484;0.017578;-0.022461;
476120;-0.020508;0.016602;-0.012695;
476270;-0.022461;0.017578;-0.003906;
476420;-0.020508;0.016602;-0.003906;
476571;-0.021484;0.016602;-0.000977;
476725;-0.022461;0.019531;0.004883;
476865;-0.024414;0.020508;0.015625;
477005;-0.024414;0.017578;0.009766;
477145;-0.025391;0.020508;0.011719;
477295;-0.024414;0.020508;0.015625;
477435;-0.025391;0.018555;0.023438;
477575;-0.025391;0.020508;0.024414;
477715;-0.025391;0.016602;0.027344;
477855;-0.026367;0.018555;0.025391;
478005;-0.024414;0.021484;0.035156;
478145;-0.027344;0.017578;0.025391;
478285;-0.029297;0.019531;0.020508;
478425;-0.028320;0.020508;0.026367;
478565;-0.030273;0.018555;0.015625;
478700;-0.029297;0.020508;0.017578;
478850;-0.026367;0.017578;0.017578;
479000;-0.031250;0.021484;0.018555;
479130;-0.029297;0.016602;0.017578;
479280;-0.031250;0.020508;0.015625;
479435;-0.032227;0.017578;0.012695;
479575;-0.030273;0.019531;0.023438;
479715;-0.032227;0.015625;0.016602;
479855;-0.033203;0.018555;0.013672;
479995;-0.032227;0.019531;0.012695;
480135;-0.030273;0.019531;0.008789;
480285;-0.032227;0.021484;0.011719;
480425;-0.033203;0.020508;0.008789;
480565;-0.033203;0.022461;0.008789;
480705;-0.035156;0.024414;-0.000977;
480845;-0.035156;0.027344;0.000977;
480995;-0.036133;0.030273;0.000977;
481135;-0.036133;0.027344;0.001953;
481275;-0.037109;0.027344;0.000977;
481427;-0.037109;0.025391;-0.000977;
481571;-0.040039;0.025391;0.018555;
481710;-0.041016;0.029297;0.025391;
481850;-0.042969;0.029297;0.050781;
482000;-0.046875;0.031250;0.087891;
482150;-0.046875;0.029297;0.146484;
482305;-0.048828;0.028320;0.191406;
482445;-0.043945;0.030273;0.295898;
482585;-0.041992;0.035156;0.360352;
482725;-0.035156;0.033203;0.473633;
482865;-0.028320;0.034180;0.581055;
483005;-0.026367;0.036133;0.663086;
483145;-0.018555;0.037109;0.770508;
483285;-0.015625;0.037109;0.845703;
483425;-0.005859;0.034180;0.956055;
483565;0.000000;0.033203;1.034180;
483705;0.007812;0.032227;1.130859;
483845;0.015625;0.030273;1.201172;
483985;0.027344;0.030273;1.273438;
484125;0.039062;0.029297;1.349609;
484260;0.044922;0.027344;1.409180;
484400;0.049805;0.026367;1.451172;
484550;0.053711;0.030273;1.488281;
484700;0.052734;0.031250;1.535156;
484850;0.052734;0.031250;1.563477;
485005;0.055664;0.027344;1.584961;
485155;0.054688;0.020508;1.624023;
485295;0.060547;0.030273;1.671875;
485445;0.056641;0.023438;1.665039;
485585;0.048828;0.024414;1.727539;
485725;0.057617;0.029297;1.772461;
485865;0.052734;0.021484;1.736328;
486005;0.054688;0.022461;1.777344;
486145;0.052734;0.026367;1.789062;
486285;0.046875;0.009766;1.824219;
486435;0.057617;0.003906;1.767578;
486575;0.058594;0.000977;1.795898;
486715;0.045898;-0.012695;1.763672;
486855;0.054688;0.013672;1.805664;
486990;0.049805;0.008789;1.847656;
487140;0.047852;0.007812;1.801758;
487290;0.047852;0.014648;1.797852;
487440;0.042969;0.014648;1.785156;
487595;0.044922;0.030273;1.805664;
487735;0.045898;0.030273;1.781250;
487885;0.041016;0.027344;1.766602;
488025;0.039062;0.024414;1.759766;
488165;0.040039;0.020508;1.777344;
488305;0.032227;0.023438;1.782227;
488445;0.035156;0.021484;1.793945;
488585;0.037109;0.022461;1.808594;
488725;0.038086;0.021484;1.827148;
488865;0.034180;0.025391;1.823242;
489005;0.034180;0.028320;1.838867;
489145;0.036133;0.024414;1.835938;
489285;0.039062;0.028320;1.847656;
489435;0.036133;0.021484;1.852539;
489571;0.036133;0.026367;1.864258;
489721;0.035156;0.030273;1.853516;
489870;0.033203;0.036133;1.866211;
490011;0.022461;0.022461;1.833984;
490150;0.022461;0.033203;1.802734;
490292;0.022461;0.023438;1.783203;
490435;0.013672;0.018555;1.770508;
490585;0.014648;0.007812;1.750000;
490725;0.014648;0.017578;1.763672;
490865;0.008789;0.010742;1.756836;
491015;0.010742;0.017578;1.758789;
491155;0.009766;0.010742;1.736328;
491295;0.002930;0.016602;1.712891;
491435;0.004883;0.018555;1.697266;
491575;0.001953;0.027344;1.704102;
491715;0.000977;0.022461;1.716797;
491855;0.002930;0.024414;1.735352;
491995;-0.003906;0.019531;1.720703;
492135;-0.001953;0.032227;1.725586;
492275;-0.005859;0.030273;1.734375;
492411;-0.005859;0.029297;1.741211;
492561;-0.004883;0.023438;1.747070;
492710;-0.003906;0.019531;1.758789;
492861;-0.004883;0.014648;1.766602;
493015;-0.003906;0.019531;1.780273;
493155;-0.005859;0.012695;1.789062;
493295;-0.002930;0.019531;1.800781;
493435;-0.003906;0.018555;1.811523;
493575;-0.007812;0.021484;1.819336;
493715;-0.003906;0.023438;1.828125;
493855;-0.006836;0.024414;1.831055;
494005;-0.002930;0.015625;1.829102;
494145;-0.005859;0.016602;1.829102;
494285;-0.006836;0.017578;1.837891;
494435;-0.003906;0.012695;1.838867;
494575;-0.006836;0.008789;1.833984;
494715;-0.006836;0.007812;1.841797;
494865;-0.008789;0.001953;1.835938;
495000;-0.007812;0.007812;1.836914;
495162;-0.011719;0.009766;1.824219;
495310;-0.013672;0.010742;1.804688;
495451;-0.014648;0.013672;1.798828;
495600;-0.017578;0.017578;1.765625;
495745;-0.021484;0.015625;1.747070;
495885;-0.024414;0.024414;1.721680;
496035;-0.025391;0.021484;1.691406;
496175;-0.029297;0.022461;1.678711;
496315;-0.031250;0.016602;1.648438;
496465;-0.033203;0.020508;1.643555;
496605;-0.036133;0.013672;1.637695;
496745;-0.036133;0.012695;1.635742;
496895;-0.035156;0.014648;1.648438;
497035;-0.033203;0.017578;1.668945;
497175;-0.031250;0.014648;1.689453;
497315;-0.029297;0.018555;1.713867;
497455;-0.030273;0.015625;1.730469;
497595;-0.023438;0.015625;1.758789;
497750;-0.026367;0.018555;1.770508;
497900;-0.024414;0.015625;1.782227;
498050;-0.023438;0.016602;1.799805;
498195;-0.026367;0.019531;1.783203;
498335;-0.024414;0.020508;1.782227;
498473;-0.027344;0.016602;1.770508;
498620;-0.029297;0.012695;1.755859;
498775;-0.031250;0.015625;1.731445;
498925;-0.034180;0.016602;1.722656;
499065;-0.033203;0.015625;1.716797;
499205;-0.038086;0.017578;1.686523;
499355;-0.041992;0.014648;1.675781;
499495;-0.043945;0.017578;1.655273;
499635;-0.041016;0.022461;1.633789;
499775;-0.043945;0.016602;1.618164;
499915;-0.044922;0.018555;1.610352;
500055;-0.046875;0.024414;1.601562;
500205;-0.045898;0.024414;1.596680;
500345;-0.048828;0.025391;1.590820;
500485;-0.050781;0.023438;1.578125;
500625;-0.050781;0.024414;1.576172;
500750;-0.049805;0.025391;1.575195;
500890;-0.053711;0.020508;1.564453;
501040;-0.049805;0.017578;1.554688;
501190;-0.052734;0.020508;1.549805;
501340;-0.045898;0.017578;1.567383;
501485;-0.048828;0.014648;1.562500;
501625;-0.049805;0.017578;1.561523;
501765;-0.047852;0.010742;1.565430;
501905;-0.049805;0.014648;1.562500;
502045;-0.052734;0.020508;1.548828;
502185;-0.052734;0.018555;1.535156;
502325;-0.051758;0.016602;1.528320;
502465;-0.060547;0.017578;1.497070;
502605;-0.060547;0.018555;1.456055;
502745;-0.061523;0.016602;1.424805;
502885;-0.065430;0.020508;1.397461;
503025;-0.067383;0.030273;1.375977;
503165;-0.069336;0.017578;1.343750;
503305;-0.067383;0.026367;1.330078;
503452;-0.072266;0.024414;1.309570;
503600;-0.074219;0.025391;1.296875;
503750;-0.069336;0.019531;1.267578;
503900;-0.073242;0.025391;1.250000;
504055;-0.079102;0.011719;1.264648;
504195;-0.071289;0.019531;1.274414;
504345;-0.072266;0.018555;1.268555;
504485;-0.074219;0.013672;1.258789;
504625;-0.077148;0.010742;1.250000;
504775;-0.073242;0.023438;1.264648;
504915;-0.078125;0.016602;1.256836;
505055;-0.071289;0.022461;1.286133;
505205;-0.076172;0.013672;1.276367;
505345;-0.071289;0.028320;1.263672;
505485;-0.076172;0.022461;1.257812;
505625;-0.075195;0.023438;1.254883;
505765;-0.073242;0.025391;1.238281;
505915;-0.073242;0.027344;1.237305;
506051;-0.074219;0.026367;1.240234;
506200;-0.072266;0.032227;1.231445;
506350;-0.072266;0.028320;1.232422;
506500;-0.069336;0.029297;1.242188;
506651;-0.069336;0.027344;1.232422;
506785;-0.064453;0.024414;1.224609;
506925;-0.064453;0.022461;1.232422;
507065;-0.059570;0.024414;1.222656;
507205;-0.063477;0.015625;1.207031;
507355;-0.053711;0.022461;1.206055;
507495;-0.057617;0.020508;1.184570;
507645;-0.056641;0.020508;1.160156;
507785;-0.051758;0.020508;1.149414;
507925;-0.049805;0.020508;1.143555;
508065;-0.048828;0.021484;1.134766;
508205;-0.042969;0.016602;1.128906;
508345;-0.037109;0.020508;1.140625;
508485;-0.030273;0.019531;1.137695;
508625;-0.028320;0.015625;1.125000;
508761;-0.020508;0.026367;1.141602;
508911;-0.016602;0.029297;1.139648;
509050;-0.018555;0.025391;1.133789;
509190;-0.018555;0.020508;1.133789;
509340;-0.018555;0.025391;1.128906;
509491;-0.017578;0.026367;1.127930;
509635;-0.022461;0.030273;1.117188;
509775;-0.020508;0.026367;1.113281;
509915;-0.022461;0.030273;1.117188;
510055;-0.018555;0.031250;1.105469;
510195;-0.025391;0.033203;1.104492;
510345;-0.022461;0.023438;1.085938;
510485;-0.024414;0.022461;1.086914;
510625;-0.023438;0.025391;1.064453;
510765;-0.023438;0.021484;1.044922;
510905;-0.027344;0.025391;1.048828;
511045;-0.024414;0.025391;1.044922;
511185;-0.025391;0.031250;1.051758;
511335;-0.023438;0.031250;1.037109;
511475;-0.026367;0.035156;1.028320;
511610;-0.027344;0.035156;1.018555;
511750;-0.029297;0.030273;1.012695;
511890;-0.029297;0.029297;1.000977;
512041;-0.024414;0.032227;0.994141;
512192;-0.025391;0.026367;0.979492;
512335;-0.024414;0.025391;0.998047;
512485;-0.027344;0.027344;1.016602;
512625;-0.022461;0.032227;1.027344;
512765;-0.023438;0.026367;1.047852;
512905;-0.023438;0.031250;1.080078;
513045;-0.021484;0.028320;1.110352;
513195;-0.021484;0.034180;1.130859;
513335;-0.019531;0.027344;1.157227;
513475;-0.014648;0.022461;1.164062;
513615;-0.021484;0.018555;1.178711;
513755;-0.014648;0.022461;1.191406;
513895;-0.013672;0.012695;1.211914;
514035;-0.012695;0.014648;1.215820;
514175;-0.013672;0.018555;1.208008;
514320;-0.014648;0.015625;1.206055;
514470;-0.015625;0.010742;1.199219;
514600;-0.014648;0.013672;1.191406;
514750;-0.016602;0.021484;1.191406;
514900;-0.021484;0.022461;1.170898;
515055;-0.017578;0.023438;1.163086;
515195;-0.017578;0.032227;1.172852;
515335;-0.019531;0.025391;1.180664;
515475;-0.017578;0.031250;1.155273;
515625;-0.018555;0.026367;1.148438;
515765;-0.020508;0.028320;1.133789;
515915;-0.022461;0.023438;1.118164;
516055;-0.021484;0.034180;1.110352;
516195;-0.024414;0.023438;1.071289;
516345;-0.020508;0.027344;1.057617;
516485;-0.023438;0.030273;1.041016;
516625;-0.027344;0.029297;1.021484;
516765;-0.026367;0.026367;1.021484;
516905;-0.026367;0.024414;1.012695;
517041;-0.023438;0.030273;1.015625;
517190;-0.025391;0.027344;1.019531;
517340;-0.026367;0.027344;1.026367;
517490;-0.024414;0.023438;1.019531;
517645;-0.022461;0.018555;1.016602;
517785;-0.026367;0.020508;1.030273;
517935;-0.026367;0.022461;1.017578;
518075;-0.024414;0.019531;1.025391;
518215;-0.025391;0.023438;1.008789;
518365;-0.023438;0.019531;1.011719;
518505;-0.024414;0.021484;1.035156;
518645;-0.022461;0.032227;1.028320;
518785;-0.023438;0.033203;1.031250;
518925;-0.023438;0.023438;1.028320;
519065;-0.024414;0.026367;1.023438;
519205;-0.020508;0.023438;1.030273;
519345;-0.021484;0.026367;1.031250;
519485;-0.024414;0.026367;1.029297;
519622;-0.024414;0.028320;1.034180;
519771;-0.024414;0.025391;1.032227;
519920;-0.022461;0.024414;1.042969;
520070;-0.023438;0.021484;1.037109;
520205;-0.024414;0.022461;1.028320;
520331;-0.024414;0.021484;1.014648;
520470;-0.023438;0.021484;1.015625;
520615;-0.024414;0.025391;1.014648;
520765;-0.023438;0.021484;1.016602;
520905;-0.025391;0.021484;1.012695;
521045;-0.023438;0.019531;1.005859;
521185;-0.024414;0.017578;1.015625;
521325;-0.023438;0.022461;1.023438;
521465;-0.021484;0.020508;1.030273;
521605;-0.021484;0.026367;1.031250;
521745;-0.023438;0.021484;1.039062;
521885;-0.023438;0.023438;1.029297;
522025;-0.025391;0.019531;1.035156;
522165;-0.020508;0.023438;1.041016;
522305;-0.024414;0.023438;1.048828;
522445;-0.023438;0.026367;1.056641;
522590;-0.023438;0.027344;1.041016;
522741;-0.024414;0.025391;1.051758;
522890;-0.022461;0.021484;1.047852;
523020;-0.021484;0.025391;1.044922;
523170;-0.023438;0.026367;1.046875;
523320;-0.022461;0.024414;1.023438;
523465;-0.025391;0.019531;1.017578;
523615;-0.026367;0.020508;1.021484;
523755;-0.023438;0.021484;1.002930;
523895;-0.024414;0.026367;1.001953;
524035;-0.027344;0.018555;0.995117;
524175;-0.024414;0.019531;1.002930;
524325;-0.021484;0.020508;1.001953;
524465;-0.027344;0.021484;0.999023;
524605;-0.025391;0.019531;1.000000;
524745;-0.025391;0.023438;0.993164;
524885;-0.027344;0.024414;0.997070;
525025;-0.024414;0.024414;0.998047;
525165;-0.025391;0.021484;1.000977;
525305;-0.028320;0.024414;0.985352;
525440;-0.024414;0.027344;0.993164;
525590;-0.025391;0.028320;1.007812;
525740;-0.025391;0.028320;1.016602;
525890;-0.025391;0.027344;1.011719;
526045;-0.022461;0.028320;1.039062;
526185;-0.024414;0.022461;1.028320;
526325;-0.020508;0.026367;1.041992;
526465;-0.022461;0.027344;1.033203;
526605;-0.027344;0.025391;1.033203;
526745;-0.022461;0.032227;1.035156;
526885;-0.020508;0.030273;1.042969;
527025;-0.019531;0.026367;1.059570;
527165;-0.021484;0.023438;1.047852;
527305;-0.023438;0.021484;1.035156;
527445;-0.022461;0.024414;1.037109;
527585;-0.020508;0.025391;1.033203;
527725;-0.022461;0.024414;1.040039;
527865;-0.019531;0.021484;1.049805;
528000;-0.020508;0.023438;1.052734;
528160;-0.019531;0.025391;1.065430;
528312;-0.019531;0.023438;1.068359;
528460;-0.019531;0.028320;1.080078;
528610;-0.020508;0.028320;1.077148;
528745;-0.021484;0.033203;1.075195;
528885;-0.016602;0.031250;1.100586;
529035;-0.018555;0.030273;1.117188;
529175;-0.018555;0.029297;1.115234;
529315;-0.017578;0.025391;1.117188;
529455;-0.018555;0.026367;1.125000;
529595;-0.019531;0.027344;1.130859;
529745;-0.015625;0.026367;1.138672;
529885;-0.016602;0.025391;1.134766;
530025;-0.018555;0.023438;1.109375;
530165;-0.015625;0.023438;1.102539;
530305;-0.017578;0.018555;1.082031;
530445;-0.019531;0.021484;1.067383;
530585;-0.018555;0.020508;1.059570;
530720;-0.020508;0.023438;1.055664;
530870;-0.017578;0.026367;1.037109;
531020;-0.022461;0.026367;1.036133;
531150;-0.022461;0.024414;1.029297;
531295;-0.023438;0.027344;1.020508;
531421;-0.023438;0.019531;1.005859;
531571;-0.024414;0.022461;1.005859;
531715;-0.021484;0.020508;1.000977;
531855;-0.022461;0.022461;1.005859;
531995;-0.020508;0.022461;1.011719;
532135;-0.023438;0.027344;1.000000;
532285;-0.024414;0.028320;0.999023;
532425;-0.019531;0.029297;1.000977;
532565;-0.024414;0.035156;1.010742;
532705;-0.026367;0.027344;1.010742;
532845;-0.023438;0.033203;1.002930;
532985;-0.021484;0.034180;0.999023;
533125;-0.022461;0.038086;0.996094;
533265;-0.022461;0.029297;1.010742;
533405;-0.024414;0.025391;1.001953;
533545;-0.024414;0.023438;0.994141;
533681;-0.020508;0.022461;0.999023;
533840;-0.022461;0.023438;0.997070;
533990;-0.021484;0.021484;0.999023;
534142;-0.022461;0.017578;0.988281;
534290;-0.023438;0.019531;0.995117;
534435;-0.023438;0.020508;1.000000;
534585;-0.023438;0.022461;0.993164;
534725;-0.026367;0.020508;0.991211;
534865;-0.026367;0.023438;0.989258;
535005;-0.020508;0.018555;0.996094;
535145;-0.020508;0.019531;0.997070;
535285;-0.022461;0.019531;0.987305;
535435;-0.023438;0.023438;0.976562;
535575;-0.023438;0.030273;0.975586;
535715;-0.025391;0.028320;0.971680;
535855;-0.027344;0.032227;0.960938;
535995;-0.028320;0.033203;0.965820;
536135;-0.023438;0.031250;0.984375;
536275;-0.022461;0.031250;0.980469;
536410;-0.022461;0.028320;0.987305;
536550;-0.022461;0.030273;1.018555;
536701;-0.019531;0.030273;1.038086;
536850;-0.020508;0.024414;1.049805;
537005;-0.022461;0.022461;1.066406;
537145;-0.019531;0.020508;1.078125;
537295;-0.020508;0.022461;1.085938;
537435;-0.020508;0.021484;1.087891;
537575;-0.017578;0.014648;1.096680;
537725;-0.016602;0.018555;1.093750;
537865;-0.017578;0.016602;1.096680;
538005;-0.019531;0.020508;1.094727;
538145;-0.018555;0.025391;1.088867;
538285;-0.018555;0.023438;1.081055;
538425;-0.021484;0.021484;1.083984;
538565;-0.020508;0.026367;1.079102;
538705;-0.019531;0.033203;1.090820;
538845;-0.020508;0.033203;1.090820;
538985;-0.022461;0.036133;1.073242;
539131;-0.017578;0.033203;1.087891;
539280;-0.017578;0.031250;1.093750;
539410;-0.021484;0.026367;1.083984;
539555;-0.019531;0.031250;1.083008;
539695;-0.020508;0.020508;1.079102;
539831;-0.017578;0.024414;1.094727;
539970;-0.019531;0.023438;1.094727;
540115;-0.016602;0.019531;1.106445;
540255;-0.016602;0.023438;1.102539;
540395;-0.012695;0.019531;1.105469;
540535;-0.016602;0.023438;1.098633;
540675;-0.017578;0.025391;1.110352;
540815;-0.015625;0.021484;1.106445;
540955;-0.017578;0.026367;1.103516;
541095;-0.018555;0.023438;1.103516;
541235;-0.015625;0.026367;1.104492;
541385;-0.017578;0.021484;1.094727;
541525;-0.014648;0.026367;1.102539;
541665;-0.017578;0.022461;1.109375;
541805;-0.015625;0.026367;1.093750;
541945;-0.013672;0.029297;1.104492;
542080;-0.016602;0.027344;1.113281;
542231;-0.017578;0.028320;1.108398;
542362;-0.015625;0.028320;1.106445;
542500;-0.016602;0.022461;1.097656;
542650;-0.016602;0.023438;1.079102;
542803;-0.014648;0.023438;1.083008;
542955;-0.013672;0.020508;1.075195;
543095;-0.016602;0.023438;1.062500;
543235;-0.015625;0.021484;1.043945;
543375;-0.019531;0.020508;1.036133;
543515;-0.019531;0.028320;1.037109;
543655;-0.017578;0.024414;1.019531;
543795;-0.020508;0.025391;1.011719;
543945;-0.020508;0.030273;1.001953;
544085;-0.017578;0.030273;0.995117;
544225;-0.021484;0.029297;0.989258;
544375;-0.023438;0.031250;0.967773;
544515;-0.021484;0.029297;0.961914;
544655;-0.027344;0.019531;0.947266;
544795;-0.018555;0.021484;0.962891;
544930;-0.020508;0.026367;0.969727;
545080;-0.025391;0.027344;0.940430;
545231;-0.018555;0.028320;0.949219;
545381;-0.025391;0.028320;0.949219;
545535;-0.026367;0.021484;0.946289;
545685;-0.025391;0.020508;0.937500;
545825;-0.020508;0.022461;0.950195;
545965;-0.026367;0.024414;0.944336;
546105;-0.018555;0.017578;0.936523;
546245;-0.021484;0.026367;0.948242;
546395;-0.022461;0.029297;0.960938;
546535;-0.018555;0.023438;0.958984;
546675;-0.023438;0.016602;0.958984;
546815;-0.020508;0.036133;0.978516;
546955;-0.022461;0.029297;0.985352;
547095;-0.021484;0.025391;1.007812;
547235;-0.015625;0.032227;1.013672;
547385;-0.015625;0.029297;1.012695;
547522;-0.013672;0.021484;1.026367;
547670;-0.010742;0.025391;1.040039;
547820;-0.011719;0.024414;1.038086;
547970;-0.003906;0.021484;1.046875;
548120;-0.001953;0.020508;1.046875;
548275;-0.003906;0.018555;1.041992;
548415;0.000977;0.020508;1.042969;
548555;0.000000;0.027344;1.043945;
548705;-0.000977;0.023438;1.042969;
548845;-0.004883;0.021484;1.034180;
548985;-0.004883;0.023438;1.037109;
549125;-0.010742;0.027344;1.034180;
549265;-0.009766;0.026367;1.033203;
549405;-0.008789;0.028320;1.040039;
549545;-0.011719;0.021484;1.034180;
549685;-0.006836;0.022461;1.029297;
549825;-0.009766;0.020508;1.035156;
549965;-0.009766;0.027344;1.015625;
550105;-0.009766;0.027344;1.027344;
550240;-0.009766;0.027344;1.022461;
550380;-0.009766;0.023438;1.007812;
550532;-0.009766;0.030273;1.016602;
550681;-0.009766;0.029297;1.005859;
550821;-0.009766;0.029297;1.008789;
550965;-0.008789;0.022461;1.018555;
551105;-0.007812;0.031250;1.032227;
551255;-0.011719;0.026367;1.041992;
551395;-0.005859;0.027344;1.043945;
551535;-0.009766;0.028320;1.041992;
551685;-0.009766;0.024414;1.032227;
551825;-0.010742;0.024414;1.020508;
551965;-0.007812;0.018555;1.029297;
552105;-0.012695;0.017578;1.031250;
552245;-0.007812;0.020508;1.026367;
552395;-0.013672;0.022461;1.024414;
552535;-0.014648;0.031250;1.012695;
552675;-0.008789;0.031250;1.004883;
552815;-0.011719;0.021484;0.993164;
552950;-0.009766;0.022461;0.994141;
553101;-0.010742;0.027344;1.003906;
553250;-0.013672;0.014648;1.000977;
553400;-0.009766;0.030273;0.997070;
553540;-0.011719;0.027344;0.997070;
553685;-0.011719;0.021484;1.001953;
553825;-0.010742;0.026367;0.993164;
553965;-0.011719;0.030273;0.995117;
554105;-0.014648;0.022461;0.995117;
554245;-0.010742;0.016602;1.016602;
554385;-0.008789;0.028320;1.019531;
554525;-0.014648;0.017578;1.014648;
554675;-0.007812;0.024414;1.025391;
554815;-0.010742;0.028320;1.033203;
554955;-0.011719;0.019531;1.048828;
555105;-0.009766;0.012695;1.039062;
555245;-0.008789;0.019531;1.046875;
555385;-0.007812;0.014648;1.058594;
555525;-0.006836;0.018555;1.053711;
555662;-0.010742;0.016602;1.032227;
555812;-0.013672;0.010742;1.032227;
555970;-0.008789;0.015625;1.052734;
556125;-0.007812;0.024414;1.049805;
556260;-0.013672;0.024414;1.036133;
556400;-0.007812;0.018555;1.048828;
556555;-0.010742;0.034180;1.038086;
556695;-0.010742;0.027344;1.037109;
556835;-0.008789;0.031250;1.036133;
556975;-0.011719;0.034180;1.036133;
557115;-0.006836;0.034180;1.034180;
557265;-0.009766;0.028320;1.024414;
557405;-0.010742;0.034180;1.045898;
557545;-0.009766;0.032227;1.041992;
557685;-0.006836;0.022461;1.038086;
557825;-0.008789;0.017578;1.056641;
557965;-0.005859;0.032227;1.052734;
558105;-0.009766;0.032227;1.059570;
558245;-0.009766;0.026367;1.054688;
558385;-0.005859;0.025391;1.063477;
558520;-0.005859;0.030273;1.063477;
558660;-0.010742;0.022461;1.066406;
558805;-0.008789;0.025391;1.048828;
558930;-0.006836;0.022461;1.045898;
559072;-0.009766;0.025391;1.041992;
559210;-0.007812;0.022461;1.038086;
559360;-0.008789;0.022461;1.026367;
559505;-0.009766;0.024414;1.053711;
559655;-0.007812;0.023438;1.051758;
559795;-0.008789;0.019531;1.042969;
559935;-0.009766;0.022461;1.044922;
560075;-0.005859;0.018555;1.052734;
560215;-0.005859;0.021484;1.064453;
560355;-0.006836;0.023438;1.056641;
560495;-0.007812;0.022461;1.055664;
560635;-0.007812;0.023438;1.058594;
560775;-0.007812;0.017578;1.048828;
560915;-0.007812;0.019531;1.054688;
561055;-0.006836;0.013672;1.047852;
561195;-0.007812;0.021484;1.042969;
561345;-0.010742;0.019531;1.033203;
561485;-0.006836;0.026367;1.047852;
561620;-0.008789;0.026367;1.044922;
561751;-0.006836;0.023438;1.045898;
561902;-0.005859;0.016602;1.025391;
562051;-0.006836;0.020508;1.034180;
562200;-0.007812;0.026367;1.034180;
562350;-0.008789;0.025391;1.031250;
562505;-0.010742;0.026367;1.027344;
562655;-0.007812;0.030273;1.030273;
562795;-0.009766;0.018555;1.017578;
562935;-0.008789;0.019531;1.029297;
563075;-0.007812;0.022461;1.029297;
563215;-0.008789;0.024414;1.032227;
563355;-0.009766;0.022461;1.018555;
563495;-0.006836;0.019531;1.022461;
563635;-0.011719;0.036133;1.018555;
563785;-0.008789;0.028320;1.028320;
563925;-0.009766;0.023438;1.012695;
564065;-0.008789;0.018555;1.011719;
564215;-0.010742;0.026367;1.012695;
564355;-0.008789;0.024414;1.018555;
564500;-0.010742;0.022461;1.009766;
564651;-0.009766;0.021484;1.010742;
564801;-0.008789;0.019531;1.012695;
564951;-0.011719;0.023438;1.011719;
565105;-0.012695;0.019531;1.010742;
565245;-0.009766;0.012695;0.996094;
565385;-0.010742;0.019531;1.006836;
565525;-0.014648;0.023438;0.993164;
565665;-0.007812;0.026367;1.008789;
565805;-0.011719;0.031250;1.017578;
565945;-0.013672;0.024414;1.014648;
566085;-0.009766;0.028320;1.002930;
566225;-0.009766;0.027344;1.013672;
566365;-0.013672;0.028320;1.009766;
566515;-0.009766;0.023438;1.027344;
566655;-0.011719;0.024414;0.998047;
566795;-0.005859;0.026367;1.011719;
566935;-0.013672;0.028320;1.028320;
567070;-0.010742;0.018555;1.014648;
567220;-0.003906;0.027344;1.010742;
567370;-0.010742;0.020508;1.033203;
567523;-0.012695;0.020508;1.025391;
567670;-0.008789;0.020508;1.009766;
567815;-0.008789;0.026367;1.030273;
567955;-0.013672;0.022461;1.032227;
568095;-0.008789;0.021484;1.023438;
568235;-0.009766;0.024414;1.019531;
568375;-0.007812;0.026367;1.038086;
568515;-0.013672;0.026367;1.028320;
568655;-0.009766;0.027344;1.024414;
568795;-0.009766;0.031250;1.022461;
568935;-0.008789;0.024414;1.022461;
569075;-0.013672;0.028320;1.025391;
569215;-0.009766;0.026367;1.031250;
569355;-0.010742;0.027344;1.017578;
569495;-0.008789;0.031250;1.038086;
569635;-0.009766;0.019531;1.029297;
569782;-0.010742;0.025391;1.021484;
569930;-0.006836;0.026367;1.039062;
570082;-0.010742;0.024414;1.036133;
570230;-0.009766;0.020508;1.033203;
570375;-0.006836;0.023438;1.041016;
570515;-0.010742;0.016602;1.028320;
570655;-0.010742;0.018555;1.030273;
570795;-0.007812;0.015625;1.021484;
570935;-0.010742;0.023438;1.041992;
571085;-0.009766;0.018555;1.028320;
571225;-0.008789;0.021484;1.031250;
571365;-0.008789;0.018555;1.035156;
571505;-0.010742;0.026367;1.026367;
571645;-0.007812;0.025391;1.027344;
571785;-0.009766;0.033203;1.031250;
571925;-0.009766;0.035156;1.043945;
572065;-0.009766;0.028320;1.036133;
572205;-0.009766;0.022461;1.031250;
572340;-0.007812;0.024414;1.028320;
572496;-0.008789;0.021484;1.032227;
572652;-0.007812;0.024414;1.031250;
572810;-0.008789;0.022461;1.035156;
572960;-0.008789;0.022461;1.043945;
573105;-0.006836;0.020508;1.030273;
573243;-0.009766;0.025391;1.036133;
573395;-0.010742;0.025391;1.024414;
573535;-0.007812;0.024414;1.034180;
573685;-0.007812;0.027344;1.047852;
573825;-0.009766;0.024414;1.035156;
573965;-0.005859;0.025391;1.052734;
574115;-0.008789;0.026367;1.051758;
574255;-0.008789;0.021484;1.043945;
574395;-0.007812;0.023438;1.046875;
574545;-0.009766;0.020508;1.041016;
574685;-0.006836;0.026367;1.040039;
574825;-0.009766;0.024414;1.029297;
574965;-0.008789;0.023438;1.039062;
575105;-0.009766;0.022461;1.022461;
575245;-0.008789;0.025391;1.040039;
575390;-0.008789;0.028320;1.041016;
575540;-0.007812;0.027344;1.039062;
575673;-0.006836;0.019531;1.036133;
575822;-0.006836;0.025391;1.037109;
575970;-0.007812;0.019531;1.027344;
576115;-0.007812;0.019531;1.034180;
576265;-0.005859;0.028320;1.032227;
576405;-0.006836;0.021484;1.031250;
576545;-0.007812;0.024414;1.026367;
576695;-0.006836;0.022461;1.022461;
576835;-0.007812;0.023438;1.020508;
576975;-0.006836;0.020508;1.021484;
577125;-0.008789;0.026367;1.039062;
577265;-0.006836;0.025391;1.036133;
577405;-0.009766;0.026367;1.030273;
577545;-0.009766;0.026367;1.036133;
577685;-0.009766;0.026367;1.034180;
577825;-0.008789;0.022461;1.037109;
577965;-0.008789;0.023438;1.042969;
578101;-0.009766;0.028320;1.048828;
578250;-0.007812;0.025391;1.056641;
578400;-0.005859;0.026367;1.057617;
578530;-0.007812;0.026367;1.049805;
578671;-0.005859;0.020508;1.045898;
578810;-0.007812;0.023438;1.040039;
578961;-0.006836;0.020508;1.047852;
579115;-0.006836;0.023438;1.058594;
579255;-0.004883;0.026367;1.050781;
579395;-0.006836;0.021484;1.041016;
579535;-0.008789;0.019531;1.041016;
579675;-0.007812;0.019531;1.046875;
579815;-0.011719;0.023438;1.049805;
579955;-0.005859;0.019531;1.038086;
580095;-0.003906;0.016602;1.040039;
580235;-0.006836;0.025391;1.045898;
580375;-0.004883;0.019531;1.047852;
580515;-0.004883;0.024414;1.043945;
580655;-0.007812;0.025391;1.036133;
580795;-0.008789;0.025391;1.041992;
580935;-0.007812;0.025391;1.033203;
581070;-0.004883;0.027344;1.035156;
581225;-0.008789;0.019531;1.021484;
581365;-0.007812;0.022461;1.019531;
581500;-0.005859;0.021484;1.026367;
581640;-0.009766;0.021484;1.017578;
581791;-0.008789;0.024414;1.001953;
581945;-0.008789;0.027344;1.013672;
582085;-0.005859;0.019531;1.009766;
582225;-0.003906;0.025391;1.011719;
582365;-0.005859;0.022461;0.998047;
582505;-0.003906;0.022461;1.000000;
582645;0.000977;0.021484;0.997070;
582785;0.002930;0.028320;1.016602;
582925;0.005859;0.023438;1.028320;
583065;0.005859;0.024414;1.029297;
583205;0.006836;0.028320;1.052734;
583345;0.007812;0.033203;1.052734;
583485;0.003906;0.029297;1.060547;
583625;0.008789;0.020508;1.062500;
583765;0.001953;0.022461;1.042969;
583905;0.001953;0.019531;1.041016;
584050;0.002930;0.024414;1.053711;
584190;0.001953;0.019531;1.039062;
584350;-0.000977;0.024414;1.026367;
584490;-0.005859;0.018555;1.010742;
584635;-0.001953;0.025391;1.015625;
584775;-0.002930;0.028320;1.000977;
584915;0.000977;0.034180;1.006836;
585055;-0.004883;0.031250;1.013672;
585205;-0.002930;0.034180;0.999023;
585345;-0.004883;0.037109;0.991211;
585485;-0.006836;0.034180;0.984375;
585635;-0.004883;0.027344;0.996094;
585775;-0.001953;0.037109;1.004883;
585915;-0.001953;0.030273;1.013672;
586055;-0.000977;0.031250;1.023438;
586195;-0.005859;0.034180;1.010742;
586335;-0.001953;0.029297;1.005859;
586475;-0.001953;0.019531;1.028320;
586611;-0.000977;0.022461;1.026367;
586761;0.000977;0.024414;1.041016;
586910;0.000000;0.026367;1.021484;
587050;-0.001953;0.017578;1.016602;
587190;0.000977;0.022461;1.020508;
587325;-0.000977;0.024414;1.021484;
587460;-0.000977;0.018555;1.015625;
587615;-0.001953;0.020508;1.010742;
587755;-0.004883;0.026367;1.007812;
587895;-0.005859;0.017578;0.989258;
588035;-0.000977;0.022461;1.018555;
588175;-0.001953;0.019531;1.019531;
588315;0.000000;0.028320;1.028320;
588455;-0.003906;0.025391;1.033203;
588595;-0.001953;0.030273;1.022461;
588745;-0.000977;0.024414;1.036133;
588885;0.000000;0.023438;1.051758;
589025;0.000977;0.030273;1.043945;
589165;0.000000;0.025391;1.036133;
589305;-0.003906;0.020508;1.022461;
589445;0.000000;0.025391;1.005859;
589583;0.000977;0.030273;1.007812;
589731;0.003906;0.027344;1.019531;
589871;0.005859;0.029297;1.009766;
590010;0.005859;0.028320;1.009766;
590150;0.009766;0.021484;1.008789;
590305;0.013672;0.017578;1.015625;
590445;0.014648;0.023438;1.016602;
590585;0.014648;0.013672;1.020508;
590725;0.016602;0.015625;1.008789;
590865;0.016602;0.021484;1.025391;
591015;0.012695;0.020508;1.032227;
591155;0.013672;0.017578;1.037109;
591295;0.011719;0.027344;1.041016;
591445;0.010742;0.023438;1.042969;
591585;0.008789;0.023438;1.039062;
591725;0.008789;0.033203;1.035156;
591865;0.007812;0.027344;1.027344;
592005;0.006836;0.020508;1.033203;
592145;0.007812;0.030273;1.029297;
592282;0.009766;0.034180;1.030273;
592432;0.007812;0.028320;1.026367;
592580;0.005859;0.027344;1.026367;
592730;0.007812;0.028320;1.041016;
592880;0.006836;0.022461;1.039062;
593035;0.009766;0.025391;1.031250;
593175;0.007812;0.031250;1.047852;
593315;0.006836;0.023438;1.032227;
593455;0.009766;0.019531;1.043945;
593595;0.011719;0.018555;1.042969;
593735;0.009766;0.017578;1.045898;
593875;0.009766;0.020508;1.061523;
594015;0.011719;0.024414;1.068359;
594155;0.005859;0.023438;1.066406;
594305;0.011719;0.022461;1.068359;
594445;0.010742;0.028320;1.075195;
594585;0.010742;0.029297;1.087891;
594725;0.010742;0.024414;1.079102;
594865;0.008789;0.031250;1.084961;
595000;0.012695;0.024414;1.079102;
595140;0.008789;0.025391;1.083008;
595280;0.009766;0.020508;1.076172;
595430;0.010742;0.031250;1.053711;
595580;0.009766;0.028320;1.076172;
595725;0.007812;0.024414;1.059570;
595875;0.012695;0.025391;1.063477;
596015;0.006836;0.016602;1.051758;
596155;0.008789;0.018555;1.044922;
596295;0.011719;0.020508;1.043945;
596435;0.007812;0.030273;1.037109;
596575;0.012695;0.017578;1.034180;
596715;0.006836;0.021484;1.019531;
596865;0.006836;0.024414;1.021484;
597005;0.009766;0.029297;1.020508;
597145;0.005859;0.030273;1.015625;
597285;0.009766;0.027344;1.024414;
597425;0.005859;0.027344;1.016602;
597565;0.008789;0.025391;1.022461;
597700;0.005859;0.028320;1.016602;
597851;0.005859;0.032227;1.021484;
598000;0.009766;0.024414;1.024414;
598140;0.010742;0.025391;1.019531;
598275;0.011719;0.022461;1.023438;
598415;0.019531;0.021484;1.017578;
598550;0.021484;0.017578;1.018555;
598695;0.027344;0.023438;1.015625;
598845;0.036133;0.020508;1.014648;
598985;0.039062;0.018555;1.011719;
599125;0.044922;0.024414;1.019531;
599275;0.049805;0.020508;1.014648;
599415;0.054688;0.017578;1.014648;
599555;0.057617;0.024414;1.036133;
599695;0.061523;0.022461;1.035156;
599835;0.072266;0.021484;1.043945;
599975;0.079102;0.020508;1.066406;
600125;0.085938;0.021484;1.066406;
600265;0.097656;0.026367;1.088867;
600405;0.098633;0.016602;1.095703;
600545;0.101562;0.023438;1.095703;
600686;0.101562;0.025391;1.103516;
600820;0.101562;0.024414;1.121094;
600960;0.098633;0.024414;1.126953;
601110;0.103516;0.021484;1.133789;
601260;0.103516;0.020508;1.131836;
601410;0.103516;0.010742;1.121094;
601565;0.105469;0.020508;1.119141;
601705;0.103516;0.017578;1.104492;
601845;0.099609;0.017578;1.065430;
601985;0.100586;0.024414;1.055664;
602125;0.101562;0.025391;1.031250;
602265;0.098633;0.023438;1.002930;
602405;0.096680;0.025391;1.000000;
602545;0.096680;0.024414;0.970703;
602685;0.097656;0.028320;0.970703;
602825;0.092773;0.028320;0.931641;
602975;0.097656;0.026367;0.922852;
603115;0.094727;0.031250;0.922852;
603255;0.092773;0.024414;0.878906;
603395;0.093750;0.027344;0.884766;
603530;0.091797;0.023438;0.874023;
603682;0.091797;0.022461;0.911133;
603840;0.093750;0.020508;0.908203;
603990;0.095703;0.025391;0.925781;
604145;0.094727;0.020508;0.960938;
604285;0.094727;0.016602;0.989258;
604425;0.095703;0.017578;1.010742;
604575;0.096680;0.015625;1.020508;
604715;0.099609;0.019531;1.040039;
604855;0.096680;0.016602;1.025391;
604995;0.097656;0.022461;1.032227;
605135;0.097656;0.021484;1.027344;
605285;0.096680;0.020508;1.019531;
605425;0.093750;0.022461;0.994141;
605565;0.095703;0.023438;1.000000;
605715;0.089844;0.020508;0.994141;
605855;0.090820;0.017578;0.963867;
605995;0.091797;0.020508;0.982422;
606130;0.087891;0.020508;0.979492;
606280;0.087891;0.024414;0.977539;
606440;0.089844;0.023438;0.978516;
606580;0.093750;0.023438;0.984375;
606731;0.095703;0.021484;0.988281;
606861;0.093750;0.026367;0.994141;
607005;0.092773;0.022461;0.984375;
607145;0.091797;0.024414;1.001953;
607285;0.089844;0.023438;1.015625;
607435;0.087891;0.026367;1.024414;
607575;0.092773;0.023438;1.027344;
607715;0.092773;0.028320;1.037109;
607865;0.093750;0.025391;1.043945;
608005;0.097656;0.020508;1.036133;
608145;0.088867;0.021484;1.028320;
608285;0.092773;0.025391;1.036133;
608425;0.091797;0.020508;1.030273;
608575;0.088867;0.022461;1.051758;
608715;0.089844;0.025391;1.048828;
608855;0.092773;0.020508;1.035156;
609001;0.087891;0.023438;1.039062;
609131;0.092773;0.023438;1.040039;
609260;0.088867;0.018555;1.041992;
609410;0.086914;0.019531;1.043945;
609560;0.089844;0.020508;1.062500;
609715;0.089844;0.022461;1.071289;
609855;0.092773;0.019531;1.081055;
609995;0.091797;0.023438;1.095703;
610145;0.091797;0.021484;1.103516;
610285;0.094727;0.021484;1.109375;
610425;0.091797;0.022461;1.119141;
610575;0.091797;0.016602;1.118164;
610715;0.090820;0.015625;1.116211;
610855;0.089844;0.016602;1.099609;
610995;0.091797;0.019531;1.101562;
611135;0.092773;0.021484;1.070312;
611285;0.086914;0.016602;1.059570;
611425;0.086914;0.019531;1.047852;
611565;0.085938;0.019531;1.026367;
611715;0.083008;0.022461;1.030273;
611850;0.088867;0.021484;1.004883;
612000;0.082031;0.021484;0.989258;
612151;0.087891;0.024414;0.989258;
612301;0.082031;0.020508;0.970703;
612455;0.083008;0.017578;0.964844;
612605;0.083984;0.020508;0.974609;
612745;0.084961;0.025391;1.000977;
612885;0.081055;0.020508;0.989258;
613025;0.083008;0.022461;0.982422;
613165;0.083008;0.022461;0.989258;
613305;0.083984;0.021484;0.992188;
613445;0.083008;0.021484;1.002930;
613585;0.081055;0.027344;1.002930;
613725;0.083984;0.024414;1.011719;
613865;0.083984;0.021484;0.993164;
614005;0.083008;0.021484;0.993164;
614145;0.081055;0.021484;1.006836;
614285;0.079102;0.019531;1.010742;
614425;0.083008;0.026367;0.996094;
614560;0.082031;0.021484;0.974609;
614710;0.084961;0.021484;0.995117;
614860;0.080078;0.026367;0.974609;
615010;0.077148;0.031250;0.981445;
615155;0.079102;0.028320;0.984375;
615295;0.079102;0.031250;0.995117;
615435;0.075195;0.030273;0.977539;
615575;0.080078;0.030273;0.993164;
615715;0.078125;0.026367;0.982422;
615855;0.077148;0.027344;0.996094;
615995;0.081055;0.029297;1.023438;
616135;0.080078;0.026367;1.011719;
616275;0.080078;0.019531;1.019531;
616415;0.078125;0.015625;1.029297;
616555;0.079102;0.020508;1.035156;
616695;0.081055;0.023438;1.043945;
616835;0.079102;0.026367;1.047852;
616975;0.082031;0.023438;1.042969;
617115;0.077148;0.014648;1.056641;
617250;0.081055;0.020508;1.069336;
617400;0.080078;0.015625;1.067383;
617541;0.083008;0.018555;1.062500;
617682;0.082031;0.014648;1.053711;
617830;0.079102;0.018555;1.030273;
617985;0.072266;0.019531;1.057617;
618125;0.077148;0.024414;1.095703;
618265;0.080078;0.030273;1.144531;
618405;0.084961;0.029297;1.218750;
618545;0.085938;0.028320;1.283203;
618685;0.090820;0.033203;1.398438;
618825;0.093750;0.028320;1.486328;
618965;0.104492;0.026367;1.601562;
619115;0.109375;0.021484;1.657227;
619255;0.114258;0.016602;1.745117;
619395;0.121094;0.020508;1.811523;
619535;0.126953;0.014648;1.870117;
619675;0.128906;0.009766;1.924805;
619815;0.131836;0.009766;1.946289;
619950;0.130859;0.004883;1.966797;
620091;0.136719;0.007812;1.968750;
620231;0.135742;0.010742;1.977539;
620362;0.135742;0.003906;1.941406;
620510;0.129883;0.013672;1.913086;
620665;0.129883;0.012695;1.879883;
620805;0.125000;0.016602;1.866211;
620955;0.123047;0.017578;1.838867;
621095;0.128906;0.015625;1.827148;
621235;0.122070;0.014648;1.794922;
621385;0.119141;0.015625;1.784180;
621525;0.118164;0.017578;1.775391;
621665;0.119141;0.017578;1.796875;
621815;0.119141;0.020508;1.800781;
621955;0.125977;0.019531;1.819336;
622095;0.124023;0.018555;1.819336;
622235;0.125977;0.014648;1.837891;
622375;0.125000;0.013672;1.857422;
622515;0.125977;0.012695;1.862305;
622657;0.131836;0.013672;1.862305;
622790;0.129883;0.013672;1.866211;
622941;0.126953;0.007812;1.867188;
623092;0.127930;0.013672;1.873047;
623240;0.133789;0.014648;1.879883;
623395;0.124023;0.016602;1.865234;
623545;0.132812;0.014648;1.862305;
623685;0.128906;0.012695;1.847656;
623825;0.132812;0.016602;1.843750;
623965;0.129883;0.018555;1.844727;
624105;0.131836;0.022461;1.831055;
624245;0.129883;0.014648;1.823242;
624385;0.134766;0.016602;1.826172;
624525;0.131836;0.017578;1.833008;
624665;0.130859;0.013672;1.817383;
624805;0.130859;0.006836;1.811523;
624945;0.130859;0.019531;1.846680;
625085;0.131836;0.021484;1.867188;
625225;0.135742;0.016602;1.852539;
625360;0.132812;0.018555;1.853516;
625503;0.133789;0.018555;1.853516;
625661;0.140625;0.016602;1.858398;
625810;0.140625;0.010742;1.861328;
625965;0.141602;0.013672;1.865234;
626105;0.135742;0.018555;1.843750;
626245;0.140625;0.012695;1.856445;
626395;0.137695;0.019531;1.856445;
626535;0.144531;0.022461;1.853516;
626675;0.140625;0.020508;1.841797;
626815;0.142578;0.022461;1.856445;
626955;0.140625;0.011719;1.821289;
627105;0.141602;0.009766;1.791992;
627245;0.141602;0.015625;1.784180;
627385;0.138672;0.012695;1.785156;
627525;0.140625;0.019531;1.797852;
627665;0.138672;0.014648;1.788086;
627805;0.138672;0.011719;1.768555;
627945;0.141602;0.000000;1.779297;
628090;0.147461;0.011719;1.803711;
628230;0.141602;0.009766;1.798828;
628381;0.148438;0.006836;1.813477;
628510;0.151367;0.003906;1.840820;
628660;0.152344;0.015625;1.843750;
628815;0.151367;0.010742;1.863281;
628955;0.156250;0.012695;1.861328;
629105;0.154297;0.012695;1.863281;
629245;0.159180;0.014648;1.873047;
629385;0.158203;0.008789;1.870117;
629535;0.157227;0.013672;1.860352;
629675;0.161133;0.010742;1.862305;
629815;0.163086;0.014648;1.857422;
629965;0.158203;0.016602;1.847656;
630105;0.161133;0.023438;1.839844;
630245;0.158203;0.010742;1.835938;
630385;0.163086;0.009766;1.836914;
630525;0.160156;0.012695;1.815430;
630665;0.161133;0.010742;1.801758;
630811;0.163086;0.014648;1.804688;
630945;0.163086;0.016602;1.803711;
631081;0.163086;0.012695;1.809570;
631231;0.164062;0.012695;1.793945;
631381;0.166992;0.009766;1.793945;
631530;0.166992;0.008789;1.802734;
631685;0.168945;0.012695;1.821289;
631825;0.175781;0.015625;1.831055;
631965;0.172852;0.012695;1.835938;
632105;0.176758;0.011719;1.850586;
632245;0.180664;0.014648;1.858398;
632395;0.178711;0.020508;1.848633;
632535;0.181641;0.015625;1.843750;
632675;0.179688;0.007812;1.831055;
632815;0.184570;0.012695;1.830078;
632955;0.181641;0.010742;1.803711;
633105;0.182617;0.011719;1.803711;
633245;0.184570;0.010742;1.799805;
633385;0.185547;0.012695;1.799805;
633525;0.187500;0.011719;1.770508;
633661;0.186523;0.015625;1.784180;
633810;0.182617;0.016602;1.781250;
633962;0.189453;0.014648;1.786133;
634110;0.189453;0.018555;1.788086;
634261;0.190430;0.013672;1.772461;
634410;0.191406;0.015625;1.771484;
634565;0.189453;0.019531;1.755859;
634705;0.189453;0.020508;1.735352;
634845;0.194336;0.016602;1.736328;
634985;0.188477;0.019531;1.741211;
635125;0.199219;0.006836;1.755859;
635265;0.196289;0.000977;1.747070;
635405;0.202148;-0.007812;1.761719;
635545;0.201172;0.004883;1.725586;
635695;0.196289;0.002930;1.706055;
635835;0.195312;0.010742;1.666016;
635975;0.195312;0.011719;1.642578;
636115;0.196289;0.019531;1.635742;
636255;0.188477;0.026367;1.588867;
636395;0.191406;0.029297;1.566406;
636532;0.193359;0.022461;1.582031;
636681;0.191406;0.032227;1.573242;
636830;0.192383;0.036133;1.558594;
636980;0.196289;0.034180;1.558594;
637135;0.191406;0.037109;1.574219;
637275;0.199219;0.033203;1.559570;
637415;0.201172;0.034180;1.551758;
637555;0.200195;0.035156;1.562500;
637695;0.199219;0.030273;1.569336;
637835;0.200195;0.020508;1.558594;
637975;0.195312;0.020508;1.540039;
638115;0.192383;0.018555;1.529297;
638255;0.187500;0.013672;1.523438;
638395;0.188477;0.011719;1.505859;
638535;0.177734;0.012695;1.512695;
638675;0.177734;0.010742;1.498047;
638815;0.161133;0.009766;1.437500;
638955;0.151367;0.013672;1.388672;
639095;0.136719;0.012695;1.294922;
639231;0.117188;0.015625;1.212891;
639371;0.098633;0.017578;1.107422;
639520;0.081055;0.019531;0.993164;
639655;0.066406;0.019531;0.896484;
639790;0.052734;0.024414;0.822266;
639942;0.041992;0.026367;0.686523;
640095;0.029297;0.026367;0.580078;
640235;0.023438;0.028320;0.484375;
640375;0.025391;0.027344;0.437500;
640515;0.017578;0.024414;0.356445;
640665;0.014648;0.024414;0.319336;
640805;0.012695;0.025391;0.270508;
640945;0.008789;0.020508;0.229492;
641085;0.010742;0.023438;0.187500;
641225;0.008789;0.027344;0.140625;
641375;0.008789;0.024414;0.120117;
641515;0.004883;0.023438;0.113281;
641655;0.002930;0.022461;0.091797;
641795;0.000977;0.023438;0.083984;
641935;0.000000;0.024414;0.067383;
642070;0.002930;0.022461;0.066406;
642210;0.002930;0.027344;0.047852;
642361;0.000977;0.025391;0.041992;
642500;-0.000977;0.028320;0.035156;
642650;0.000000;0.029297;0.038086;
642790;-0.002930;0.031250;0.034180;
642945;0.000000;0.029297;0.038086;
643085;-0.002930;0.025391;0.047852;
643225;-0.001953;0.028320;0.053711;
643375;-0.002930;0.028320;0.049805;
643516;-0.003906;0.026367;0.056641;
643665;-0.006836;0.024414;0.061523;
643815;-0.004883;0.023438;0.053711;
643955;-0.002930;0.025391;0.064453;
644095;-0.004883;0.021484;0.057617;
644235;-0.004883;0.023438;0.064453;
644375;-0.004883;0.022461;0.060547;
644525;-0.003906;0.024414;0.060547;
644665;-0.004883;0.024414;0.058594;
644805;-0.002930;0.020508;0.059570;
644952;-0.008789;0.018555;0.043945;
645100;-0.001953;0.014648;0.041016;
645250;-0.007812;0.018555;0.027344;
645400;-0.006836;0.019531;0.027344;
645555;-0.008789;0.021484;0.025391;
645695;-0.010742;0.020508;0.027344;
645845;-0.007812;0.023438;0.032227;
645986;-0.009766;0.019531;0.027344;
646135;-0.011719;0.021484;0.027344;
646285;-0.006836;0.022461;0.020508;
646425;-0.006836;0.019531;0.024414;
646565;-0.008789;0.021484;0.018555;
646715;-0.011719;0.024414;0.015625;
646855;-0.014648;0.024414;0.022461;
646995;-0.007812;0.026367;-0.000977;
647135;-0.010742;0.027344;0.011719;
647275;-0.011719;0.025391;0.021484;
647425;-0.009766;0.027344;0.015625;
647562;-0.010742;0.029297;0.023438;
647710;-0.012695;0.032227;0.021484;
647850;-0.012695;0.028320;0.023438;
648002;-0.014648;0.031250;0.025391;
648151;-0.014648;0.030273;0.016602;
648300;-0.012695;0.029297;0.023438;
648455;-0.011719;0.027344;0.017578;
648595;-0.012695;0.033203;0.021484;
648735;-0.010742;0.028320;0.029297;
648875;-0.012695;0.027344;0.027344;
649015;-0.009766;0.029297;0.030273;
649155;-0.008789;0.029297;0.030273;
649305;-0.009766;0.029297;0.030273;
649445;-0.010742;0.031250;0.027344;
649585;-0.011719;0.031250;0.028320;
649720;-0.009766;0.029297;0.040039;
649875;-0.007812;0.032227;0.037109;
650015;-0.008789;0.028320;0.037109;
650155;-0.009766;0.025391;0.034180;
650295;-0.007812;0.026367;0.031250;
650430;-0.006836;0.027344;0.031250;
650560;-0.011719;0.027344;0.029297;
650700;-0.007812;0.024414;0.036133;
650862;-0.009766;0.025391;0.029297;
651000;-0.010742;0.029297;0.029297;
651140;-0.010742;0.026367;0.033203;
651295;-0.008789;0.025391;0.028320;
651445;-0.011719;0.029297;0.025391;
651585;-0.010742;0.025391;0.033203;
651725;-0.011719;0.025391;0.028320;
651865;-0.011719;0.020508;0.021484;
652005;-0.011719;0.019531;0.018555;
652145;-0.013672;0.028320;0.021484;
652285;-0.012695;0.022461;0.022461;
652425;-0.012695;0.024414;0.023438;
652565;-0.014648;0.025391;0.005859;
652715;-0.010742;0.023438;0.011719;
652845;-0.013672;0.023438;0.019531;
652995;-0.013672;0.022461;0.017578;
653135;-0.009766;0.029297;0.017578;
653270;-0.009766;0.022461;0.021484;
653410;-0.010742;0.026367;0.013672;
653560;-0.009766;0.023438;0.014648;
653710;-0.013672;0.022461;0.009766;
653865;-0.013672;0.023438;0.003906;
654005;-0.012695;0.022461;0.012695;
654145;-0.011719;0.027344;-0.001953;
654285;-0.014648;0.030273;-0.020508;
654425;-0.010742;0.027344;0.005859;
654565;-0.009766;0.023438;0.001953;
654705;-0.010742;0.022461;0.007812;
654845;-0.012695;0.020508;-0.000977;
654985;-0.010742;0.018555;-0.004883;
655135;-0.011719;0.025391;-0.001953;
655275;-0.012695;0.019531;-0.007812;
655415;-0.012695;0.023438;0.000977;
655555;-0.015625;0.021484;-0.004883;
655695;-0.012695;0.021484;-0.011719;
655830;-0.012695;0.022461;-0.010742;
655981;-0.015625;0.020508;-0.012695;
656130;-0.014648;0.018555;-0.010742;
656265;-0.015625;0.022461;-0.015625;
656411;-0.014648;0.021484;-0.004883;
656560;-0.015625;0.023438;-0.010742;
656715;-0.016602;0.020508;-0.007812;
656855;-0.017578;0.019531;-0.000977;
656995;-0.016602;0.024414;-0.005859;
657135;-0.016602;0.020508;-0.006836;
657275;-0.018555;0.022461;-0.007812;
657410;-0.017578;0.024414;-0.011719;
657565;-0.014648;0.019531;-0.005859;
657705;-0.017578;0.020508;-0.012695;
657855;-0.015625;0.020508;-0.012695;
657995;-0.016602;0.015625;-0.003906;
658135;-0.017578;0.018555;-0.002930;
658275;-0.015625;0.015625;-0.004883;
658415;-0.018555;0.021484;-0.003906;
658565;-0.018555;0.019531;0.000977;
658711;-0.017578;0.017578;0.001953;
658851;-0.017578;0.018555;-0.000977;
659001;-0.019531;0.019531;-0.006836;
659151;-0.018555;0.018555;-0.005859;
659295;-0.021484;0.023438;0.002930;
659435;-0.020508;0.022461;0.016602;
659585;-0.021484;0.024414;0.016602;
659725;-0.022461;0.023438;0.019531;
659865;-0.023438;0.025391;0.011719;
660005;-0.022461;0.022461;0.034180;
660145;-0.024414;0.027344;0.025391;
660285;-0.022461;0.019531;0.030273;
660435;-0.022461;0.023438;0.036133;
660575;-0.028320;0.027344;0.029297;
660715;-0.026367;0.026367;0.022461;
660855;-0.023438;0.029297;0.038086;
660995;-0.029297;0.033203;0.029297;
661135;-0.025391;0.030273;0.030273;
661270;-0.025391;0.035156;0.038086;
661420;-0.028320;0.034180;0.041016;
661570;-0.028320;0.032227;0.035156;
661721;-0.027344;0.029297;0.035156;
661871;-0.028320;0.028320;0.030273;
662025;-0.029297;0.027344;0.029297;
662165;-0.027344;0.033203;0.041992;
662305;-0.028320;0.029297;0.035156;
662445;-0.029297;0.029297;0.032227;
662585;-0.029297;0.030273;0.033203;
662725;-0.032227;0.029297;0.024414;
662865;-0.031250;0.030273;0.022461;
663005;-0.032227;0.031250;0.018555;
663145;-0.034180;0.030273;0.006836;
663295;-0.031250;0.024414;-0.014648;
663435;-0.030273;0.023438;-0.025391;
663575;-0.033203;0.028320;-0.039062;
663725;-0.034180;0.024414;-0.042969;
663865;-0.037109;0.024414;-0.036133;
664001;-0.038086;0.030273;-0.038086;
664151;-0.042969;0.029297;0.002930;
664311;-0.048828;0.030273;0.068359;
664440;-0.044922;0.028320;0.155273;
664592;-0.045898;0.032227;0.264648;
664745;-0.038086;0.025391;0.397461;
664895;-0.031250;0.028320;0.516602;
665035;-0.023438;0.029297;0.599609;
665175;-0.023438;0.030273;0.720703;
665315;-0.017578;0.028320;0.804688;
665455;-0.012695;0.026367;0.887695;
665595;-0.002930;0.021484;0.952148;
665735;0.007812;0.020508;1.042969;
665875;0.008789;0.017578;1.096680;
666015;0.019531;0.019531;1.168945;
666155;0.027344;0.019531;1.231445;
666305;0.032227;0.017578;1.284180;
666445;0.040039;0.017578;1.358398;
666585;0.042969;0.015625;1.407227;
666721;0.048828;0.016602;1.469727;
666850;0.051758;0.017578;1.510742;
667000;0.056641;0.020508;1.576172;
667150;0.056641;0.021484;1.622070;
667300;0.059570;0.021484;1.642578;
667440;0.055664;0.033203;1.660156;
667585;0.057617;0.032227;1.687500;
667725;0.054688;0.032227;1.706055;
667865;0.054688;0.027344;1.699219;
668015;0.059570;0.039062;1.735352;
668155;0.057617;0.027344;1.717773;
668295;0.049805;0.032227;1.689453;
668435;0.060547;0.017578;1.723633;
668575;0.047852;0.015625;1.701172;
668715;0.049805;0.013672;1.728516;
668865;0.049805;0.010742;1.734375;
669005;0.048828;0.016602;1.729492;
669145;0.047852;0.010742;1.744141;
669295;0.043945;0.012695;1.745117;
669435;0.039062;0.013672;1.744141;
669581;0.040039;0.013672;1.769531;
669730;0.040039;0.015625;1.755859;
669870;0.038086;0.015625;1.753906;
670020;0.040039;0.015625;1.788086;
670165;0.041016;0.027344;1.819336;
670305;0.044922;0.037109;1.840820;
670445;0.040039;0.027344;1.849609;
670585;0.040039;0.023438;1.839844;
670725;0.040039;0.024414;1.877930;
670865;0.043945;0.033203;1.898438;
671005;0.041016;0.028320;1.912109;
671155;0.034180;0.024414;1.892578;
671295;0.043945;0.026367;1.890625;
671435;0.034180;0.021484;1.891602;
671575;0.032227;0.034180;1.892578;
671715;0.040039;0.025391;1.902344;
671855;0.034180;0.018555;1.908203;
671995;0.037109;0.018555;1.903320;
672131;0.029297;0.022461;1.885742;
672281;0.026367;0.013672;1.871094;
672420;0.025391;0.017578;1.848633;
672560;0.018555;0.021484;1.826172;
672710;0.020508;0.017578;1.830078;
672865;0.021484;0.009766;1.845703;
673015;0.018555;0.017578;1.884766;
673155;0.020508;0.009766;1.875977;
673295;0.022461;0.010742;1.884766;
673435;0.018555;0.013672;1.917969;
673575;0.018555;0.017578;1.934570;
673715;0.024414;0.016602;1.960938;
673855;0.019531;0.026367;1.974609;
673995;0.020508;0.014648;1.992188;
674135;0.025391;0.014648;2.001953;
674275;0.023438;0.006836;2.010742;
674415;0.023438;0.012695;2.026367;
674555;0.023438;0.009766;2.022461;
674695;0.023438;0.013672;2.004883;
674835;0.018555;0.017578;2.000000;
674980;0.017578;0.020508;2.007812;
675121;0.010742;0.024414;1.989258;
675270;0.011719;0.019531;1.960938;
675420;0.009766;0.030273;1.956055;
675575;0.006836;0.018555;1.949219;
675715;0.008789;0.022461;1.951172;
675865;0.001953;0.019531;1.921875;
676005;0.000000;0.018555;1.884766;
676145;-0.006836;0.008789;1.863281;
676295;-0.005859;0.015625;1.844727;
676435;-0.001953;0.018555;1.853516;
676575;-0.008789;0.009766;1.855469;
676725;-0.005859;0.020508;1.852539;
676865;-0.010742;0.016602;1.844727;
677005;-0.012695;0.008789;1.833008;
677145;-0.014648;0.014648;1.831055;
677285;-0.013672;0.015625;1.833008;
677425;-0.016602;0.018555;1.816406;
677560;-0.011719;0.021484;1.829102;
677712;-0.018555;0.019531;1.833984;
677871;-0.015625;0.015625;1.844727;
678015;-0.015625;0.017578;1.849609;
678160;-0.011719;0.016602;1.863281;
678315;-0.012695;0.011719;1.883789;
678455;-0.012695;0.013672;1.876953;
678595;-0.015625;0.019531;1.872070;
678735;-0.011719;0.019531;1.883789;
678875;-0.011719;0.015625;1.873047;
679015;-0.013672;0.016602;1.896484;
679155;-0.010742;0.014648;1.895508;
679295;-0.016602;0.013672;1.882812;
679435;-0.019531;0.014648;1.867188;
679585;-0.018555;0.012695;1.836914;
679725;-0.021484;0.017578;1.807617;
679865;-0.028320;0.023438;1.767578;
680005;-0.031250;0.021484;1.736328;
680145;-0.030273;0.024414;1.708008;
680282;-0.035156;0.023438;1.693359;
680420;-0.035156;0.018555;1.683594;
680570;-0.036133;0.015625;1.666992;
680711;-0.041016;0.014648;1.651367;
680860;-0.041992;0.020508;1.628906;
681015;-0.045898;0.019531;1.603516;
681165;-0.047852;0.021484;1.589844;
681305;-0.046875;0.023438;1.573242;
681445;-0.046875;0.019531;1.567383;
681585;-0.049805;0.022461;1.544922;
681725;-0.050781;0.018555;1.542969;
681865;-0.049805;0.013672;1.545898;
682005;-0.050781;0.019531;1.536133;
682145;-0.050781;0.019531;1.536133;
682285;-0.049805;0.016602;1.538086;
682425;-0.048828;0.019531;1.535156;
682565;-0.052734;0.021484;1.533203;
682705;-0.049805;0.024414;1.546875;
682845;-0.053711;0.020508;1.542969;
682985;-0.055664;0.019531;1.520508;
683131;-0.050781;0.024414;1.527344;
683280;-0.052734;0.018555;1.523438;
683442;-0.053711;0.023438;1.523438;
683601;-0.053711;0.019531;1.513672;
683755;-0.054688;0.013672;1.500000;
683895;-0.053711;0.020508;1.487305;
684045;-0.056641;0.028320;1.475586;
684185;-0.057617;0.025391;1.461914;
684325;-0.059570;0.019531;1.455078;
684475;-0.060547;0.022461;1.435547;
684615;-0.062500;0.024414;1.409180;
684755;-0.063477;0.019531;1.401367;
684895;-0.063477;0.020508;1.361328;
685035;-0.064453;0.016602;1.351562;
685175;-0.070312;0.021484;1.316406;
685315;-0.069336;0.019531;1.289062;
685455;-0.073242;0.022461;1.271484;
685605;-0.073242;0.023438;1.239258;
685740;-0.074219;0.020508;1.219727;
685890;-0.075195;0.028320;1.208984;
686030;-0.076172;0.029297;1.189453;
686181;-0.075195;0.024414;1.173828;
686330;-0.076172;0.024414;1.164062;
686495;-0.077148;0.029297;1.154297;
686635;-0.082031;0.027344;1.136719;
686775;-0.082031;0.040039;1.140625;
686915;-0.082031;0.031250;1.121094;
687055;-0.081055;0.022461;1.122070;
687195;-0.083008;0.019531;1.111328;
687335;-0.083984;0.017578;1.116211;
687475;-0.081055;0.019531;1.126953;
687615;-0.083008;0.023438;1.128906;
687755;-0.083008;0.020508;1.130859;
687895;-0.081055;0.023438;1.131836;
688035;-0.079102;0.023438;1.149414;
688175;-0.078125;0.024414;1.165039;
688315;-0.077148;0.026367;1.180664;
688451;-0.075195;0.022461;1.178711;
688600;-0.078125;0.027344;1.193359;
688750;-0.076172;0.026367;1.194336;
688901;-0.076172;0.027344;1.205078;
689050;-0.076172;0.024414;1.209961;
689205;-0.074219;0.023438;1.212891;
689345;-0.075195;0.024414;1.207031;
689485;-0.076172;0.021484;1.208984;
689625;-0.074219;0.019531;1.197266;
689765;-0.077148;0.014648;1.184570;
689905;-0.074219;0.018555;1.189453;
690045;-0.078125;0.009766;1.166992;
690185;-0.075195;0.013672;1.148438;
690325;-0.073242;0.013672;1.141602;
690465;-0.077148;0.010742;1.128906;
690605;-0.076172;0.012695;1.115234;
690745;-0.079102;0.012695;1.116211;
690885;-0.078125;0.013672;1.107422;
691025;-0.084961;0.021484;1.098633;
691161;-0.082031;0.022461;1.090820;
691310;-0.080078;0.018555;1.080078;
691470;-0.081055;0.021484;1.068359;
691620;-0.083008;0.019531;1.058594;
691770;-0.082031;0.022461;1.044922;
691915;-0.083008;0.022461;1.045898;
692055;-0.083984;0.025391;1.045898;
692195;-0.082031;0.024414;1.034180;
692335;-0.081055;0.020508;1.037109;
692485;-0.083984;0.022461;1.041016;
692625;-0.079102;0.025391;1.060547;
692765;-0.076172;0.013672;1.066406;
692905;-0.072266;0.010742;1.085938;
693045;-0.071289;0.016602;1.106445;
693185;-0.068359;0.013672;1.123047;
693325;-0.070312;0.020508;1.124023;
693465;-0.067383;0.023438;1.119141;
693605;-0.069336;0.024414;1.118164;
693745;-0.068359;0.028320;1.112305;
693880;-0.067383;0.035156;1.107422;
694031;-0.062500;0.034180;1.115234;
694180;-0.060547;0.036133;1.114258;
694330;-0.057617;0.032227;1.122070;
694482;-0.056641;0.040039;1.134766;
694625;-0.047852;0.032227;1.152344;
694775;-0.042969;0.030273;1.173828;
694915;-0.037109;0.025391;1.185547;
695065;-0.029297;0.025391;1.216797;
695205;-0.026367;0.032227;1.239258;
695345;-0.018555;0.026367;1.252930;
695495;-0.010742;0.029297;1.278320;
695635;-0.008789;0.026367;1.282227;
695775;-0.005859;0.026367;1.297852;
695915;-0.003906;0.028320;1.305664;
696055;-0.003906;0.024414;1.305664;
696205;-0.006836;0.018555;1.296875;
696345;-0.001953;0.021484;1.297852;
696485;-0.004883;0.015625;1.270508;
696620;-0.005859;0.014648;1.243164;
696771;-0.009766;0.017578;1.211914;
696921;-0.010742;0.013672;1.191406;
697060;-0.007812;0.014648;1.163086;
697201;-0.008789;0.015625;1.143555;
697330;-0.016602;0.018555;1.091797;
697475;-0.016602;0.019531;1.075195;
697615;-0.018555;0.018555;1.055664;
697765;-0.019531;0.024414;1.040039;
697905;-0.017578;0.024414;1.030273;
698045;-0.019531;0.028320;1.021484;
698195;-0.024414;0.028320;1.005859;
698335;-0.020508;0.030273;0.993164;
698475;-0.024414;0.033203;0.991211;
698615;-0.023438;0.029297;1.000977;
698755;-0.019531;0.030273;1.005859;
698895;-0.020508;0.027344;1.011719;
699035;-0.019531;0.030273;1.011719;
699175;-0.020508;0.032227;1.018555;
699325;-0.018555;0.033203;1.031250;
699471;-0.019531;0.031250;1.024414;
699600;-0.018555;0.025391;1.022461;
699740;-0.020508;0.021484;1.025391;
699890;-0.018555;0.022461;1.035156;
700040;-0.020508;0.022461;1.046875;
700195;-0.018555;0.024414;1.057617;
700335;-0.017578;0.026367;1.071289;
700475;-0.017578;0.030273;1.070312;
700615;-0.018555;0.023438;1.067383;
700755;-0.019531;0.020508;1.060547;
700895;-0.022461;0.021484;1.068359;
701035;-0.019531;0.024414;1.052734;
701175;-0.021484;0.026367;1.065430;
701315;-0.020508;0.026367;1.059570;
701455;-0.017578;0.024414;1.055664;
701595;-0.024414;0.020508;1.057617;
701735;-0.019531;0.018555;1.057617;
701875;-0.019531;0.023438;1.051758;
702015;-0.019531;0.025391;1.046875;
702150;-0.021484;0.030273;1.048828;
702300;-0.022461;0.034180;1.041992;
702450;-0.021484;0.032227;1.031250;
702590;-0.019531;0.031250;1.032227;
702751;-0.017578;0.030273;1.015625;
702895;-0.021484;0.026367;1.029297;
703035;-0.019531;0.023438;1.021484;
703175;-0.019531;0.024414;1.027344;
703315;-0.022461;0.027344;1.014648;
703455;-0.017578;0.031250;1.016602;
703595;-0.022461;0.023438;1.017578;
703735;-0.020508;0.023438;1.028320;
703875;-0.021484;0.027344;1.018555;
704015;-0.018555;0.024414;1.027344;
704155;-0.020508;0.017578;1.031250;
704295;-0.018555;0.017578;1.037109;
704435;-0.015625;0.024414;1.064453;
704575;-0.019531;0.024414;1.045898;
704715;-0.017578;0.020508;1.032227;
704850;-0.019531;0.020508;1.011719;
705000;-0.021484;0.023438;1.002930;
705130;-0.024414;0.017578;0.983398;
705271;-0.023438;0.020508;0.958008;
705421;-0.024414;0.018555;0.944336;
705575;-0.025391;0.024414;0.941406;
705725;-0.024414;0.016602;0.947266;
705865;-0.020508;0.023438;0.970703;
706005;-0.021484;0.023438;1.006836;
706155;-0.019531;0.025391;1.023438;
706295;-0.016602;0.031250;1.043945;
706435;-0.019531;0.032227;1.068359;
706585;-0.016602;0.030273;1.084961;
706725;-0.015625;0.032227;1.098633;
706865;-0.015625;0.031250;1.112305;
707005;-0.016602;0.024414;1.111328;
707145;-0.014648;0.023438;1.105469;
707285;-0.007812;0.035156;1.130859;
707435;-0.017578;0.024414;1.122070;
707570;-0.013672;0.027344;1.110352;
707720;-0.011719;0.022461;1.106445;
707880;-0.016602;0.018555;1.089844;
708020;-0.011719;0.018555;1.081055;
708175;-0.014648;0.013672;1.064453;
708315;-0.020508;0.015625;1.051758;
708465;-0.017578;0.015625;1.053711;
708605;-0.015625;0.016602;1.038086;
708745;-0.017578;0.023438;1.035156;
708895;-0.017578;0.016602;1.022461;
709035;-0.017578;0.022461;1.003906;
709175;-0.018555;0.024414;1.000000;
709315;-0.020508;0.020508;1.011719;
709455;-0.019531;0.027344;0.991211;
709605;-0.022461;0.026367;0.996094;
709745;-0.021484;0.024414;0.999023;
709885;-0.020508;0.029297;0.989258;
710025;-0.022461;0.028320;0.996094;
710167;-0.020508;0.025391;0.994141;
710310;-0.020508;0.023438;0.999023;
710461;-0.021484;0.025391;1.000977;
710620;-0.022461;0.028320;0.992188;
710760;-0.021484;0.021484;0.991211;
710890;-0.019531;0.026367;1.001953;
711055;-0.017578;0.019531;0.987305;
711195;-0.020508;0.025391;1.008789;
711335;-0.017578;0.014648;1.003906;
711485;-0.020508;0.012695;1.000977;
711625;-0.019531;0.019531;1.012695;
711765;-0.013672;0.016602;1.004883;
711915;-0.017578;0.022461;1.010742;
712055;-0.017578;0.023438;1.016602;
712195;-0.018555;0.024414;1.021484;
712335;-0.023438;0.021484;1.013672;
712475;-0.017578;0.019531;1.022461;
712615;-0.020508;0.023438;1.024414;
712755;-0.020508;0.023438;1.011719;
712905;-0.021484;0.024414;1.004883;
713040;-0.020508;0.031250;1.012695;
713170;-0.018555;0.028320;1.004883;
713320;-0.021484;0.026367;0.992188;
713461;-0.024414;0.028320;0.986328;
713610;-0.022461;0.026367;0.989258;
713776;-0.021484;0.026367;0.987305;
713935;-0.021484;0.022461;0.982422;
714075;-0.018555;0.023438;0.987305;
714225;-0.021484;0.019531;0.989258;
714361;-0.020508;0.017578;0.986328;
714515;-0.013672;0.013672;1.019531;
714655;-0.018555;0.016602;0.997070;
714795;-0.020508;0.020508;1.000000;
714945;-0.015625;0.022461;1.022461;
715081;-0.018555;0.018555;1.022461;
715235;-0.018555;0.023438;1.024414;
715375;-0.017578;0.022461;1.028320;
715515;-0.015625;0.018555;1.037109;
715665;-0.016602;0.024414;1.049805;
715801;-0.018555;0.028320;1.044922;
715930;-0.019531;0.028320;1.061523;
716081;-0.014648;0.023438;1.062500;
716232;-0.015625;0.023438;1.077148;
716390;-0.015625;0.026367;1.073242;
716530;-0.012695;0.023438;1.079102;
716670;-0.011719;0.024414;1.105469;
716821;-0.012695;0.022461;1.110352;
716980;-0.012695;0.022461;1.110352;
717120;-0.012695;0.022461;1.113281;
717275;-0.011719;0.022461;1.126953;
717415;-0.012695;0.020508;1.115234;
717555;-0.010742;0.021484;1.113281;
717691;-0.014648;0.015625;1.104492;
717820;-0.014648;0.022461;1.109375;
717965;-0.013672;0.024414;1.107422;
718115;-0.012695;0.022461;1.090820;
718255;-0.017578;0.021484;1.094727;
718395;-0.016602;0.025391;1.086914;
718532;-0.013672;0.025391;1.083984;
718685;-0.017578;0.018555;1.085938;
718835;-0.014648;0.024414;1.077148;
718975;-0.017578;0.021484;1.076172;
719115;-0.012695;0.026367;1.083008;
719251;-0.016602;0.019531;1.069336;
719402;-0.014648;0.021484;1.066406;
719560;-0.015625;0.017578;1.072266;
719700;-0.014648;0.018555;1.072266;
719850;-0.013672;0.016602;1.081055;
720002;-0.015625;0.021484;1.086914;
720150;-0.010742;0.022461;1.088867;
720290;-0.012695;0.024414;1.103516;
720441;-0.013672;0.025391;1.107422;
720590;-0.014648;0.024414;1.104492;
720735;-0.012695;0.023438;1.095703;
720875;-0.014648;0.024414;1.095703;
721015;-0.015625;0.028320;1.101562;
721150;-0.014648;0.024414;1.086914;
721315;-0.015625;0.020508;1.083984;
721455;-0.014648;0.021484;1.071289;
721595;-0.013672;0.021484;1.063477;
721735;-0.017578;0.017578;1.051758;
721870;-0.014648;0.017578;1.045898;
722035;-0.015625;0.023438;1.040039;
722175;-0.015625;0.017578;1.011719;
722315;-0.015625;0.016602;1.007812;
722455;-0.019531;0.023438;0.998047;
722591;-0.020508;0.022461;0.990234;
722751;-0.018555;0.020508;0.980469;
722901;-0.017578;0.026367;0.989258;
723050;-0.020508;0.024414;0.985352;
723200;-0.018555;0.020508;0.966797;
723351;-0.017578;0.028320;0.983398;
723500;-0.019531;0.022461;0.992188;
723650;-0.019531;0.022461;0.997070;
723795;-0.017578;0.013672;0.998047;
723935;-0.020508;0.026367;1.011719;
724085;-0.019531;0.031250;1.010742;
724225;-0.016602;0.037109;1.010742;
724365;-0.018555;0.030273;1.000000;
724505;-0.021484;0.030273;1.000000;
724645;-0.019531;0.022461;0.990234;
724795;-0.018555;0.023438;0.978516;
724935;-0.019531;0.019531;0.971680;
725075;-0.021484;0.021484;0.962891;
725215;-0.022461;0.021484;0.958008;
725355;-0.020508;0.020508;0.956055;
725495;-0.017578;0.020508;0.949219;
725635;-0.017578;0.019531;0.937500;
725770;-0.023438;0.015625;0.950195;
725920;-0.018555;0.016602;0.964844;
726070;-0.017578;0.018555;0.967773;
726200;-0.014648;0.022461;0.989258;
726341;-0.017578;0.012695;0.991211;
726490;-0.016602;0.016602;1.009766;
726635;-0.015625;0.018555;1.032227;
726785;-0.013672;0.026367;1.047852;
