Time;acc_x;acc_y;acc_z;

1654;0.023438;0.017578;1.043945;
1793;0.021484;0.016602;1.040039;
1933;0.022461;0.016602;1.046875;
2073;0.025391;0.015625;1.032227;
2213;0.025391;0.017578;1.042969;
2354;0.026367;0.010742;1.053711;
2494;0.025391;0.014648;1.072266;
2634;0.024414;0.014648;1.045898;
2773;0.025391;0.010742;1.065430;
2913;0.021484;0.013672;1.065430;
3053;0.025391;0.016602;1.083008;
3194;0.024414;0.018555;1.092773;
3333;0.024414;0.027344;1.086914;
3474;0.024414;0.026367;1.095703;
3614;0.027344;0.020508;1.104492;
3754;0.024414;0.018555;1.118164;
3894;0.023438;0.019531;1.102539;
4029;0.029297;0.019531;1.116211;
4179;0.025391;0.018555;1.120117;
4329;0.027344;0.024414;1.135742;
4479;0.029297;0.022461;1.140625;
4624;0.026367;0.028320;1.151367;
4763;0.024414;0.022461;1.124023;
4904;0.031250;0.023438;1.134766;
5044;0.027344;0.029297;1.148438;
5184;0.021484;0.035156;1.142578;
5324;0.027344;0.023438;1.119141;
5459;0.026367;0.020508;1.130859;
5609;0.019531;0.017578;1.145508;
5754;0.028320;0.016602;1.147461;
5894;0.025391;0.013672;1.150391;
6034;0.031250;0.027344;1.208008;
6175;0.027344;0.029297;1.224609;
6319;0.033203;0.029297;1.243164;
6473;0.039062;0.022461;1.274414;
6619;0.038086;0.028320;1.291992;
6760;0.042969;0.022461;1.333008;
6909;0.047852;0.025391;1.375000;
7059;0.045898;0.021484;1.362305;
7209;0.047852;0.022461;1.393555;
7340;0.050781;0.025391;1.413086;
7494;0.057617;0.019531;1.432617;
7634;0.053711;0.023438;1.433594;
7769;0.057617;0.027344;1.453125;
7914;0.055664;0.033203;1.462891;
8054;0.056641;0.025391;1.465820;
8194;0.056641;0.033203;1.451172;
8334;0.054688;0.031250;1.443359;
8524;0.052734;0.033203;1.448242;
8669;0.053711;0.038086;1.424805;
8824;0.048828;0.036133;1.390625;
8964;0.046875;0.024414;1.377930;
9104;0.041992;0.028320;1.358398;
9249;0.045898;0.028320;1.359375;
9394;0.043945;0.020508;1.341797;
9539;0.048828;0.022461;1.358398;
9689;0.046875;0.025391;1.366211;
9830;0.042969;0.022461;1.383789;
9969;0.048828;0.025391;1.387695;
10129;0.051758;0.027344;1.403320;
10279;0.049805;0.029297;1.434570;
10419;0.053711;0.019531;1.439453;
10564;0.051758;0.026367;1.454102;
10703;0.054688;0.023438;1.459961;
10839;0.060547;0.026367;1.467773;
10983;0.056641;0.028320;1.492188;
11124;0.051758;0.033203;1.480469;
11264;0.059570;0.025391;1.476562;
11399;0.055664;0.024414;1.473633;
11544;0.054688;0.035156;1.473633;
11684;0.054688;0.028320;1.448242;
11824;0.050781;0.033203;1.434570;
11959;0.047852;0.028320;1.407227;
12114;0.049805;0.021484;1.381836;
12253;0.044922;0.024414;1.330078;
12394;0.040039;0.027344;1.316406;
12531;0.036133;0.026367;1.298828;
12679;0.039062;0.030273;1.275391;
12829;0.029297;0.029297;1.257812;
12969;0.032227;0.027344;1.219727;
13124;0.030273;0.023438;1.208008;
13259;0.028320;0.028320;1.189453;
13389;0.026367;0.023438;1.177734;
13549;0.027344;0.027344;1.150391;
13704;0.021484;0.024414;1.144531;
13844;0.023438;0.022461;1.129883;
13984;0.019531;0.012695;1.106445;
14124;0.022461;0.024414;1.092773;
14269;0.020508;0.018555;1.081055;
14434;0.020508;0.016602;1.074219;
14573;0.019531;0.015625;1.058594;
14714;0.017578;0.015625;1.040039;
14849;0.012695;0.015625;1.026367;
15003;0.011719;0.020508;1.036133;
15144;0.015625;0.017578;1.023438;
15294;0.012695;0.019531;1.027344;
15435;0.009766;0.019531;0.989258;
15589;0.011719;0.024414;0.982422;
15734;0.013672;0.025391;0.997070;
15869;0.007812;0.026367;0.992188;
15999;0.015625;0.029297;0.980469;
16149;0.010742;0.020508;0.970703;
16299;0.005859;0.025391;0.958008;
16450;0.009766;0.023438;0.947266;
16599;0.012695;0.018555;0.940430;
16754;0.004883;0.017578;0.940430;
16894;0.004883;0.021484;0.930664;
17029;0.009766;0.021484;0.929688;
17164;0.004883;0.017578;0.921875;
17304;0.008789;0.025391;0.926758;
17444;0.012695;0.027344;0.933594;
17594;0.000977;0.018555;0.926758;
17734;0.006836;0.021484;0.919922;
17884;0.012695;0.023438;0.932617;
18023;0.005859;0.027344;0.949219;
18164;0.010742;0.028320;0.981445;
18299;0.015625;0.026367;0.991211;
18434;0.007812;0.022461;0.973633;
18574;0.014648;0.025391;0.993164;
18714;0.011719;0.020508;1.000000;
18850;0.008789;0.016602;1.002930;
19011;0.017578;0.026367;1.011719;
19159;0.014648;0.028320;1.012695;
19309;0.011719;0.025391;1.003906;
19453;0.014648;0.024414;1.009766;
19590;0.010742;0.026367;1.009766;
19729;0.014648;0.021484;1.011719;
19874;0.014648;0.020508;1.027344;
20014;0.011719;0.015625;1.022461;
20154;0.014648;0.018555;1.003906;
20295;0.015625;0.021484;0.994141;
20439;0.013672;0.028320;1.009766;
20584;0.014648;0.031250;1.018555;
20724;0.012695;0.029297;1.025391;
20864;0.018555;0.028320;1.032227;
21002;0.010742;0.034180;1.013672;
21140;0.013672;0.023438;0.997070;
21274;0.016602;0.019531;1.008789;
21409;0.014648;0.025391;1.009766;
21559;0.016602;0.031250;1.015625;
21699;0.014648;0.023438;1.001953;
21849;0.012695;0.028320;0.996094;
21999;0.014648;0.025391;0.993164;
22154;0.013672;0.018555;1.011719;
22294;0.010742;0.028320;1.017578;
22434;0.019531;0.027344;1.029297;
22574;0.012695;0.025391;1.020508;
22714;0.013672;0.024414;1.019531;
22864;0.011719;0.027344;1.009766;
23004;0.016602;0.025391;1.004883;
23144;0.012695;0.022461;0.999023;
23284;0.014648;0.026367;0.999023;
23419;0.015625;0.027344;1.012695;
23564;0.010742;0.023438;1.000977;
23704;0.013672;0.017578;1.000977;
23854;0.014648;0.031250;0.997070;
23989;0.011719;0.024414;1.000000;
24139;0.013672;0.028320;1.009766;
24289;0.016602;0.027344;0.995117;
24439;0.013672;0.021484;0.973633;
24589;0.012695;0.027344;0.975586;
24739;0.013672;0.025391;0.959961;
24894;0.008789;0.023438;0.952148;
25034;0.009766;0.017578;0.955078;
25173;0.009766;0.032227;0.956055;
25313;0.004883;0.029297;0.949219;
25449;0.010742;0.027344;0.965820;
25604;0.008789;0.029297;0.953125;
25744;0.012695;0.025391;0.964844;
25884;0.007812;0.019531;0.961914;
26024;0.008789;0.017578;0.977539;
26169;0.011719;0.020508;0.982422;
26314;0.009766;0.017578;0.967773;
26464;0.007812;0.030273;0.979492;
26604;0.014648;0.031250;1.005859;
26739;0.007812;0.034180;0.989258;
26889;0.011719;0.026367;0.983398;
27049;0.010742;0.033203;0.974609;
27199;0.004883;0.022461;0.954102;
27349;0.010742;0.023438;0.951172;
27499;0.013672;0.023438;0.973633;
27654;0.005859;0.024414;0.966797;
27804;0.009766;0.013672;0.944336;
27944;0.009766;0.017578;0.936523;
28089;0.009766;0.014648;0.941406;
28234;0.011719;0.025391;0.960938;
28384;0.010742;0.021484;0.947266;
28524;0.006836;0.031250;0.942383;
28664;0.007812;0.030273;0.947266;
28800;0.008789;0.022461;0.963867;
28929;0.008789;0.020508;0.949219;
29074;0.011719;0.027344;0.942383;
29214;0.004883;0.017578;0.945312;
29364;0.006836;0.031250;0.972656;
29499;0.009766;0.038086;0.995117;
29659;0.003906;0.031250;0.970703;
29809;0.010742;0.034180;1.013672;
29959;0.012695;0.042969;1.038086;
30099;0.009766;0.028320;1.036133;
30250;0.014648;0.024414;1.051758;
30379;0.012695;0.026367;1.041016;
30521;0.015625;0.014648;1.044922;
30664;0.011719;0.018555;1.040039;
30804;0.012695;0.013672;1.013672;
30954;0.013672;0.027344;1.041992;
31089;0.015625;0.029297;1.076172;
31244;0.009766;0.030273;1.072266;
31384;0.015625;0.029297;1.066406;
31523;0.012695;0.023438;1.041016;
31664;0.010742;0.021484;1.037109;
31799;0.010742;0.032227;1.055664;
31930;0.010742;0.020508;1.048828;
32074;0.016602;0.021484;1.035156;
32209;0.010742;0.019531;1.032227;
32349;0.013672;0.030273;1.030273;
32489;0.011719;0.020508;1.026367;
32640;0.007812;0.024414;1.020508;
32799;0.002930;0.013672;1.003906;
32954;0.012695;0.017578;1.026367;
33089;0.007812;0.031250;1.040039;
33244;0.008789;0.034180;1.024414;
33384;0.009766;0.022461;1.017578;
33524;0.008789;0.024414;0.977539;
33659;0.012695;0.020508;0.988281;
33804;0.009766;0.020508;1.036133;
33944;0.009766;0.026367;1.006836;
34084;0.007812;0.027344;0.997070;
34224;0.008789;0.025391;1.018555;
34359;0.008789;0.031250;1.034180;
34500;0.007812;0.025391;1.014648;
34643;0.012695;0.028320;1.050781;
34783;0.014648;0.030273;1.053711;
34919;0.005859;0.035156;1.038086;
35059;0.012695;0.023438;1.053711;
35209;0.011719;0.033203;1.072266;
35349;0.005859;0.020508;1.077148;
35499;0.015625;0.043945;1.075195;
35649;0.008789;0.029297;1.081055;
35800;0.009766;0.039062;1.090820;
35939;0.014648;0.031250;1.091797;
36074;0.008789;0.032227;1.094727;
36214;0.006836;0.031250;1.112305;
36359;0.017578;0.035156;1.119141;
36500;0.011719;0.023438;1.098633;
36654;0.013672;0.025391;1.097656;
36793;0.013672;0.020508;1.098633;
36933;0.012695;0.023438;1.104492;
37069;0.010742;0.029297;1.098633;
37214;0.013672;0.027344;1.099609;
37354;0.008789;0.017578;1.094727;
37494;0.009766;0.023438;1.108398;
37629;0.012695;0.023438;1.108398;
37774;0.010742;0.026367;1.098633;
37913;0.011719;0.024414;1.098633;
38049;0.011719;0.024414;1.094727;
38200;0.007812;0.021484;1.084961;
38349;0.008789;0.020508;1.089844;
38489;0.005859;0.023438;1.086914;
38639;0.007812;0.026367;1.075195;
38789;0.007812;0.024414;1.072266;
38934;0.007812;0.024414;1.075195;
39074;0.006836;0.019531;1.056641;
39209;0.009766;0.022461;1.061523;
39354;0.005859;0.022461;1.058594;
39494;0.005859;0.021484;1.060547;
39634;0.004883;0.024414;1.058594;
39775;0.006836;0.018555;1.057617;
39924;0.006836;0.021484;1.056641;
40064;0.004883;0.019531;1.065430;
40204;0.007812;0.023438;1.058594;
40344;0.005859;0.018555;1.056641;
40480;0.006836;0.020508;1.051758;
40614;0.004883;0.017578;1.040039;
40754;0.004883;0.022461;1.043945;
40900;0.003906;0.022461;1.021484;
41049;0.004883;0.022461;1.014648;
41199;0.000977;0.021484;0.997070;
41339;-0.002930;0.021484;0.984375;
41499;-0.001953;0.028320;0.956055;
41649;-0.002930;0.024414;0.948242;
41789;-0.001953;0.027344;0.941406;
41944;-0.006836;0.026367;0.920898;
42084;-0.005859;0.026367;0.908203;
42223;-0.004883;0.031250;0.910156;
42364;-0.006836;0.022461;0.909180;
42504;-0.004883;0.023438;0.891602;
42654;-0.004883;0.024414;0.895508;
42794;-0.006836;0.022461;0.892578;
42930;-0.009766;0.027344;0.901367;
43084;-0.008789;0.023438;0.907227;
43224;-0.006836;0.029297;0.916016;
43364;-0.005859;0.025391;0.930664;
43515;-0.003906;0.025391;0.949219;
43659;-0.003906;0.024414;0.971680;
43813;-0.004883;0.024414;0.990234;
43949;-0.001953;0.023438;1.008789;
44099;-0.001953;0.029297;1.021484;
44249;0.000000;0.027344;1.030273;
44409;-0.004883;0.023438;1.043945;
44560;-0.000977;0.024414;1.052734;
44699;-0.000977;0.027344;1.050781;
44839;-0.000977;0.024414;1.045898;
44984;0.000000;0.021484;1.048828;
45124;-0.000977;0.024414;1.034180;
45264;-0.003906;0.020508;1.028320;
45399;-0.002930;0.022461;1.043945;
45554;-0.000977;0.023438;1.042969;
45694;0.000000;0.023438;1.058594;
45834;0.001953;0.024414;1.087891;
45985;0.002930;0.024414;1.109375;
46134;-0.001953;0.024414;1.133789;
46274;0.008789;0.026367;1.172852;
46414;0.007812;0.025391;1.192383;
46553;0.007812;0.020508;1.200195;
46699;0.009766;0.025391;1.211914;
46849;0.008789;0.021484;1.220703;
46999;0.008789;0.021484;1.205078;
47149;0.009766;0.021484;1.205078;
47299;0.006836;0.021484;1.187500;
47439;0.002930;0.020508;1.165039;
47594;0.003906;0.021484;1.155273;
47733;0.001953;0.020508;1.139648;
47869;0.000977;0.021484;1.113281;
48024;0.000977;0.018555;1.100586;
48164;-0.001953;0.021484;1.081055;
48304;-0.000977;0.022461;1.083984;
48443;-0.003906;0.023438;1.083008;
48579;-0.001953;0.022461;1.079102;
48734;-0.004883;0.018555;1.068359;
48884;-0.004883;0.016602;1.074219;
49024;-0.004883;0.019531;1.066406;
49159;-0.003906;0.019531;1.070312;
49304;-0.005859;0.019531;1.075195;
49444;-0.005859;0.021484;1.082031;
49585;-0.002930;0.017578;1.072266;
49739;-0.005859;0.024414;1.087891;
49890;-0.005859;0.021484;1.083008;
50039;-0.004883;0.020508;1.078125;
50179;-0.005859;0.022461;1.086914;
50329;-0.005859;0.021484;1.080078;
50462;-0.005859;0.020508;1.087891;
50599;-0.006836;0.021484;1.090820;
50754;-0.007812;0.023438;1.086914;
50889;-0.003906;0.027344;1.081055;
51034;-0.003906;0.023438;1.083984;
51174;-0.007812;0.024414;1.078125;
51324;-0.002930;0.027344;1.085938;
51459;-0.002930;0.021484;1.086914;
51614;-0.006836;0.019531;1.086914;
51754;-0.006836;0.022461;1.083008;
51894;-0.005859;0.027344;1.082031;
52034;-0.005859;0.026367;1.075195;
52169;-0.006836;0.031250;1.081055;
52324;-0.005859;0.025391;1.078125;
52464;-0.005859;0.030273;1.086914;
52604;-0.008789;0.023438;1.079102;
52739;-0.006836;0.028320;1.087891;
52890;-0.004883;0.028320;1.092773;
53039;-0.006836;0.027344;1.079102;
53189;-0.007812;0.025391;1.089844;
53339;-0.008789;0.027344;1.084961;
53479;-0.005859;0.028320;1.077148;
53619;-0.004883;0.022461;1.074219;
53769;-0.007812;0.027344;1.072266;
53909;-0.009766;0.028320;1.067383;
54059;-0.009766;0.026367;1.050781;
54204;-0.008789;0.024414;1.049805;
54344;-0.010742;0.026367;1.043945;
54479;-0.010742;0.027344;1.031250;
54624;-0.008789;0.030273;1.034180;
54774;-0.010742;0.032227;1.020508;
54914;-0.012695;0.033203;1.023438;
55054;-0.014648;0.035156;1.024414;
55179;-0.015625;0.038086;1.019531;
55309;-0.013672;0.037109;1.029297;
55440;-0.015625;0.034180;1.031250;
55583;-0.012695;0.034180;1.024414;
55724;-0.012695;0.031250;1.023438;
55864;-0.011719;0.033203;1.035156;
55999;-0.010742;0.026367;1.043945;
56139;-0.010742;0.029297;1.048828;
56289;-0.011719;0.027344;1.049805;
56439;-0.008789;0.024414;1.042969;
56591;-0.011719;0.026367;1.056641;
56740;-0.012695;0.026367;1.051758;
56890;-0.008789;0.021484;1.061523;
57039;-0.012695;0.027344;1.057617;
57170;-0.010742;0.023438;1.068359;
57324;-0.011719;0.025391;1.067383;
57474;-0.013672;0.020508;1.065430;
57609;-0.010742;0.019531;1.071289;
57763;-0.012695;0.022461;1.051758;
57904;-0.013672;0.023438;1.060547;
58044;-0.014648;0.020508;1.046875;
58184;-0.013672;0.027344;1.050781;
58324;-0.013672;0.025391;1.046875;
58464;-0.012695;0.024414;1.038086;
58604;-0.013672;0.022461;1.050781;
58754;-0.013672;0.025391;1.046875;
58899;-0.015625;0.023438;1.047852;
59054;-0.014648;0.028320;1.049805;
59194;-0.013672;0.025391;1.053711;
59350;-0.012695;0.017578;1.060547;
59501;-0.012695;0.018555;1.052734;
59649;-0.012695;0.018555;1.058594;
59799;-0.013672;0.018555;1.065430;
59939;-0.012695;0.016602;1.068359;
60073;-0.013672;0.024414;1.061523;
60211;-0.014648;0.024414;1.063477;
60351;-0.017578;0.019531;1.061523;
60500;-0.013672;0.025391;1.067383;
60654;-0.016602;0.027344;1.064453;
60794;-0.014648;0.026367;1.054688;
60934;-0.019531;0.027344;1.069336;
61070;-0.021484;0.023438;1.050781;
61224;-0.023438;0.021484;1.055664;
61364;-0.024414;0.025391;1.048828;
61503;-0.027344;0.031250;1.046875;
61654;-0.031250;0.025391;1.009766;
61789;-0.030273;0.034180;1.016602;
61924;-0.034180;0.033203;1.010742;
62063;-0.035156;0.036133;1.005859;
62204;-0.040039;0.039062;0.992188;
62345;-0.041016;0.037109;0.980469;
62489;-0.041992;0.034180;0.975586;
62629;-0.038086;0.033203;0.975586;
62780;-0.039062;0.035156;0.976562;
62929;-0.043945;0.032227;0.975586;
63079;-0.041992;0.028320;0.968750;
63229;-0.046875;0.028320;0.962891;
63379;-0.045898;0.030273;0.960938;
63534;-0.051758;0.033203;0.959961;
63674;-0.047852;0.034180;0.968750;
63814;-0.049805;0.036133;0.976562;
63964;-0.045898;0.024414;0.977539;
64099;-0.049805;0.029297;0.979492;
64249;-0.049805;0.024414;0.971680;
64404;-0.051758;0.026367;0.943359;
64544;-0.050781;0.025391;0.943359;
64684;-0.055664;0.026367;0.938477;
64819;-0.056641;0.025391;0.919922;
64964;-0.057617;0.028320;0.926758;
65114;-0.060547;0.017578;0.928711;
65249;-0.054688;0.020508;0.926758;
65389;-0.053711;0.009766;0.919922;
65539;-0.057617;0.030273;0.920898;
65680;-0.059570;0.021484;0.956055;
65831;-0.064453;0.031250;0.974609;
65979;-0.060547;0.028320;0.983398;
66130;-0.053711;0.036133;0.998047;
66279;-0.060547;0.029297;1.028320;
66430;-0.059570;0.035156;1.063477;
66579;-0.055664;0.024414;1.064453;
66724;-0.061523;0.026367;1.043945;
66864;-0.059570;0.025391;1.048828;
67004;-0.061523;0.025391;1.046875;
67139;-0.062500;0.028320;1.044922;
67294;-0.054688;0.029297;1.069336;
67434;-0.055664;0.021484;1.098633;
67574;-0.057617;0.019531;1.094727;
67714;-0.055664;0.028320;1.138672;
67849;-0.052734;0.033203;1.180664;
67989;-0.049805;0.022461;1.233398;
68144;-0.051758;0.015625;1.262695;
68284;-0.047852;0.025391;1.271484;
68424;-0.051758;0.024414;1.254883;
68559;-0.048828;0.022461;1.238281;
68699;-0.053711;0.021484;1.199219;
68850;-0.055664;0.024414;1.166992;
68999;-0.058594;0.021484;1.157227;
69149;-0.061523;0.013672;1.121094;
69299;-0.061523;0.012695;1.082031;
69449;-0.061523;0.016602;1.042969;
69599;-0.064453;0.034180;1.024414;
69750;-0.064453;0.026367;1.025391;
69899;-0.067383;0.030273;1.016602;
70049;-0.065430;0.025391;1.004883;
70199;-0.067383;0.030273;0.996094;
70351;-0.070312;0.032227;1.005859;
70484;-0.066406;0.028320;1.041016;
70634;-0.063477;0.034180;1.069336;
70774;-0.062500;0.044922;1.059570;
70909;-0.063477;0.038086;1.082031;
71049;-0.065430;0.021484;1.110352;
71214;-0.062500;0.025391;1.120117;
71354;-0.063477;0.019531;1.118164;
71504;-0.061523;0.025391;1.107422;
71644;-0.068359;0.023438;1.121094;
71779;-0.063477;0.026367;1.114258;
71909;-0.068359;0.013672;1.088867;
72049;-0.061523;0.029297;1.094727;
72194;-0.066406;0.025391;1.075195;
72340;-0.072266;0.031250;1.057617;
72480;-0.068359;0.025391;1.058594;
72619;-0.075195;0.028320;1.033203;
72769;-0.061523;0.018555;1.032227;
72919;-0.067383;0.016602;1.031250;
73069;-0.070312;0.024414;1.035156;
73219;-0.067383;0.019531;1.032227;
73359;-0.071289;0.027344;1.029297;
73499;-0.074219;0.041992;1.030273;
73629;-0.069336;0.030273;1.049805;
73774;-0.074219;0.022461;1.054688;
73914;-0.067383;0.024414;1.065430;
74053;-0.066406;0.025391;1.082031;
74189;-0.065430;0.032227;1.103516;
74344;-0.070312;0.031250;1.072266;
74494;-0.066406;0.029297;1.051758;
74634;-0.069336;0.027344;1.063477;
74770;-0.070312;0.024414;1.070312;
74899;-0.070312;0.025391;1.048828;
75044;-0.068359;0.028320;1.051758;
75184;-0.072266;0.025391;1.044922;
75324;-0.066406;0.031250;1.041016;
75459;-0.074219;0.019531;1.007812;
75609;-0.072266;0.017578;1.022461;
75760;-0.072266;0.020508;1.008789;
75909;-0.069336;0.021484;1.021484;
76059;-0.072266;0.030273;1.012695;
76199;-0.068359;0.027344;1.019531;
76349;-0.074219;0.025391;1.029297;
76491;-0.070312;0.029297;1.014648;
76633;-0.072266;0.026367;1.006836;
76760;-0.070312;0.039062;1.020508;
76914;-0.076172;0.029297;0.992188;
77054;-0.068359;0.023438;1.009766;
77194;-0.072266;0.023438;1.008789;
77334;-0.070312;0.022461;1.004883;
77469;-0.071289;0.027344;0.993164;
77624;-0.073242;0.029297;0.986328;
77764;-0.073242;0.031250;1.002930;
77904;-0.072266;0.018555;0.998047;
78044;-0.070312;0.022461;0.995117;
78179;-0.074219;0.015625;0.981445;
78319;-0.072266;0.020508;1.003906;
78469;-0.070312;0.016602;1.001953;
78620;-0.070312;0.026367;1.011719;
78770;-0.067383;0.033203;1.017578;
78919;-0.069336;0.033203;1.010742;
79069;-0.070312;0.029297;1.015625;
79219;-0.071289;0.025391;1.004883;
79359;-0.072266;0.024414;0.999023;
79519;-0.071289;0.026367;0.993164;
79669;-0.072266;0.027344;0.986328;
79819;-0.070312;0.030273;0.985352;
79964;-0.069336;0.027344;0.985352;
80104;-0.075195;0.026367;0.997070;
80244;-0.065430;0.030273;1.046875;
80379;-0.067383;0.030273;1.036133;
80529;-0.072266;0.032227;1.034180;
80674;-0.065430;0.031250;1.050781;
80814;-0.069336;0.028320;1.045898;
80954;-0.065430;0.020508;1.081055;
81095;-0.070312;0.023438;1.037109;
81239;-0.067383;0.029297;1.054688;
81379;-0.069336;0.020508;1.037109;
81533;-0.068359;0.020508;1.036133;
81664;-0.072266;0.019531;1.020508;
81799;-0.073242;0.022461;1.007812;
81949;-0.070312;0.022461;1.017578;
82100;-0.077148;0.030273;0.970703;
82249;-0.075195;0.028320;0.959961;
82399;-0.073242;0.032227;0.946289;
82549;-0.076172;0.032227;0.949219;
82699;-0.075195;0.031250;0.943359;
82840;-0.071289;0.030273;0.946289;
82969;-0.076172;0.029297;0.958008;
83109;-0.073242;0.035156;0.974609;
83249;-0.074219;0.037109;0.960938;
83403;-0.072266;0.018555;0.955078;
83544;-0.069336;0.023438;0.983398;
83683;-0.075195;0.017578;0.987305;
83819;-0.070312;0.024414;0.986328;
83974;-0.071289;0.022461;0.980469;
84123;-0.073242;0.027344;0.991211;
84264;-0.068359;0.024414;1.004883;
84399;-0.075195;0.030273;0.973633;
84550;-0.077148;0.025391;0.957031;
84693;-0.075195;0.034180;0.957031;
84834;-0.076172;0.030273;0.958984;
84975;-0.070312;0.032227;0.963867;
85119;-0.073242;0.030273;0.987305;
85271;-0.074219;0.030273;0.977539;
85419;-0.076172;0.031250;0.963867;
85559;-0.076172;0.024414;0.959961;
85711;-0.075195;0.044922;0.972656;
85839;-0.072266;0.024414;0.980469;
85990;-0.070312;0.014648;1.009766;
86141;-0.073242;0.030273;1.004883;
86299;-0.073242;0.012695;1.029297;
86454;-0.072266;0.036133;1.025391;
86594;-0.069336;0.029297;1.025391;
86734;-0.072266;0.028320;1.045898;
86874;-0.068359;0.018555;1.072266;
87009;-0.064453;0.028320;1.079102;
87140;-0.068359;0.025391;1.060547;
87304;-0.074219;0.031250;1.058594;
87444;-0.065430;0.033203;1.056641;
87584;-0.068359;0.036133;1.058594;
87720;-0.066406;0.022461;1.061523;
87859;-0.065430;0.034180;1.073242;
88004;-0.064453;0.025391;1.061523;
88144;-0.063477;0.028320;1.066406;
88289;-0.064453;0.024414;1.071289;
88429;-0.063477;0.029297;1.065430;
88581;-0.060547;0.021484;1.089844;
88729;-0.064453;0.033203;1.075195;
88869;-0.061523;0.022461;1.072266;
89024;-0.057617;0.026367;1.112305;
89163;-0.054688;0.020508;1.110352;
89304;-0.059570;0.028320;1.084961;
89444;-0.059570;0.018555;1.051758;
89584;-0.059570;0.032227;1.027344;
89724;-0.061523;0.031250;1.005859;
89864;-0.062500;0.033203;0.981445;
90004;-0.061523;0.036133;0.976562;
90144;-0.060547;0.040039;1.004883;
90284;-0.056641;0.031250;1.031250;
90434;-0.047852;0.034180;1.094727;
90574;-0.045898;0.040039;1.152344;
90714;-0.037109;0.035156;1.210938;
90854;-0.038086;0.032227;1.242188;
90990;-0.034180;0.031250;1.294922;
91139;-0.032227;0.025391;1.319336;
91279;-0.031250;0.020508;1.347656;
91430;-0.032227;0.023438;1.349609;
91579;-0.029297;0.021484;1.342773;
91722;-0.026367;0.022461;1.328125;
91859;-0.033203;0.023438;1.315430;
91994;-0.030273;0.018555;1.299805;
92134;-0.031250;0.014648;1.281250;
92269;-0.030273;0.020508;1.288086;
92424;-0.032227;0.023438;1.309570;
92563;-0.028320;0.023438;1.326172;
92704;-0.023438;0.024414;1.317383;
92844;-0.027344;0.016602;1.310547;
92984;-0.022461;0.030273;1.315430;
93124;-0.025391;0.024414;1.301758;
93264;-0.023438;0.029297;1.324219;
93404;-0.018555;0.023438;1.328125;
93544;-0.015625;0.020508;1.332031;
93684;-0.021484;0.027344;1.317383;
93824;-0.012695;0.028320;1.338867;
93970;-0.017578;0.017578;1.358398;
94120;-0.017578;0.002930;1.341797;
94264;-0.011719;0.015625;1.366211;
94409;-0.010742;0.003906;1.375000;
94559;-0.014648;0.016602;1.385742;
94699;-0.009766;0.016602;1.370117;
94844;-0.004883;0.014648;1.394531;
94984;-0.006836;0.016602;1.391602;
95133;-0.004883;0.031250;1.394531;
95273;-0.005859;0.032227;1.384766;
95414;-0.009766;0.035156;1.349609;
95563;-0.009766;0.038086;1.339844;
95704;-0.005859;0.036133;1.317383;
95844;-0.013672;0.034180;1.257812;
95984;-0.011719;0.037109;1.253906;
96124;-0.011719;0.024414;1.215820;
96274;-0.015625;0.029297;1.201172;
96414;-0.011719;0.027344;1.187500;
96554;-0.014648;0.030273;1.185547;
96693;-0.012695;0.031250;1.180664;
96829;-0.010742;0.040039;1.187500;
96979;-0.017578;0.037109;1.173828;
97129;-0.016602;0.024414;1.161133;
97280;-0.014648;0.026367;1.160156;
97430;-0.018555;0.022461;1.144531;
97574;-0.017578;0.033203;1.142578;
97714;-0.012695;0.022461;1.137695;
97854;-0.020508;0.025391;1.106445;
97993;-0.015625;0.015625;1.116211;
98144;-0.016602;0.025391;1.108398;
98284;-0.014648;0.026367;1.096680;
98424;-0.009766;0.019531;1.082031;
98564;-0.009766;0.011719;1.065430;
98704;-0.006836;0.028320;1.062500;
98854;-0.002930;0.024414;1.041016;
98993;-0.007812;0.030273;1.026367;
99134;-0.002930;0.030273;1.047852;
99274;-0.003906;0.028320;1.029297;
99414;-0.001953;0.028320;1.023438;
99549;-0.005859;0.032227;1.006836;
99699;0.000977;0.031250;1.010742;
99849;0.000000;0.033203;1.005859;
99991;-0.001953;0.035156;1.019531;
100134;0.000977;0.033203;0.994141;
100284;0.006836;0.026367;1.026367;
100419;-0.000977;0.038086;1.041016;
100570;0.002930;0.036133;1.004883;
100724;-0.004883;0.035156;0.999023;
100864;-0.003906;0.041016;1.007812;
101004;-0.004883;0.036133;0.993164;
101144;-0.000977;0.021484;0.987305;
101284;-0.004883;0.018555;0.951172;
101424;-0.005859;0.028320;0.946289;
101574;-0.003906;0.029297;0.927734;
101714;-0.006836;0.023438;0.923828;
101854;-0.008789;0.033203;0.901367;
101993;-0.005859;0.037109;0.892578;
102134;-0.007812;0.031250;0.893555;
102283;-0.006836;0.032227;0.904297;
102424;-0.004883;0.027344;0.891602;
102564;-0.008789;0.028320;0.888672;
102709;-0.010742;0.024414;0.890625;
102849;-0.008789;0.025391;0.896484;
103000;-0.007812;0.019531;0.923828;
103149;-0.002930;0.028320;0.945312;
103293;-0.007812;0.033203;0.938477;
103444;-0.005859;0.028320;0.935547;
103584;-0.005859;0.031250;0.953125;
103724;-0.005859;0.034180;0.944336;
103874;-0.004883;0.030273;0.943359;
104013;-0.002930;0.032227;0.955078;
104154;-0.005859;0.028320;0.949219;
104304;-0.000977;0.036133;0.942383;
104444;-0.005859;0.030273;0.950195;
104584;-0.005859;0.032227;0.953125;
104724;-0.004883;0.034180;0.936523;
104864;-0.005859;0.029297;0.925781;
105014;-0.004883;0.029297;0.935547;
105153;-0.006836;0.022461;0.925781;
105294;-0.004883;0.026367;0.905273;
105435;-0.008789;0.027344;0.894531;
105579;-0.007812;0.027344;0.894531;
105729;-0.006836;0.024414;0.897461;
105869;-0.005859;0.029297;0.936523;
106009;-0.006836;0.026367;0.964844;
106149;-0.003906;0.019531;0.988281;
106290;0.000000;0.025391;1.013672;
106434;-0.001953;0.028320;1.060547;
106574;0.002930;0.023438;1.093750;
106724;0.004883;0.027344;1.113281;
106863;0.000977;0.025391;1.145508;
107004;0.007812;0.027344;1.174805;
107144;0.007812;0.029297;1.160156;
107284;0.001953;0.036133;1.150391;
107424;0.004883;0.040039;1.163086;
107564;0.005859;0.024414;1.142578;
107704;0.001953;0.026367;1.113281;
107854;0.002930;0.030273;1.106445;
107994;0.005859;0.033203;1.114258;
108134;0.000977;0.031250;1.097656;
108284;-0.001953;0.030273;1.082031;
108429;0.003906;0.027344;1.122070;
108579;0.003906;0.021484;1.111328;
108709;-0.000977;0.025391;1.075195;
108849;-0.002930;0.017578;1.064453;
108999;0.000000;0.031250;1.080078;
109150;0.001953;0.025391;1.074219;
109303;-0.001953;0.030273;1.064453;
109443;-0.000977;0.029297;1.073242;
109584;0.002930;0.023438;1.084961;
109723;0.000000;0.026367;1.100586;
109864;-0.000977;0.032227;1.100586;
110004;0.003906;0.031250;1.091797;
110144;-0.000977;0.030273;1.077148;
110283;-0.001953;0.029297;1.096680;
110423;0.002930;0.026367;1.095703;
110564;0.005859;0.025391;1.092773;
110713;-0.000977;0.026367;1.058594;
110853;-0.001953;0.025391;1.044922;
110994;0.000977;0.023438;1.061523;
111134;-0.001953;0.020508;1.045898;
111273;-0.000977;0.028320;1.070312;
111419;0.000977;0.027344;1.098633;
111579;0.003906;0.023438;1.109375;
111730;0.003906;0.028320;1.140625;
111880;0.000977;0.028320;1.156250;
112029;0.009766;0.027344;1.199219;
112184;0.011719;0.026367;1.212891;
112334;0.008789;0.026367;1.215820;
112474;0.006836;0.024414;1.224609;
112613;0.008789;0.020508;1.221680;
112754;0.008789;0.023438;1.206055;
112894;0.010742;0.025391;1.202148;
113034;0.004883;0.026367;1.199219;
113174;0.009766;0.020508;1.175781;
113314;0.005859;0.022461;1.156250;
113454;0.002930;0.024414;1.141602;
113594;0.003906;0.021484;1.144531;
113734;0.005859;0.024414;1.127930;
113874;0.000000;0.027344;1.138672;
114013;0.001953;0.025391;1.133789;
114159;0.005859;0.029297;1.124023;
114309;0.000977;0.026367;1.131836;
114459;0.000000;0.032227;1.131836;
114609;0.005859;0.031250;1.139648;
114759;0.007812;0.030273;1.130859;
114894;0.004883;0.032227;1.143555;
115044;0.005859;0.029297;1.139648;
115184;0.009766;0.024414;1.150391;
115324;0.003906;0.026367;1.151367;
115464;0.002930;0.036133;1.166992;
115604;0.009766;0.031250;1.165039;
115753;0.001953;0.036133;1.154297;
115894;0.001953;0.027344;1.155273;
116044;0.009766;0.023438;1.155273;
116184;0.006836;0.025391;1.142578;
116324;0.001953;0.028320;1.127930;
116474;0.005859;0.023438;1.134766;
116614;0.007812;0.024414;1.125000;
116754;0.003906;0.020508;1.141602;
116899;0.007812;0.016602;1.174805;
117039;0.016602;0.020508;1.221680;
117189;0.017578;0.025391;1.254883;
117339;0.013672;0.021484;1.272461;
117479;0.018555;0.024414;1.306641;
117629;0.023438;0.029297;1.316406;
117783;0.015625;0.028320;1.285156;
117924;0.014648;0.025391;1.255859;
118064;0.014648;0.028320;1.228516;
118213;0.012695;0.027344;1.201172;
118353;0.007812;0.027344;1.148438;
118494;0.009766;0.033203;1.137695;
118634;0.005859;0.025391;1.069336;
118774;0.002930;0.019531;1.000000;
118914;0.000000;0.018555;0.970703;
119054;-0.001953;0.024414;0.951172;
119193;-0.000977;0.024414;0.908203;
119333;-0.006836;0.026367;0.890625;
119474;-0.005859;0.027344;0.890625;
119614;-0.004883;0.028320;0.845703;
119749;-0.007812;0.033203;0.808594;
119899;-0.011719;0.031250;0.788086;
120040;-0.004883;0.029297;0.781250;
120179;-0.007812;0.029297;0.747070;
120329;-0.012695;0.031250;0.724609;
120479;-0.005859;0.033203;0.724609;
120634;-0.009766;0.027344;0.707031;
120774;-0.009766;0.033203;0.687500;
120923;-0.011719;0.035156;0.677734;
121063;-0.005859;0.034180;0.674805;
121204;-0.014648;0.031250;0.625977;
121354;-0.014648;0.038086;0.608398;
121493;-0.011719;0.035156;0.576172;
121634;-0.010742;0.039062;0.562500;
121774;-0.014648;0.028320;0.527344;
121914;-0.011719;0.025391;0.504883;
122054;-0.010742;0.024414;0.487305;
122194;-0.014648;0.033203;0.476562;
122334;-0.015625;0.026367;0.504883;
122474;-0.012695;0.026367;0.515625;
122609;-0.013672;0.023438;0.511719;
122759;-0.018555;0.031250;0.556641;
122909;-0.014648;0.029297;0.589844;
123049;-0.008789;0.032227;0.627930;
123200;-0.013672;0.027344;0.675781;
123353;-0.014648;0.035156;0.740234;
123494;-0.006836;0.037109;0.782227;
123634;-0.004883;0.029297;0.832031;
123774;-0.012695;0.036133;0.871094;
123914;-0.003906;0.039062;0.947266;
124054;-0.001953;0.027344;0.975586;
124194;-0.000977;0.029297;1.046875;
124343;0.000000;0.027344;1.109375;
124483;0.007812;0.020508;1.157227;
124624;0.008789;0.016602;1.174805;
124763;0.008789;0.021484;1.204102;
124904;0.009766;0.019531;1.202148;
125044;0.009766;0.021484;1.173828;
125184;0.006836;0.023438;1.141602;
125319;0.003906;0.025391;1.118164;
125459;0.003906;0.018555;1.087891;
125610;0.000977;0.027344;1.068359;
125760;-0.001953;0.029297;1.034180;
125909;-0.002930;0.026367;1.009766;
126064;0.000000;0.029297;1.015625;
126213;-0.002930;0.030273;1.000000;
126354;-0.005859;0.032227;0.994141;
126494;0.000000;0.028320;1.017578;
126643;0.000000;0.029297;1.045898;
126783;0.000000;0.028320;1.057617;
126924;0.001953;0.028320;1.092773;
127064;0.003906;0.021484;1.107422;
127204;0.003906;0.021484;1.125977;
127354;0.005859;0.017578;1.151367;
127494;0.005859;0.016602;1.182617;
127634;0.008789;0.025391;1.170898;
127774;0.004883;0.024414;1.164062;
127914;0.005859;0.025391;1.171875;
128049;0.007812;0.035156;1.204102;
128199;0.010742;0.025391;1.193359;
128340;0.005859;0.028320;1.187500;
128469;0.004883;0.024414;1.203125;
128620;0.009766;0.029297;1.193359;
128769;0.005859;0.024414;1.182617;
128919;0.002930;0.022461;1.168945;
129074;0.002930;0.029297;1.169922;
129214;0.007812;0.024414;1.169922;
129354;0.003906;0.026367;1.160156;
129504;0.008789;0.028320;1.177734;
129644;0.004883;0.023438;1.167969;
129784;0.006836;0.022461;1.157227;
129924;0.004883;0.024414;1.125977;
130063;0.005859;0.014648;1.126953;
130204;0.008789;0.011719;1.141602;
130354;0.002930;0.022461;1.100586;
130494;-0.000977;0.021484;1.073242;
130634;0.005859;0.023438;1.088867;
130774;-0.000977;0.029297;1.066406;
130913;-0.002930;0.031250;1.059570;
131039;-0.000977;0.037109;1.043945;
131190;0.000000;0.030273;1.042969;
131339;0.000977;0.028320;1.047852;
131489;0.000000;0.043945;1.060547;
131629;-0.002930;0.038086;1.068359;
131784;0.002930;0.020508;1.079102;
131934;0.004883;0.020508;1.103516;
132074;0.000977;0.024414;1.132812;
132224;0.005859;0.003906;1.140625;
132364;0.000000;0.033203;1.127930;
132503;0.000977;0.021484;1.091797;
132644;0.001953;0.038086;1.084961;
132784;-0.002930;0.026367;1.088867;
132924;0.000977;0.027344;1.067383;
133064;0.000977;0.017578;1.031250;
133204;-0.002930;0.036133;1.019531;
133344;0.002930;0.028320;0.995117;
133484;-0.004883;0.040039;0.994141;
133624;-0.000977;0.015625;1.054688;
133769;0.000000;0.047852;1.060547;
133920;-0.008789;0.048828;0.986328;
134069;0.000000;0.043945;0.955078;
134219;-0.012695;0.029297;0.964844;
134370;-0.002930;0.030273;0.933594;
134524;0.002930;0.002930;0.909180;
134664;-0.008789;0.021484;0.898438;
134804;-0.009766;0.025391;0.917969;
134943;-0.002930;0.018555;0.916016;
135084;-0.007812;0.008789;0.891602;
135224;-0.002930;0.030273;0.907227;
135364;-0.012695;0.022461;0.959961;
135514;0.000000;0.018555;0.995117;
135653;-0.006836;0.014648;0.964844;
135794;-0.001953;0.028320;1.019531;
135944;-0.000977;0.022461;1.033203;
136083;-0.005859;0.030273;1.043945;
136224;-0.001953;0.043945;1.054688;
136364;-0.003906;0.032227;1.048828;
136499;-0.002930;0.034180;1.029297;
136639;-0.000977;0.027344;1.041992;
136789;-0.006836;0.029297;1.081055;
136930;0.005859;0.021484;1.113281;
137069;0.003906;0.032227;1.117188;
137219;-0.002930;0.035156;1.074219;
137364;-0.002930;0.030273;1.031250;
137514;0.002930;0.031250;1.015625;
137654;-0.010742;0.037109;1.001953;
137793;-0.001953;0.031250;1.019531;
137943;-0.000977;0.019531;1.022461;
138084;0.000000;0.022461;1.014648;
138224;0.000000;0.023438;1.018555;
138373;-0.002930;0.021484;1.034180;
138514;-0.001953;0.027344;1.054688;
138654;0.001953;0.025391;1.065430;
138803;-0.002930;0.024414;1.049805;
138944;0.000000;0.025391;1.060547;
139084;-0.001953;0.027344;1.040039;
139224;-0.003906;0.034180;1.051758;
139364;-0.002930;0.032227;1.050781;
139504;0.000977;0.028320;1.040039;
139640;-0.005859;0.028320;1.033203;
139789;-0.003906;0.028320;1.020508;
139939;-0.004883;0.025391;1.013672;
140090;-0.000977;0.024414;1.020508;
140239;-0.004883;0.024414;1.013672;
140379;-0.002930;0.020508;1.018555;
140534;-0.002930;0.024414;1.022461;
140674;-0.001953;0.023438;1.025391;
140814;-0.000977;0.026367;1.030273;
140954;-0.000977;0.027344;1.061523;
141094;-0.001953;0.025391;1.062500;
141234;0.000000;0.026367;1.057617;
141374;-0.002930;0.030273;1.069336;
141514;-0.001953;0.028320;1.094727;
141653;0.000000;0.027344;1.081055;
141794;0.000000;0.023438;1.089844;
141934;-0.002930;0.033203;1.090820;
142074;-0.001953;0.027344;1.071289;
142224;-0.002930;0.025391;1.054688;
142364;-0.001953;0.028320;1.052734;
142500;0.000977;0.024414;1.050781;
142649;0.000000;0.023438;1.039062;
142789;-0.002930;0.024414;1.029297;
142941;-0.002930;0.028320;1.019531;
143069;-0.003906;0.028320;1.015625;
143221;-0.000977;0.027344;1.017578;
143364;-0.001953;0.026367;1.000000;
143504;-0.001953;0.030273;1.020508;
143644;-0.003906;0.030273;1.027344;
143784;0.000977;0.031250;1.034180;
143924;-0.002930;0.034180;1.028320;
144064;0.000000;0.027344;1.043945;
144204;-0.000977;0.033203;1.042969;
144344;-0.004883;0.026367;1.028320;
144484;-0.002930;0.026367;1.023438;
144624;-0.002930;0.028320;1.021484;
144764;-0.002930;0.025391;1.007812;
144904;-0.002930;0.025391;0.985352;
145044;-0.000977;0.024414;0.997070;
145184;-0.000977;0.024414;0.979492;
145329;-0.005859;0.029297;0.962891;
145484;-0.006836;0.025391;0.960938;
145630;-0.003906;0.026367;0.966797;
145779;-0.003906;0.029297;0.968750;
145930;-0.004883;0.028320;0.955078;
146079;-0.005859;0.027344;0.976562;
146223;-0.002930;0.026367;0.988281;
146364;0.000000;0.023438;0.988281;
146504;-0.001953;0.028320;0.985352;
146643;-0.005859;0.026367;0.998047;
146784;-0.000977;0.029297;1.006836;
146924;-0.001953;0.029297;1.006836;
147064;-0.005859;0.027344;1.001953;
147204;-0.003906;0.026367;1.020508;
147344;-0.000977;0.027344;1.000000;
147484;-0.003906;0.029297;1.000000;
147633;-0.004883;0.026367;1.009766;
147773;-0.000977;0.027344;0.989258;
147914;-0.005859;0.022461;0.985352;
148054;-0.007812;0.026367;0.980469;
148190;-0.002930;0.023438;0.993164;
148339;0.000000;0.027344;0.974609;
148489;-0.007812;0.022461;0.957031;
148639;-0.006836;0.028320;0.982422;
148789;-0.005859;0.028320;0.979492;
148943;-0.003906;0.031250;0.985352;
149084;-0.011719;0.031250;0.958008;
149224;-0.005859;0.034180;0.981445;
149364;-0.001953;0.027344;1.002930;
149504;-0.006836;0.024414;0.992188;
149643;-0.008789;0.032227;1.006836;
149783;-0.000977;0.027344;1.019531;
149923;-0.003906;0.024414;1.011719;
150064;-0.003906;0.030273;1.017578;
150214;-0.004883;0.022461;1.028320;
150354;-0.003906;0.024414;1.044922;
150494;-0.003906;0.018555;1.031250;
150634;-0.003906;0.023438;1.041992;
150774;-0.000977;0.022461;1.046875;
150910;-0.000977;0.023438;1.052734;
151059;-0.002930;0.020508;1.031250;
151210;-0.002930;0.028320;1.047852;
151344;-0.002930;0.022461;1.036133;
151479;-0.003906;0.027344;1.017578;
151624;-0.006836;0.028320;1.024414;
151759;-0.001953;0.029297;1.031250;
151909;-0.001953;0.027344;1.029297;
152054;-0.000977;0.026367;1.031250;
152194;-0.004883;0.033203;1.030273;
152334;-0.005859;0.036133;1.040039;
152474;-0.003906;0.031250;1.035156;
152613;-0.002930;0.033203;1.026367;
152754;-0.002930;0.035156;1.046875;
152894;-0.000977;0.028320;1.041016;
153034;-0.003906;0.029297;1.025391;
153174;-0.005859;0.029297;1.026367;
153314;-0.003906;0.025391;1.026367;
153454;-0.002930;0.018555;1.012695;
153594;-0.003906;0.029297;1.013672;
153734;-0.005859;0.022461;1.023438;
153873;-0.001953;0.023438;1.019531;
154010;-0.004883;0.020508;0.997070;
154159;-0.008789;0.020508;0.992188;
154309;-0.008789;0.016602;0.999023;
154459;-0.007812;0.014648;1.004883;
154614;-0.005859;0.015625;0.998047;
154749;-0.015625;0.017578;0.991211;
154899;-0.018555;0.019531;0.992188;
155054;-0.018555;0.027344;0.996094;
155194;-0.019531;0.027344;0.998047;
155344;-0.017578;0.029297;1.006836;
155484;-0.015625;0.035156;1.009766;
155624;-0.013672;0.036133;1.021484;
155764;-0.015625;0.032227;1.016602;
155903;-0.012695;0.038086;1.022461;
156044;-0.013672;0.033203;1.028320;
156194;-0.010742;0.029297;1.030273;
156334;-0.009766;0.030273;1.032227;
156474;-0.006836;0.032227;1.046875;
156614;-0.008789;0.029297;1.055664;
156754;-0.011719;0.032227;1.063477;
156894;-0.010742;0.032227;1.079102;
157029;-0.012695;0.033203;1.099609;
157179;-0.010742;0.032227;1.096680;
157329;-0.007812;0.025391;1.105469;
157469;-0.008789;0.026367;1.120117;
157610;-0.006836;0.030273;1.118164;
157739;-0.004883;0.025391;1.124023;
157894;-0.004883;0.024414;1.134766;
158034;-0.007812;0.030273;1.119141;
158174;-0.007812;0.028320;1.114258;
158324;-0.009766;0.031250;1.101562;
158463;-0.011719;0.031250;1.098633;
158604;-0.007812;0.034180;1.097656;
158743;-0.008789;0.033203;1.083008;
158884;-0.004883;0.033203;1.082031;
159024;-0.006836;0.023438;1.059570;
159163;-0.010742;0.031250;1.041992;
159304;-0.010742;0.029297;1.036133;
159444;-0.015625;0.023438;1.023438;
159584;-0.013672;0.023438;0.994141;
159724;-0.015625;0.026367;0.996094;
159869;-0.012695;0.025391;1.003906;
160010;-0.011719;0.024414;1.000977;
160149;-0.009766;0.030273;1.008789;
160279;-0.011719;0.031250;0.991211;
160419;-0.013672;0.027344;0.974609;
160570;-0.018555;0.036133;0.973633;
160724;-0.015625;0.037109;0.974609;
160864;-0.017578;0.037109;0.983398;
161004;-0.017578;0.032227;0.984375;
161144;-0.012695;0.038086;1.002930;
161284;-0.012695;0.037109;0.988281;
161424;-0.013672;0.030273;0.977539;
161564;-0.013672;0.025391;0.981445;
161713;-0.014648;0.030273;0.967773;
161864;-0.018555;0.026367;0.947266;
162004;-0.017578;0.028320;0.934570;
162144;-0.017578;0.025391;0.916992;
162284;-0.018555;0.026367;0.914062;
162424;-0.014648;0.027344;0.920898;
162563;-0.016602;0.022461;0.906250;
162699;-0.017578;0.023438;0.899414;
162839;-0.019531;0.025391;0.891602;
162989;-0.015625;0.027344;0.894531;
163129;-0.020508;0.027344;0.884766;
163259;-0.018555;0.028320;0.886719;
163399;-0.021484;0.031250;0.887695;
163549;-0.019531;0.026367;0.885742;
163703;-0.019531;0.027344;0.893555;
163844;-0.016602;0.024414;0.912109;
163984;-0.018555;0.019531;0.918945;
164124;-0.017578;0.026367;0.922852;
164264;-0.015625;0.023438;0.925781;
164414;-0.015625;0.024414;0.947266;
164554;-0.019531;0.027344;0.969727;
164694;-0.016602;0.028320;1.008789;
164843;-0.014648;0.027344;1.051758;
164984;-0.011719;0.026367;1.099609;
165124;-0.010742;0.025391;1.138672;
165264;-0.004883;0.027344;1.173828;
165404;-0.001953;0.025391;1.197266;
165544;-0.000977;0.022461;1.228516;
165689;-0.000977;0.026367;1.245117;
165829;-0.001953;0.021484;1.260742;
165979;-0.002930;0.026367;1.259766;
166129;-0.002930;0.027344;1.264648;
166280;0.000000;0.022461;1.273438;
166434;-0.002930;0.028320;1.256836;
166574;-0.003906;0.023438;1.257812;
166724;-0.001953;0.025391;1.237305;
166864;-0.000977;0.023438;1.234375;
167003;-0.002930;0.026367;1.216797;
167154;-0.002930;0.018555;1.199219;
167294;-0.001953;0.024414;1.199219;
167434;-0.005859;0.023438;1.179688;
167574;-0.008789;0.023438;1.158203;
167714;-0.006836;0.024414;1.148438;
167864;-0.008789;0.024414;1.138672;
168004;-0.009766;0.019531;1.118164;
168144;-0.008789;0.025391;1.112305;
168284;-0.007812;0.027344;1.080078;
168420;-0.009766;0.021484;1.044922;
168559;-0.013672;0.026367;1.015625;
168709;-0.014648;0.022461;0.972656;
168859;-0.017578;0.023438;0.963867;
168999;-0.016602;0.026367;0.938477;
169154;-0.020508;0.028320;0.914062;
169294;-0.017578;0.030273;0.923828;
169434;-0.017578;0.030273;0.911133;
169574;-0.013672;0.030273;0.908203;
169714;-0.016602;0.027344;0.889648;
169854;-0.018555;0.029297;0.882812;
169994;-0.021484;0.030273;0.887695;
170144;-0.017578;0.030273;0.880859;
170284;-0.019531;0.027344;0.879883;
170424;-0.021484;0.027344;0.881836;
170564;-0.018555;0.031250;0.914062;
170704;-0.016602;0.029297;0.929688;
170844;-0.011719;0.028320;0.952148;
170984;-0.013672;0.023438;0.973633;
171119;-0.015625;0.025391;0.975586;
171269;-0.012695;0.027344;1.004883;
171419;-0.013672;0.029297;1.021484;
171569;-0.014648;0.029297;1.041016;
171719;-0.014648;0.025391;1.045898;
171864;-0.015625;0.026367;1.041016;
172004;-0.014648;0.028320;1.035156;
172143;-0.013672;0.029297;1.031250;
172284;-0.011719;0.031250;1.008789;
172424;-0.011719;0.031250;0.987305;
172564;-0.012695;0.027344;0.952148;
172704;-0.018555;0.026367;0.916016;
172844;-0.016602;0.026367;0.900391;
172984;-0.019531;0.023438;0.884766;
173124;-0.018555;0.018555;0.868164;
173263;-0.015625;0.022461;0.879883;
173404;-0.015625;0.019531;0.881836;
173544;-0.014648;0.023438;0.901367;
173684;-0.016602;0.020508;0.925781;
173819;-0.019531;0.021484;0.919922;
173969;-0.016602;0.027344;0.949219;
174122;-0.018555;0.025391;0.976562;
174274;-0.011719;0.028320;1.006836;
174409;-0.014648;0.027344;1.037109;
174549;-0.010742;0.032227;1.054688;
174690;-0.010742;0.031250;1.081055;
174851;-0.014648;0.028320;1.083984;
174999;-0.008789;0.032227;1.093750;
175144;-0.008789;0.026367;1.087891;
175284;-0.009766;0.027344;1.101562;
175424;-0.012695;0.022461;1.108398;
175564;-0.011719;0.023438;1.110352;
175714;-0.008789;0.026367;1.106445;
175854;-0.007812;0.030273;1.118164;
175994;-0.010742;0.029297;1.121094;
176134;-0.009766;0.030273;1.128906;
176274;-0.009766;0.030273;1.147461;
176424;-0.005859;0.025391;1.142578;
176564;-0.004883;0.025391;1.152344;
176704;-0.004883;0.025391;1.166992;
176844;-0.007812;0.028320;1.170898;
176984;-0.004883;0.025391;1.182617;
177124;-0.005859;0.024414;1.197266;
177259;-0.005859;0.024414;1.195312;
177409;0.000000;0.023438;1.208984;
177549;-0.003906;0.027344;1.195312;
177701;-0.002930;0.028320;1.181641;
177849;-0.002930;0.026367;1.167969;
177989;-0.004883;0.027344;1.144531;
178124;-0.008789;0.026367;1.129883;
178264;-0.008789;0.026367;1.103516;
178404;-0.011719;0.026367;1.086914;
178544;-0.012695;0.030273;1.064453;
178694;-0.013672;0.028320;1.044922;
178834;-0.008789;0.028320;1.052734;
178974;-0.010742;0.032227;1.041016;
179124;-0.012695;0.030273;1.024414;
179263;-0.013672;0.030273;1.019531;
179404;-0.010742;0.030273;1.014648;
179544;-0.017578;0.030273;0.999023;
179684;-0.014648;0.027344;1.000000;
179824;-0.018555;0.031250;1.000977;
179963;-0.019531;0.030273;0.991211;
180109;-0.013672;0.025391;1.007812;
180249;-0.013672;0.026367;1.002930;
180404;-0.013672;0.030273;1.003906;
180539;-0.010742;0.029297;1.000000;
180679;-0.014648;0.025391;0.999023;
180829;-0.012695;0.028320;0.987305;
180974;-0.014648;0.028320;0.983398;
181109;-0.013672;0.029297;0.980469;
181239;-0.018555;0.028320;0.979492;
181394;-0.017578;0.027344;0.994141;
181534;-0.012695;0.027344;0.987305;
181674;-0.012695;0.026367;0.991211;
181814;-0.010742;0.031250;0.996094;
181953;-0.014648;0.021484;0.990234;
182094;-0.014648;0.023438;0.984375;
182234;-0.015625;0.025391;0.980469;
182374;-0.015625;0.026367;0.996094;
182514;-0.014648;0.024414;0.976562;
182654;-0.010742;0.023438;1.012695;
182794;-0.014648;0.024414;0.998047;
182933;-0.008789;0.032227;0.997070;
183073;-0.015625;0.026367;0.990234;
183214;-0.012695;0.028320;0.989258;
183349;-0.015625;0.026367;0.991211;
183479;-0.017578;0.026367;1.003906;
183619;-0.014648;0.024414;0.999023;
183769;-0.008789;0.031250;0.998047;
183909;-0.014648;0.028320;1.004883;
184059;-0.014648;0.028320;1.011719;
184214;-0.010742;0.025391;1.019531;
184364;-0.012695;0.022461;1.012695;
184503;-0.013672;0.029297;1.023438;
184644;-0.013672;0.028320;1.017578;
184783;-0.011719;0.028320;1.019531;
184924;-0.013672;0.031250;1.025391;
185064;-0.011719;0.023438;1.026367;
185204;-0.010742;0.023438;1.039062;
185344;-0.008789;0.028320;1.038086;
185494;-0.009766;0.029297;1.047852;
185634;-0.007812;0.028320;1.046875;
185774;-0.010742;0.023438;1.040039;
185924;-0.010742;0.030273;1.041992;
186063;-0.011719;0.021484;1.036133;
186199;-0.011719;0.028320;1.041016;
186349;-0.010742;0.023438;1.033203;
186489;-0.009766;0.023438;1.039062;
186640;-0.011719;0.024414;1.046875;
186792;-0.006836;0.029297;1.063477;
186919;-0.008789;0.022461;1.056641;
187054;-0.010742;0.023438;1.048828;
187194;-0.007812;0.025391;1.063477;
187334;-0.011719;0.030273;1.048828;
187474;-0.012695;0.026367;1.053711;
187624;-0.010742;0.026367;1.058594;
187764;-0.010742;0.030273;1.060547;
187904;-0.007812;0.026367;1.056641;
188043;-0.008789;0.020508;1.049805;
188183;-0.009766;0.030273;1.044922;
188324;-0.010742;0.023438;1.035156;
188464;-0.009766;0.027344;1.010742;
188604;-0.011719;0.025391;1.011719;
188744;-0.013672;0.030273;1.014648;
188893;-0.011719;0.022461;1.012695;
189029;-0.013672;0.033203;1.015625;
189179;-0.013672;0.028320;1.015625;
189329;-0.009766;0.030273;1.014648;
189489;-0.009766;0.025391;1.008789;
189619;-0.008789;0.030273;1.016602;
189749;-0.011719;0.026367;0.996094;
189899;-0.011719;0.026367;0.999023;
190054;-0.013672;0.028320;0.986328;
190194;-0.013672;0.024414;0.999023;
190344;-0.011719;0.029297;1.014648;
190484;-0.013672;0.027344;1.011719;
190624;-0.014648;0.025391;1.008789;
190764;-0.007812;0.024414;1.029297;
190904;-0.009766;0.028320;1.028320;
191043;-0.011719;0.030273;1.019531;
191183;-0.009766;0.029297;1.014648;
191324;-0.009766;0.028320;1.010742;
191463;-0.011719;0.030273;1.014648;
191604;-0.013672;0.026367;1.008789;
191743;-0.009766;0.029297;1.012695;
191884;-0.012695;0.027344;1.016602;
192019;-0.010742;0.024414;1.013672;
192161;-0.010742;0.026367;0.991211;
192304;-0.016602;0.027344;0.979492;
192449;-0.011719;0.028320;0.980469;
192600;-0.013672;0.027344;0.987305;
192749;-0.011719;0.030273;0.973633;
192900;-0.018555;0.030273;0.988281;
193054;-0.008789;0.032227;1.000977;
193193;-0.012695;0.029297;1.024414;
193334;-0.008789;0.033203;1.034180;
193484;-0.009766;0.028320;1.044922;
193624;-0.012695;0.024414;1.064453;
193764;-0.006836;0.023438;1.058594;
193913;-0.007812;0.029297;1.083008;
194054;-0.010742;0.030273;1.067383;
194194;-0.011719;0.025391;1.058594;
194344;-0.011719;0.027344;1.056641;
194483;-0.010742;0.027344;1.058594;
194624;-0.009766;0.024414;1.065430;
194764;-0.008789;0.022461;1.056641;
194904;-0.005859;0.022461;1.053711;
195039;-0.008789;0.025391;1.042969;
195189;-0.010742;0.028320;1.034180;
195339;-0.010742;0.026367;1.018555;
195479;-0.010742;0.034180;1.024414;
195631;-0.011719;0.024414;1.012695;
195784;-0.011719;0.030273;1.012695;
195934;-0.011719;0.024414;1.006836;
196074;-0.012695;0.030273;1.012695;
196213;-0.009766;0.023438;1.008789;
196353;-0.008789;0.025391;1.008789;
196494;-0.011719;0.029297;1.014648;
196634;-0.009766;0.024414;1.010742;
196784;-0.008789;0.028320;1.018555;
196924;-0.011719;0.027344;0.998047;
197064;-0.012695;0.026367;1.006836;
197204;-0.011719;0.028320;1.002930;
197344;-0.011719;0.025391;1.000977;
197484;-0.012695;0.027344;1.016602;
197624;-0.014648;0.023438;1.016602;
197769;-0.008789;0.026367;1.016602;
197919;-0.010742;0.022461;1.028320;
198059;-0.008789;0.027344;1.019531;
198190;-0.010742;0.031250;1.027344;
198329;-0.011719;0.031250;1.023438;
198479;-0.013672;0.029297;1.027344;
198624;-0.015625;0.035156;1.021484;
198764;-0.012695;0.029297;1.043945;
198913;-0.008789;0.030273;1.062500;
199054;-0.007812;0.027344;1.065430;
199194;-0.008789;0.024414;1.074219;
199334;-0.003906;0.030273;1.095703;
199474;-0.007812;0.028320;1.100586;
199614;-0.006836;0.026367;1.108398;
199754;-0.003906;0.024414;1.122070;
199894;-0.004883;0.027344;1.131836;
200034;-0.003906;0.021484;1.141602;
200174;-0.002930;0.021484;1.146484;
200314;0.000977;0.023438;1.148438;
200464;-0.001953;0.024414;1.156250;
200599;0.000977;0.021484;1.154297;
200739;-0.000977;0.023438;1.162109;
200880;0.005859;0.028320;1.166992;
201031;0.001953;0.024414;1.155273;
201181;0.006836;0.024414;1.166016;
201329;0.006836;0.024414;1.164062;
201479;0.007812;0.026367;1.151367;
201629;0.009766;0.024414;1.158203;
201784;0.010742;0.023438;1.157227;
201924;0.010742;0.025391;1.149414;
202064;0.010742;0.025391;1.140625;
202213;0.013672;0.023438;1.149414;
202354;0.009766;0.020508;1.124023;
202494;0.009766;0.024414;1.120117;
202633;0.011719;0.021484;1.109375;
202773;0.010742;0.023438;1.096680;
202914;0.012695;0.025391;1.076172;
203064;0.009766;0.021484;1.055664;
203204;0.010742;0.022461;1.050781;
203344;0.012695;0.022461;1.007812;
203483;0.014648;0.028320;1.009766;
203624;0.015625;0.023438;0.979492;
203759;0.015625;0.025391;0.967773;
203899;0.016602;0.023438;0.960938;
204050;0.020508;0.021484;0.953125;
204199;0.015625;0.024414;0.946289;
204349;0.020508;0.021484;0.950195;
204499;0.014648;0.022461;0.938477;
204653;0.018555;0.030273;0.937500;
204794;0.021484;0.025391;0.930664;
204934;0.023438;0.028320;0.920898;
205074;0.023438;0.025391;0.915039;
205214;0.023438;0.027344;0.911133;
205354;0.028320;0.023438;0.910156;
205493;0.028320;0.021484;0.902344;
205634;0.031250;0.026367;0.912109;
205774;0.032227;0.024414;0.906250;
205923;0.036133;0.027344;0.912109;
206064;0.036133;0.024414;0.906250;
206203;0.038086;0.026367;0.916992;
206354;0.041992;0.023438;0.920898;
206494;0.041016;0.024414;0.926758;
206629;0.046875;0.026367;0.924805;
206770;0.047852;0.025391;0.941406;
206909;0.055664;0.026367;0.945312;
207049;0.061523;0.023438;0.944336;
207189;0.067383;0.027344;0.974609;
207329;0.072266;0.027344;0.976562;
207464;0.075195;0.028320;0.980469;
207604;0.083008;0.028320;0.997070;
207744;0.087891;0.026367;1.016602;
207883;0.095703;0.026367;0.998047;
208023;0.098633;0.019531;1.001953;
208163;0.097656;0.023438;1.009766;
208304;0.097656;0.024414;1.023438;
208444;0.098633;0.024414;1.041016;
208584;0.096680;0.029297;1.035156;
208724;0.101562;0.024414;1.042969;
208863;0.104492;0.022461;1.050781;
209004;0.106445;0.026367;1.058594;
209144;0.102539;0.026367;1.036133;
209293;0.099609;0.031250;1.056641;
209429;0.099609;0.023438;1.042969;
209580;0.100586;0.030273;1.038086;
209719;0.099609;0.030273;1.043945;
209859;0.098633;0.028320;1.018555;
210009;0.099609;0.022461;1.021484;
210149;0.101562;0.026367;1.006836;
210299;0.097656;0.023438;1.011719;
210454;0.096680;0.031250;1.013672;
210593;0.094727;0.030273;1.027344;
210734;0.094727;0.030273;1.024414;
210874;0.097656;0.030273;1.047852;
211014;0.097656;0.030273;1.041992;
211164;0.101562;0.025391;1.051758;
211304;0.099609;0.027344;1.034180;
211444;0.099609;0.027344;1.059570;
211593;0.099609;0.022461;1.044922;
211734;0.099609;0.022461;1.048828;
211874;0.095703;0.018555;1.045898;
212014;0.095703;0.018555;1.031250;
212154;0.095703;0.024414;1.054688;
212294;0.096680;0.028320;1.043945;
212424;0.094727;0.023438;1.054688;
212564;0.095703;0.022461;1.046875;
212704;0.095703;0.025391;1.017578;
212839;0.097656;0.024414;1.009766;
212990;0.093750;0.025391;1.009766;
213139;0.093750;0.022461;1.013672;
213289;0.092773;0.024414;1.007812;
213439;0.094727;0.024414;1.026367;
213589;0.093750;0.021484;1.039062;
213744;0.091797;0.027344;1.065430;
213884;0.090820;0.025391;1.069336;
214024;0.092773;0.023438;1.066406;
214164;0.093750;0.024414;1.068359;
214304;0.097656;0.024414;1.045898;
214444;0.096680;0.019531;1.040039;
214584;0.093750;0.026367;1.014648;
214733;0.092773;0.019531;1.015625;
214874;0.090820;0.024414;0.995117;
215014;0.092773;0.029297;1.012695;
215154;0.088867;0.028320;1.011719;
215294;0.090820;0.027344;0.995117;
215434;0.089844;0.027344;0.996094;
215573;0.086914;0.032227;0.975586;
215709;0.089844;0.025391;0.968750;
215859;0.088867;0.031250;0.989258;
216009;0.087891;0.031250;1.006836;
216151;0.086914;0.033203;1.012695;
216299;0.087891;0.029297;1.009766;
216454;0.087891;0.029297;1.031250;
216594;0.088867;0.030273;1.038086;
216734;0.089844;0.027344;1.067383;
216874;0.090820;0.019531;1.038086;
217014;0.089844;0.024414;1.067383;
217163;0.090820;0.021484;1.070312;
217304;0.088867;0.021484;1.064453;
217443;0.090820;0.029297;1.073242;
217584;0.090820;0.024414;1.057617;
217734;0.089844;0.019531;1.055664;
217874;0.088867;0.019531;1.032227;
218014;0.089844;0.024414;1.016602;
218164;0.085938;0.020508;1.002930;
218304;0.083984;0.024414;1.013672;
218439;0.084961;0.026367;1.019531;
218589;0.083984;0.031250;1.014648;
218729;0.085938;0.030273;0.997070;
218879;0.086914;0.032227;0.978516;
219019;0.078125;0.024414;0.950195;
219160;0.081055;0.026367;0.966797;
219309;0.080078;0.025391;0.986328;
219444;0.083008;0.025391;0.992188;
219594;0.082031;0.026367;0.970703;
219734;0.084961;0.021484;0.945312;
219873;0.082031;0.020508;0.929688;
220024;0.078125;0.022461;0.934570;
220164;0.079102;0.028320;0.950195;
220303;0.079102;0.027344;0.959961;
220444;0.081055;0.030273;0.956055;
220583;0.080078;0.025391;0.926758;
220724;0.078125;0.030273;0.929688;
220873;0.079102;0.031250;0.947266;
221014;0.077148;0.031250;0.978516;
221154;0.082031;0.033203;0.993164;
221294;0.082031;0.033203;0.969727;
221429;0.083008;0.024414;0.976562;
221579;0.079102;0.026367;1.016602;
221729;0.079102;0.029297;1.078125;
221859;0.081055;0.027344;1.175781;
221989;0.089844;0.023438;1.236328;
222139;0.093750;0.021484;1.325195;
222294;0.096680;0.018555;1.392578;
222434;0.100586;0.019531;1.478516;
222584;0.105469;0.022461;1.558594;
222724;0.110352;0.023438;1.619141;
222864;0.113281;0.018555;1.667969;
223014;0.117188;0.022461;1.716797;
223154;0.117188;0.013672;1.717773;
223294;0.114258;0.021484;1.748047;
223434;0.120117;0.025391;1.783203;
223574;0.117188;0.028320;1.792969;
223714;0.121094;0.020508;1.795898;
223854;0.123047;0.016602;1.807617;
223993;0.121094;0.013672;1.820312;
224134;0.125000;0.015625;1.853516;
224274;0.125000;0.014648;1.866211;
224419;0.127930;0.018555;1.881836;
224569;0.126953;0.019531;1.880859;
224709;0.128906;0.023438;1.894531;
224839;0.123047;0.017578;1.876953;
224989;0.128906;0.022461;1.881836;
225139;0.128906;0.016602;1.875977;
225284;0.127930;0.023438;1.872070;
225424;0.129883;0.030273;1.875000;
225564;0.122070;0.026367;1.865234;
225704;0.126953;0.025391;1.860352;
225844;0.126953;0.023438;1.860352;
225983;0.125000;0.026367;1.871094;
226124;0.126953;0.021484;1.883789;
226263;0.126953;0.021484;1.881836;
226404;0.127930;0.015625;1.884766;
226554;0.131836;0.015625;1.902344;
226694;0.131836;0.014648;1.895508;
226834;0.129883;0.019531;1.902344;
226974;0.128906;0.016602;1.883789;
227114;0.128906;0.014648;1.881836;
227259;0.128906;0.011719;1.878906;
227399;0.128906;0.008789;1.863281;
227549;0.126953;0.009766;1.844727;
227699;0.130859;0.015625;1.839844;
227839;0.128906;0.008789;1.842773;
227989;0.129883;0.016602;1.832031;
228134;0.128906;0.012695;1.822266;
228274;0.127930;0.016602;1.820312;
228423;0.130859;0.014648;1.825195;
228564;0.126953;0.012695;1.812500;
228704;0.129883;0.015625;1.817383;
228853;0.132812;0.013672;1.813477;
228994;0.128906;0.016602;1.799805;
229134;0.128906;0.010742;1.794922;
229274;0.129883;0.011719;1.804688;
229414;0.130859;0.020508;1.805664;
229563;0.129883;0.017578;1.803711;
229703;0.128906;0.023438;1.799805;
229844;0.130859;0.018555;1.785156;
229983;0.133789;0.015625;1.791016;
230129;0.130859;0.020508;1.789062;
230279;0.132812;0.024414;1.790039;
230421;0.130859;0.019531;1.780273;
230559;0.132812;0.017578;1.780273;
230709;0.133789;0.019531;1.799805;
230864;0.136719;0.018555;1.787109;
231004;0.136719;0.016602;1.791992;
231154;0.135742;0.014648;1.786133;
231294;0.139648;0.016602;1.796875;
231434;0.134766;0.014648;1.797852;
231574;0.137695;0.004883;1.811523;
231714;0.142578;0.014648;1.825195;
231854;0.144531;0.014648;1.844727;
231994;0.146484;0.017578;1.839844;
232134;0.144531;0.017578;1.830078;
232284;0.145508;0.023438;1.836914;
232424;0.142578;0.021484;1.810547;
232564;0.146484;0.018555;1.810547;
232713;0.149414;0.011719;1.826172;
232849;0.146484;0.011719;1.820312;
232989;0.150391;0.008789;1.825195;
233129;0.148438;0.000000;1.808594;
233274;0.149414;0.001953;1.808594;
233414;0.150391;-0.001953;1.820312;
233554;0.148438;0.002930;1.784180;
233689;0.151367;0.004883;1.774414;
233819;0.150391;0.007812;1.765625;
233959;0.153320;0.017578;1.776367;
234111;0.152344;0.014648;1.788086;
234254;0.153320;0.013672;1.780273;
234394;0.151367;0.019531;1.772461;
234544;0.153320;0.028320;1.793945;
234684;0.155273;0.023438;1.803711;
234823;0.159180;0.028320;1.816406;
234964;0.158203;0.023438;1.827148;
235104;0.161133;0.021484;1.809570;
235244;0.163086;0.019531;1.822266;
235384;0.161133;0.021484;1.827148;
235524;0.165039;0.012695;1.834961;
235664;0.165039;0.014648;1.816406;
235813;0.167969;0.011719;1.810547;
235954;0.167969;0.022461;1.816406;
236094;0.164062;0.019531;1.803711;
236239;0.166992;0.018555;1.802734;
236369;0.171875;0.019531;1.801758;
236520;0.170898;0.017578;1.812500;
236669;0.167969;0.021484;1.811523;
236819;0.173828;0.024414;1.798828;
236969;0.171875;0.022461;1.781250;
237114;0.175781;0.024414;1.795898;
237254;0.177734;0.022461;1.774414;
237394;0.178711;0.018555;1.801758;
237534;0.179688;0.023438;1.789062;
237684;0.185547;0.021484;1.797852;
237824;0.184570;0.029297;1.787109;
237964;0.181641;0.027344;1.779297;
238113;0.184570;0.031250;1.768555;
238253;0.187500;0.026367;1.776367;
238394;0.186523;0.028320;1.774414;
238534;0.190430;0.029297;1.778320;
238674;0.192383;0.029297;1.787109;
238813;0.192383;0.026367;1.795898;
238954;0.195312;0.027344;1.783203;
239090;0.197266;0.020508;1.767578;
239239;0.196289;0.014648;1.771484;
239389;0.198242;0.015625;1.776367;
239529;0.199219;0.016602;1.783203;
239659;0.204102;0.012695;1.778320;
239810;0.199219;0.015625;1.748047;
239963;0.201172;0.017578;1.725586;
240103;0.200195;0.012695;1.740234;
240244;0.203125;0.009766;1.727539;
240384;0.205078;0.006836;1.723633;
240524;0.207031;0.000977;1.725586;
240664;0.209961;0.010742;1.721680;
240804;0.210938;0.008789;1.733398;
240944;0.209961;0.014648;1.757812;
241083;0.213867;0.014648;1.750977;
241223;0.207031;0.021484;1.762695;
241364;0.205078;0.020508;1.754883;
241504;0.203125;0.016602;1.732422;
241644;0.194336;0.019531;1.733398;
241784;0.188477;0.019531;1.717773;
241929;0.185547;0.017578;1.680664;
242069;0.173828;0.021484;1.702148;
242220;0.165039;0.021484;1.674805;
242369;0.165039;0.023438;1.701172;
242519;0.161133;0.023438;1.670898;
242659;0.149414;0.034180;1.623047;
242814;0.140625;0.023438;1.580078;
242953;0.131836;0.020508;1.522461;
243093;0.120117;0.020508;1.404297;
243233;0.104492;0.014648;1.314453;
243374;0.085938;0.008789;1.200195;
243524;0.071289;0.015625;1.090820;
243664;0.054688;0.014648;0.948242;
243804;0.041016;0.016602;0.849609;
243944;0.027344;0.022461;0.706055;
244084;0.011719;0.021484;0.570312;
244234;0.008789;0.024414;0.506836;
244373;0.001953;0.022461;0.394531;
244514;0.002930;0.025391;0.326172;
244654;0.003906;0.023438;0.268555;
244789;0.005859;0.026367;0.230469;
244939;-0.000977;0.031250;0.147461;
245090;0.001953;0.030273;0.122070;
245239;-0.001953;0.030273;0.068359;
245389;-0.000977;0.031250;0.055664;
245544;0.000000;0.028320;0.023438;
245684;0.000000;0.027344;0.013672;
245834;-0.002930;0.029297;0.009766;
245974;0.000977;0.029297;0.003906;
246114;-0.003906;0.029297;0.003906;
246254;-0.001953;0.030273;0.000000;
246393;-0.002930;0.029297;0.001953;
246533;-0.003906;0.029297;0.006836;
246673;-0.005859;0.029297;0.014648;
246824;-0.009766;0.031250;0.001953;
246964;-0.006836;0.026367;0.007812;
247104;-0.003906;0.030273;0.021484;
247244;-0.001953;0.033203;0.022461;
247384;-0.003906;0.030273;0.016602;
247529;-0.009766;0.029297;0.013672;
247671;-0.007812;0.029297;0.017578;
247819;-0.012695;0.031250;0.005859;
247969;-0.010742;0.029297;0.013672;
248109;-0.006836;0.032227;0.020508;
248259;-0.005859;0.034180;0.010742;
248409;-0.006836;0.029297;0.010742;
248549;-0.008789;0.032227;0.011719;
248699;-0.012695;0.033203;0.000977;
248854;-0.011719;0.034180;0.004883;
248994;-0.009766;0.031250;0.002930;
249134;-0.010742;0.038086;0.004883;
249269;-0.006836;0.037109;0.004883;
249414;-0.010742;0.038086;0.006836;
249554;-0.011719;0.041016;-0.002930;
249693;-0.009766;0.041016;-0.013672;
249829;-0.011719;0.039062;-0.014648;
249984;-0.011719;0.036133;-0.006836;
250123;-0.009766;0.035156;-0.003906;
250264;-0.015625;0.035156;-0.006836;
250414;-0.010742;0.034180;-0.006836;
250554;-0.012695;0.035156;-0.007812;
250690;-0.009766;0.032227;0.001953;
250829;-0.011719;0.033203;-0.000977;
250959;-0.014648;0.034180;-0.003906;
251099;-0.011719;0.034180;0.000977;
251239;-0.013672;0.036133;0.000000;
251379;-0.012695;0.038086;0.004883;
251529;-0.012695;0.036133;0.009766;
251679;-0.012695;0.034180;0.010742;
251824;-0.015625;0.038086;0.015625;
251964;-0.013672;0.035156;0.021484;
252104;-0.014648;0.041016;0.008789;
252244;-0.017578;0.039062;0.018555;
252384;-0.015625;0.034180;0.021484;
252524;-0.014648;0.032227;0.015625;
252664;-0.017578;0.031250;0.019531;
252804;-0.015625;0.034180;0.015625;
252953;-0.017578;0.029297;0.048828;
253094;-0.014648;0.022461;-0.008789;
253234;-0.012695;0.023438;0.014648;
253374;-0.013672;0.031250;0.017578;
253514;-0.013672;0.029297;0.020508;
253664;-0.012695;0.027344;0.025391;
253789;-0.015625;0.030273;0.027344;
253939;-0.014648;0.029297;0.030273;
254080;-0.013672;0.028320;0.024414;
254219;-0.014648;0.033203;0.030273;
254349;-0.013672;0.029297;0.016602;
254490;-0.017578;0.027344;0.024414;
254619;-0.015625;0.027344;0.031250;
254769;-0.012695;0.025391;0.021484;
254914;-0.016602;0.022461;0.021484;
255054;-0.013672;0.025391;0.028320;
255194;-0.013672;0.024414;0.033203;
255334;-0.012695;0.021484;0.025391;
255474;-0.016602;0.020508;0.026367;
255624;-0.013672;0.021484;0.029297;
255759;-0.014648;0.023438;0.030273;
255914;-0.011719;0.020508;0.030273;
256054;-0.013672;0.021484;0.033203;
256194;-0.015625;0.021484;0.022461;
256334;-0.016602;0.020508;0.028320;
256474;-0.015625;0.018555;0.021484;
256614;-0.014648;0.019531;0.029297;
256754;-0.017578;0.021484;0.021484;
256889;-0.015625;0.020508;0.028320;
257039;-0.016602;0.019531;0.022461;
257189;-0.015625;0.018555;0.017578;
257339;-0.015625;0.020508;0.020508;
257490;-0.017578;0.018555;0.017578;
257639;-0.016602;0.019531;0.017578;
257790;-0.016602;0.021484;0.009766;
257934;-0.015625;0.019531;0.004883;
258084;-0.015625;0.020508;0.006836;
258294;-0.016602;0.018555;0.005859;
258510;-0.016602;0.021484;0.009766;
258734;-0.017578;0.020508;-0.003906;
258954;-0.017578;0.020508;-0.003906;
259174;-0.016602;0.020508;0.000000;
259394;-0.019531;0.018555;-0.006836;
259609;-0.016602;0.022461;-0.005859;
259833;-0.017578;0.023438;0.000000;
260054;-0.019531;0.019531;-0.013672;
260274;-0.020508;0.020508;-0.006836;
260494;-0.017578;0.020508;-0.004883;
260714;-0.021484;0.020508;-0.011719;
260930;-0.018555;0.019531;0.000000;
261139;-0.019531;0.020508;-0.001953;
261370;-0.019531;0.019531;0.006836;
261604;-0.021484;0.020508;0.002930;
261824;-0.021484;0.019531;0.009766;
262044;-0.024414;0.018555;0.007812;
262264;-0.028320;0.016602;-0.003906;
262484;-0.021484;0.015625;0.011719;
262704;-0.023438;0.012695;0.005859;
262924;-0.023438;0.012695;0.012695;
263144;-0.025391;0.013672;0.009766;
263364;-0.025391;0.014648;0.005859;
263584;-0.025391;0.015625;0.011719;
263804;-0.027344;0.012695;0.000977;
264024;-0.029297;0.016602;0.004883;
264239;-0.027344;0.014648;0.004883;
264454;-0.027344;0.015625;-0.001953;
264669;-0.030273;0.013672;0.001953;
264899;-0.029297;0.011719;0.007812;
265129;-0.032227;0.012695;0.000000;
265360;-0.032227;0.013672;0.011719;
265594;-0.033203;0.016602;0.026367;
265813;-0.035156;0.017578;0.026367;
266033;-0.034180;0.018555;0.026367;
266254;-0.032227;0.020508;0.027344;
266474;-0.035156;0.021484;0.030273;
266694;-0.037109;0.021484;0.023438;
266914;-0.035156;0.023438;0.029297;
267134;-0.035156;0.022461;0.022461;
267354;-0.041992;0.023438;0.000977;
267573;-0.043945;0.026367;0.005859;
267794;-0.049805;0.027344;0.047852;
268014;-0.046875;0.029297;0.143555;
268229;-0.045898;0.027344;0.302734;
268460;-0.032227;0.028320;0.502930;
268690;-0.020508;0.025391;0.678711;
268913;0.001953;0.023438;0.903320;
269133;0.016602;0.028320;1.110352;
269354;0.021484;0.026367;1.237305;
269574;0.035156;0.028320;1.343750;
269794;0.046875;0.024414;1.416016;
270014;0.054688;0.030273;1.487305;
270234;0.060547;0.032227;1.518555;
270454;0.058594;0.040039;1.543945;
270674;0.065430;0.041992;1.565430;
270894;0.060547;0.037109;1.612305;
271114;0.060547;0.031250;1.662109;
271334;0.059570;0.024414;1.675781;
271554;0.058594;0.024414;1.670898;
271774;0.055664;0.031250;1.692383;
271989;0.060547;0.045898;1.725586;
272199;0.051758;0.041992;1.703125;
272429;0.049805;0.033203;1.701172;
272639;0.053711;0.033203;1.722656;
272874;0.050781;0.025391;1.761719;
273094;0.048828;0.026367;1.759766;
273314;0.052734;0.029297;1.814453;
273534;0.054688;0.021484;1.823242;
273753;0.051758;0.027344;1.862305;
273974;0.050781;0.025391;1.884766;
274194;0.047852;0.017578;1.875000;
274414;0.052734;0.010742;1.898438;
274634;0.051758;0.011719;1.897461;
274854;0.046875;0.008789;1.880859;
275074;0.046875;0.014648;1.867188;
275294;0.041016;0.007812;1.862305;
275513;0.037109;0.014648;1.871094;
275734;0.032227;0.007812;1.855469;
275941;0.032227;0.009766;1.862305;
276149;0.027344;0.019531;1.853516;
276369;0.026367;0.028320;1.863281;
276594;0.021484;0.028320;1.860352;
276814;0.022461;0.030273;1.857422;
277034;0.025391;0.031250;1.884766;
277253;0.020508;0.031250;1.891602;
277474;0.024414;0.017578;1.905273;
277693;0.024414;0.013672;1.922852;
277914;0.023438;0.022461;1.941406;
278134;0.025391;0.017578;1.956055;
278354;0.017578;0.015625;1.958008;
278574;0.017578;0.016602;1.960938;
278794;0.010742;0.013672;1.917969;
279014;0.007812;0.020508;1.877930;
279234;0.004883;0.022461;1.866211;
279454;-0.003906;0.024414;1.828125;
279669;-0.001953;0.020508;1.797852;
279889;-0.007812;0.020508;1.784180;
280119;-0.007812;0.013672;1.786133;
280339;-0.007812;0.023438;1.799805;
280554;-0.007812;0.024414;1.820312;
280774;-0.004883;0.021484;1.841797;
280994;-0.006836;0.014648;1.852539;
281214;-0.005859;0.021484;1.849609;
281434;-0.006836;0.014648;1.857422;
281654;-0.003906;0.016602;1.861328;
281874;-0.006836;0.013672;1.875977;
282094;-0.005859;0.019531;1.878906;
282313;-0.006836;0.017578;1.881836;
282533;-0.006836;0.022461;1.884766;
282754;-0.008789;0.016602;1.884766;
282974;-0.007812;0.020508;1.865234;
283193;-0.011719;0.017578;1.838867;
283409;-0.015625;0.026367;1.777344;
283639;-0.023438;0.020508;1.717773;
283859;-0.032227;0.020508;1.629883;
284079;-0.044922;0.024414;1.512695;
284303;-0.050781;0.024414;1.434570;
284523;-0.056641;0.026367;1.362305;
284744;-0.061523;0.024414;1.308594;
284964;-0.061523;0.026367;1.265625;
285184;-0.068359;0.025391;1.249023;
285404;-0.068359;0.018555;1.224609;
285624;-0.068359;0.022461;1.208008;
285844;-0.074219;0.021484;1.169922;
286064;-0.073242;0.025391;1.148438;
286284;-0.075195;0.025391;1.114258;
286504;-0.078125;0.025391;1.081055;
286724;-0.082031;0.025391;1.028320;
286944;-0.084961;0.025391;0.984375;
287165;-0.087891;0.025391;0.952148;
287379;-0.087891;0.031250;0.924805;
287599;-0.088867;0.034180;0.901367;
287810;-0.087891;0.024414;0.882812;
288044;-0.087891;0.030273;0.897461;
288264;-0.089844;0.024414;0.915039;
288483;-0.085938;0.026367;0.954102;
288704;-0.086914;0.029297;0.987305;
288924;-0.085938;0.027344;1.019531;
289144;-0.083984;0.027344;1.053711;
289363;-0.083984;0.028320;1.082031;
289584;-0.083008;0.025391;1.101562;
289804;-0.083008;0.025391;1.125000;
290023;-0.076172;0.027344;1.179688;
290243;-0.072266;0.028320;1.228516;
290464;-0.068359;0.024414;1.274414;
290684;-0.066406;0.030273;1.330078;
290904;-0.065430;0.025391;1.351562;
291119;-0.068359;0.030273;1.357422;
291329;-0.066406;0.028320;1.358398;
291544;-0.065430;0.020508;1.333008;
291760;-0.068359;0.020508;1.304688;
291979;-0.069336;0.014648;1.252930;
292209;-0.073242;0.022461;1.214844;
292444;-0.076172;0.026367;1.186523;
292664;-0.082031;0.040039;1.149414;
292884;-0.083008;0.024414;1.125977;
293103;-0.083008;0.026367;1.125977;
293323;-0.080078;0.028320;1.126953;
293544;-0.081055;0.024414;1.117188;
293764;-0.079102;0.022461;1.124023;
293984;-0.077148;0.022461;1.125977;
294204;-0.081055;0.021484;1.128906;
294424;-0.078125;0.024414;1.128906;
294644;-0.081055;0.023438;1.131836;
294864;-0.082031;0.021484;1.136719;
295084;-0.081055;0.022461;1.145508;
295304;-0.083984;0.027344;1.144531;
295519;-0.081055;0.031250;1.160156;
295749;-0.078125;0.036133;1.170898;
295980;-0.079102;0.030273;1.198242;
296199;-0.077148;0.030273;1.222656;
296414;-0.075195;0.030273;1.249023;
296634;-0.071289;0.027344;1.263672;
296854;-0.073242;0.025391;1.285156;
297073;-0.070312;0.025391;1.288086;
297294;-0.071289;0.017578;1.280273;
297514;-0.069336;0.016602;1.281250;
297733;-0.073242;0.018555;1.252930;
297954;-0.074219;0.015625;1.228516;
298174;-0.077148;0.016602;1.196289;
298394;-0.077148;0.022461;1.189453;
298613;-0.079102;0.021484;1.178711;
298834;-0.078125;0.024414;1.180664;
299054;-0.075195;0.026367;1.188477;
299274;-0.072266;0.023438;1.193359;
299489;-0.069336;0.023438;1.188477;
299709;-0.071289;0.022461;1.195312;
299939;-0.071289;0.020508;1.184570;
300164;-0.071289;0.021484;1.195312;
300384;-0.067383;0.019531;1.197266;
300604;-0.068359;0.016602;1.194336;
300824;-0.065430;0.016602;1.193359;
301044;-0.062500;0.011719;1.202148;
301264;-0.061523;0.015625;1.212891;
301484;-0.060547;0.011719;1.211914;
301704;-0.061523;0.015625;1.230469;
301924;-0.058594;0.013672;1.236328;
302144;-0.052734;0.016602;1.250977;
302364;-0.046875;0.010742;1.265625;
302584;-0.047852;0.013672;1.261719;
302803;-0.046875;0.016602;1.264648;
303024;-0.041992;0.011719;1.261719;
303231;-0.039062;0.017578;1.251953;
303439;-0.039062;0.019531;1.239258;
303669;-0.038086;0.021484;1.212891;
303894;-0.029297;0.019531;1.196289;
304114;-0.031250;0.023438;1.162109;
304334;-0.030273;0.026367;1.142578;
304554;-0.028320;0.029297;1.134766;
304774;-0.032227;0.027344;1.105469;
304994;-0.031250;0.030273;1.109375;
305214;-0.029297;0.033203;1.095703;
305434;-0.027344;0.030273;1.068359;
305654;-0.025391;0.028320;1.044922;
305874;-0.021484;0.027344;1.050781;
306094;-0.021484;0.025391;1.052734;
306313;-0.017578;0.024414;1.065430;
306533;-0.015625;0.027344;1.065430;
306754;-0.017578;0.024414;1.075195;
306959;-0.012695;0.025391;1.086914;
307179;-0.009766;0.026367;1.096680;
307410;-0.012695;0.024414;1.097656;
307634;-0.006836;0.025391;1.102539;
307854;-0.003906;0.032227;1.114258;
308074;-0.007812;0.031250;1.090820;
308294;-0.002930;0.029297;1.083984;
308514;-0.001953;0.031250;1.064453;
308734;-0.003906;0.029297;1.051758;
308953;0.000000;0.030273;1.050781;
309174;-0.001953;0.027344;1.041016;
309394;0.000000;0.032227;1.037109;
309614;0.000000;0.026367;1.031250;
309834;0.003906;0.023438;1.040039;
310053;0.002930;0.027344;1.037109;
310273;0.001953;0.029297;1.050781;
310494;0.005859;0.030273;1.049805;
310699;0.006836;0.027344;1.049805;
310909;0.004883;0.025391;1.029297;
311139;0.000000;0.026367;1.003906;
311374;-0.002930;0.028320;0.978516;
311594;-0.006836;0.026367;0.956055;
311814;-0.008789;0.029297;0.937500;
312033;-0.007812;0.029297;0.899414;
312254;-0.008789;0.028320;0.883789;
312474;-0.010742;0.026367;0.872070;
312694;-0.008789;0.028320;0.866211;
312914;-0.009766;0.029297;0.869141;
313134;-0.008789;0.030273;0.884766;
313353;-0.007812;0.026367;0.916992;
313574;-0.005859;0.026367;0.942383;
313794;-0.005859;0.022461;0.972656;
314014;0.000977;0.028320;1.013672;
314234;0.000000;0.023438;1.041992;
314449;0.002930;0.018555;1.059570;
314670;0.000977;0.030273;1.084961;
314879;0.000977;0.031250;1.089844;
315089;-0.000977;0.026367;1.050781;
315323;-0.000977;0.033203;1.024414;
315544;0.000000;0.028320;0.990234;
315764;-0.002930;0.028320;0.943359;
315984;-0.006836;0.027344;0.917969;
316204;-0.011719;0.032227;0.882812;
316424;-0.006836;0.028320;0.878906;
316644;-0.006836;0.023438;0.888672;
316864;-0.005859;0.018555;0.897461;
317083;-0.003906;0.019531;0.931641;
317304;-0.002930;0.018555;0.979492;
317524;-0.005859;0.018555;1.023438;
317744;-0.002930;0.028320;1.068359;
317964;0.000000;0.030273;1.114258;
318179;0.003906;0.034180;1.136719;
318649;0.001953;0.031250;1.162109;
318899;0.002930;0.028320;1.157227;
319129;0.007812;0.021484;1.167969;
319354;0.003906;0.022461;1.182617;
319574;0.007812;0.024414;1.181641;
319794;0.003906;0.024414;1.175781;
320013;0.001953;0.023438;1.166016;
320234;0.003906;0.028320;1.151367;
320454;0.000977;0.027344;1.139648;
320674;0.004883;0.031250;1.143555;
320894;0.001953;0.026367;1.122070;
321114;0.000000;0.030273;1.116211;
321334;-0.000977;0.025391;1.093750;
321553;-0.003906;0.027344;1.074219;
321773;0.000000;0.022461;1.067383;
321993;0.001953;0.022461;1.072266;
322214;0.000000;0.022461;1.069336;
322429;-0.000977;0.024414;1.063477;
322650;-0.001953;0.025391;1.047852;
322880;-0.004883;0.026367;1.043945;
323094;-0.006836;0.025391;1.032227;
323314;-0.001953;0.020508;1.026367;
323534;0.001953;0.024414;1.035156;
323753;0.000000;0.026367;1.042969;
323974;-0.005859;0.029297;1.041016;
324194;-0.006836;0.031250;1.024414;
324414;-0.006836;0.031250;1.018555;
324634;0.000000;0.024414;1.028320;
324854;0.000000;0.027344;1.025391;
325074;0.000977;0.025391;1.034180;
325294;-0.001953;0.028320;1.021484;
325514;-0.006836;0.021484;1.020508;
325734;-0.006836;0.024414;1.021484;
325954;-0.001953;0.027344;1.007812;
326169;-0.000977;0.027344;0.998047;
326389;0.000000;0.031250;0.993164;
326620;-0.006836;0.032227;0.958008;
326844;-0.010742;0.030273;0.912109;
327063;-0.010742;0.029297;0.852539;
327284;-0.011719;0.032227;0.834961;
327504;-0.010742;0.030273;0.831055;
327724;-0.009766;0.031250;0.849609;
327944;-0.009766;0.029297;0.894531;
328164;-0.009766;0.026367;0.946289;
328384;-0.004883;0.026367;1.027344;
328604;-0.001953;0.020508;1.084961;
328824;0.002930;0.023438;1.141602;
329044;0.003906;0.023438;1.165039;
329264;0.000000;0.026367;1.125977;
329484;-0.001953;0.025391;1.094727;
329699;-0.003906;0.027344;1.087891;
329929;-0.000977;0.017578;1.080078;
330159;0.000000;0.022461;1.101562;
330394;0.001953;0.020508;1.115234;
330624;-0.000977;0.029297;1.107422;
330844;0.000977;0.031250;1.114258;
331063;0.000977;0.030273;1.121094;
331284;0.001953;0.031250;1.138672;
331504;0.003906;0.033203;1.132812;
331724;0.006836;0.029297;1.139648;
331944;0.005859;0.028320;1.124023;
332164;0.000977;0.028320;1.112305;
332384;-0.000977;0.025391;1.116211;
332604;-0.001953;0.025391;1.101562;
332824;0.003906;0.025391;1.105469;
333044;0.003906;0.021484;1.106445;
333264;0.000977;0.028320;1.103516;
333479;0.000000;0.027344;1.085938;
333709;-0.001953;0.029297;1.075195;
333939;0.000000;0.024414;1.062500;
334173;-0.000977;0.023438;1.052734;
334393;-0.000977;0.023438;1.045898;
334614;-0.004883;0.026367;1.018555;
334834;-0.008789;0.026367;1.022461;
335054;-0.005859;0.023438;1.008789;
335274;-0.001953;0.017578;1.014648;
335494;0.000977;0.020508;1.033203;
335714;-0.003906;0.023438;1.020508;
335934;-0.003906;0.026367;1.018555;
336153;-0.005859;0.025391;0.996094;
336374;-0.006836;0.028320;0.988281;
336594;-0.004883;0.026367;0.987305;
336814;-0.002930;0.023438;0.979492;
337029;-0.002930;0.030273;0.982422;
337249;-0.005859;0.029297;0.996094;
337479;-0.008789;0.026367;0.985352;
337714;-0.005859;0.026367;0.972656;
337934;-0.004883;0.022461;0.984375;
338154;-0.000977;0.022461;1.007812;
338373;-0.001953;0.027344;1.016602;
338593;-0.003906;0.024414;1.025391;
338814;-0.003906;0.028320;1.030273;
339034;-0.004883;0.025391;1.047852;
339254;-0.001953;0.027344;1.068359;
339474;0.001953;0.026367;1.082031;
339694;0.000000;0.024414;1.099609;
339913;0.002930;0.025391;1.106445;
340133;0.001953;0.028320;1.072266;
340354;-0.002930;0.029297;1.019531;
340574;-0.009766;0.029297;0.938477;
340789;-0.007812;0.028320;0.904297;
341010;-0.006836;0.022461;0.866211;
341230;-0.007812;0.024414;0.853516;
341444;-0.005859;0.026367;0.860352;
341664;-0.010742;0.029297;0.884766;
341884;-0.009766;0.028320;0.894531;
342104;-0.009766;0.028320;0.922852;
342324;-0.004883;0.027344;0.953125;
342544;-0.002930;0.027344;0.960938;
342764;-0.005859;0.028320;0.988281;
342984;-0.003906;0.029297;0.991211;
343203;-0.007812;0.029297;0.993164;
343423;-0.006836;0.024414;0.983398;
343643;-0.004883;0.027344;0.986328;
343863;-0.001953;0.024414;0.996094;
344083;-0.001953;0.021484;0.997070;
344304;-0.000977;0.026367;1.009766;
344509;-0.008789;0.028320;0.997070;
344729;-0.009766;0.032227;0.995117;
344959;-0.005859;0.026367;0.994141;
345194;-0.004883;0.027344;1.007812;
345414;-0.003906;0.026367;1.000000;
345634;-0.006836;0.026367;1.011719;
345853;-0.007812;0.028320;1.003906;
346074;-0.005859;0.025391;1.001953;
346294;-0.005859;0.028320;1.007812;
346513;-0.003906;0.021484;1.017578;
346734;-0.000977;0.024414;1.033203;
346954;-0.003906;0.024414;1.034180;
347174;-0.006836;0.032227;1.030273;
347394;-0.006836;0.026367;1.020508;
347614;-0.003906;0.023438;1.035156;
347834;-0.002930;0.029297;1.035156;
348054;-0.002930;0.027344;1.034180;
348269;-0.001953;0.026367;1.059570;
348499;-0.003906;0.029297;1.060547;
348731;-0.004883;0.023438;1.075195;
348954;0.000000;0.034180;1.122070;
349174;0.004883;0.029297;1.171875;
349394;0.007812;0.032227;1.190430;
349614;0.003906;0.032227;1.215820;
349834;0.003906;0.036133;1.232422;
350054;0.002930;0.029297;1.230469;
350274;0.006836;0.026367;1.246094;
350494;0.006836;0.019531;1.234375;
350714;0.011719;0.020508;1.247070;
350934;0.009766;0.017578;1.230469;
351154;0.002930;0.019531;1.205078;
351374;0.005859;0.021484;1.208008;
351594;0.005859;0.027344;1.203125;
351814;0.007812;0.022461;1.194336;
352034;0.003906;0.021484;1.192383;
352249;0.008789;0.022461;1.189453;
352469;0.001953;0.025391;1.178711;
352699;0.002930;0.021484;1.147461;
352924;0.001953;0.027344;1.137695;
353144;0.004883;0.021484;1.109375;
353364;0.004883;0.030273;1.108398;
353583;-0.003906;0.030273;1.059570;
353804;-0.002930;0.028320;1.023438;
354024;-0.002930;0.024414;0.995117;
354244;-0.003906;0.021484;0.947266;
354464;-0.004883;0.029297;0.916992;
354684;-0.004883;0.024414;0.902344;
354903;-0.006836;0.031250;0.890625;
355124;-0.007812;0.023438;0.872070;
355344;-0.009766;0.027344;0.838867;
355564;-0.011719;0.021484;0.796875;
355779;-0.010742;0.027344;0.776367;
356010;-0.008789;0.023438;0.769531;
356229;-0.008789;0.025391;0.740234;
356454;-0.015625;0.023438;0.720703;
356674;-0.010742;0.029297;0.737305;
356893;-0.013672;0.023438;0.747070;
357114;-0.012695;0.026367;0.803711;
357334;-0.010742;0.024414;0.857422;
357553;-0.005859;0.027344;0.915039;
357774;-0.006836;0.027344;0.967773;
357994;-0.004883;0.030273;1.014648;
358214;-0.003906;0.026367;1.046875;
358434;0.000000;0.026367;1.085938;
358654;0.002930;0.024414;1.106445;
358874;0.005859;0.017578;1.132812;
359094;0.007812;0.024414;1.152344;
359313;0.004883;0.022461;1.165039;
359534;0.003906;0.024414;1.156250;
359749;0.003906;0.018555;1.160156;
359969;0.002930;0.024414;1.161133;
360190;0.008789;0.023438;1.151367;
360414;0.002930;0.025391;1.129883;
360634;0.002930;0.031250;1.124023;
360854;-0.001953;0.022461;1.086914;
361074;0.000000;0.030273;1.055664;
361294;-0.000977;0.024414;1.039062;
361514;-0.001953;0.019531;1.004883;
361734;-0.004883;0.022461;0.983398;
361954;-0.006836;0.024414;0.982422;
362174;-0.006836;0.023438;0.988281;
362394;-0.010742;0.026367;0.975586;
362614;-0.000977;0.020508;0.986328;
362834;-0.003906;0.020508;1.004883;
363054;-0.000977;0.017578;1.041992;
363274;-0.000977;0.023438;1.046875;
363489;-0.004883;0.025391;1.048828;
363719;-0.006836;0.024414;1.058594;
363950;-0.002930;0.023438;1.041992;
364164;0.001953;0.024414;1.063477;
364384;0.002930;0.022461;1.061523;
364604;-0.001953;0.029297;1.061523;
364824;-0.004883;0.025391;1.053711;
365044;-0.001953;0.023438;1.032227;
365264;-0.000977;0.022461;1.036133;
365484;-0.000977;0.025391;1.041992;
365704;-0.002930;0.023438;1.036133;
365924;-0.002930;0.023438;1.035156;
366144;-0.006836;0.028320;1.030273;
366364;-0.003906;0.030273;1.022461;
366584;-0.002930;0.027344;1.033203;
366804;-0.001953;0.024414;1.022461;
367019;-0.001953;0.023438;1.039062;
367249;-0.002930;0.023438;1.034180;
367469;-0.004883;0.030273;1.024414;
367699;-0.002930;0.024414;1.014648;
367914;-0.001953;0.025391;1.007812;
368134;-0.000977;0.028320;1.025391;
368354;-0.000977;0.023438;1.017578;
368574;-0.001953;0.026367;1.016602;
368794;-0.002930;0.024414;1.015625;
369014;-0.000977;0.022461;1.018555;
369234;-0.001953;0.019531;1.026367;
369454;-0.000977;0.024414;1.028320;
369673;0.000000;0.023438;1.033203;
369894;-0.000977;0.024414;1.033203;
370113;-0.003906;0.026367;1.026367;
370334;-0.005859;0.024414;1.044922;
370554;-0.002930;0.021484;1.053711;
370775;0.000000;0.024414;1.057617;
371000;-0.000977;0.026367;1.056641;
371230;0.000000;0.031250;1.063477;
371454;-0.000977;0.027344;1.055664;
371674;-0.004883;0.020508;1.053711;
371894;0.000000;0.027344;1.047852;
372114;0.001953;0.024414;1.045898;
372334;0.001953;0.026367;1.049805;
372554;0.001953;0.021484;1.046875;
372774;-0.000977;0.018555;1.046875;
372993;-0.004883;0.021484;1.049805;
373214;-0.003906;0.023438;1.047852;
373433;0.000977;0.017578;1.052734;
373654;0.002930;0.021484;1.052734;
373873;0.000977;0.018555;1.059570;
374094;0.000000;0.018555;1.039062;
374314;-0.004883;0.019531;1.032227;
374529;-0.003906;0.025391;0.995117;
374759;-0.004883;0.028320;0.957031;
374969;-0.003906;0.030273;0.917969;
375194;-0.006836;0.026367;0.904297;
375414;-0.009766;0.026367;0.903320;
375633;-0.012695;0.020508;0.918945;
375854;-0.005859;0.019531;0.944336;
376073;-0.006836;0.019531;0.972656;
376294;0.000977;0.018555;1.022461;
376513;-0.000977;0.015625;1.058594;
376733;0.001953;0.022461;1.078125;
376954;0.000000;0.025391;1.078125;
377174;-0.001953;0.025391;1.063477;
377393;-0.000977;0.019531;1.047852;
377614;0.000000;0.023438;1.031250;
377834;-0.002930;0.022461;1.024414;
378054;-0.004883;0.026367;1.002930;
378269;-0.006836;0.022461;0.986328;
378489;-0.009766;0.027344;0.973633;
378709;-0.001953;0.021484;0.993164;
378944;-0.005859;0.028320;0.998047;
379164;-0.002930;0.026367;1.006836;
379384;-0.011719;0.025391;1.000977;
379604;-0.005859;0.023438;1.009766;
379824;-0.000977;0.024414;1.025391;
380044;0.000977;0.020508;1.037109;
380264;0.002930;0.022461;1.081055;
380484;0.001953;0.023438;1.106445;
380704;0.000000;0.025391;1.125000;
380924;0.002930;0.024414;1.140625;
381144;0.007812;0.022461;1.163086;
381364;0.011719;0.024414;1.169922;
381584;0.013672;0.024414;1.167969;
381799;0.017578;0.021484;1.161133;
382019;0.017578;0.020508;1.125000;
382249;0.026367;0.020508;1.095703;
382479;0.033203;0.022461;1.081055;
382714;0.036133;0.016602;1.079102;
382933;0.041016;0.016602;1.083984;
383154;0.046875;0.018555;1.083984;
383374;0.050781;0.020508;1.088867;
383594;0.060547;0.020508;1.109375;
383814;0.063477;0.021484;1.125977;
384034;0.072266;0.021484;1.124023;
384254;0.075195;0.020508;1.121094;
384474;0.079102;0.024414;1.123047;
384694;0.083984;0.018555;1.099609;
384914;0.088867;0.023438;1.077148;
385134;0.090820;0.018555;1.021484;
385354;0.095703;0.020508;0.987305;
385574;0.096680;0.025391;0.982422;
385789;0.091797;0.027344;0.978516;
386019;0.093750;0.018555;1.002930;
386240;0.097656;0.022461;1.026367;
386464;0.098633;0.023438;1.046875;
386684;0.099609;0.024414;1.040039;
386903;0.103516;0.031250;1.038086;
387124;0.100586;0.024414;0.979492;
387344;0.100586;0.019531;0.946289;
387564;0.093750;0.021484;0.904297;
387784;0.094727;0.027344;0.882812;
388004;0.090820;0.016602;0.835938;
388224;0.092773;0.016602;0.841797;
388443;0.089844;0.015625;0.813477;
388664;0.089844;0.015625;0.817383;
388884;0.088867;0.022461;0.837891;
389104;0.088867;0.023438;0.856445;
389324;0.088867;0.028320;0.893555;
389529;0.086914;0.025391;0.894531;
389729;0.089844;0.030273;0.907227;
389949;0.092773;0.032227;0.944336;
390184;0.089844;0.024414;0.942383;
390404;0.091797;0.026367;0.989258;
390624;0.089844;0.029297;1.005859;
390844;0.092773;0.024414;1.004883;
391064;0.094727;0.022461;1.029297;
391284;0.091797;0.025391;1.001953;
391504;0.093750;0.023438;1.049805;
391724;0.092773;0.023438;1.062500;
391944;0.092773;0.015625;1.060547;
392164;0.097656;0.018555;1.076172;
392384;0.092773;0.017578;1.067383;
392604;0.091797;0.019531;1.078125;
392824;0.095703;0.022461;1.125977;
393044;0.094727;0.023438;1.138672;
393260;0.094727;0.024414;1.187500;
393491;0.097656;0.026367;1.193359;
393719;0.099609;0.019531;1.194336;
393954;0.098633;0.017578;1.220703;
394174;0.096680;0.019531;1.189453;
394394;0.096680;0.019531;1.179688;
394614;0.094727;0.022461;1.189453;
394834;0.091797;0.022461;1.153320;
395053;0.095703;0.026367;1.147461;
395273;0.091797;0.026367;1.138672;
395494;0.089844;0.019531;1.116211;
395714;0.091797;0.024414;1.119141;
395934;0.091797;0.030273;1.150391;
396154;0.086914;0.026367;1.147461;
396374;0.092773;0.021484;1.135742;
396594;0.091797;0.026367;1.146484;
396814;0.089844;0.015625;1.131836;
397034;0.090820;0.026367;1.096680;
397240;0.091797;0.023438;1.057617;
397459;0.085938;0.024414;0.994141;
397679;0.082031;0.025391;0.909180;
397904;0.081055;0.026367;0.843750;
398124;0.080078;0.026367;0.844727;
398344;0.077148;0.019531;0.807617;
398564;0.079102;0.017578;0.832031;
398784;0.076172;0.020508;0.893555;
399004;0.079102;0.018555;0.918945;
399223;0.076172;0.019531;0.927734;
399443;0.082031;0.029297;0.970703;
399663;0.083984;0.032227;1.018555;
399884;0.081055;0.026367;1.021484;
400103;0.084961;0.029297;0.985352;
400324;0.085938;0.026367;1.032227;
400544;0.082031;0.022461;1.121094;
400759;0.083008;0.020508;1.202148;
400971;0.095703;0.022461;1.378906;
401179;0.101562;0.029297;1.527344;
401399;0.111328;0.019531;1.653320;
401634;0.123047;0.018555;1.760742;
401854;0.126953;0.015625;1.849609;
402074;0.130859;0.016602;1.905273;
402294;0.129883;0.022461;1.905273;
402514;0.130859;0.017578;1.897461;
402734;0.128906;0.017578;1.876953;
402954;0.127930;0.027344;1.885742;
403174;0.128906;0.034180;1.855469;
403394;0.125977;0.017578;1.856445;
403614;0.125000;0.012695;1.853516;
403834;0.125000;0.018555;1.852539;
404054;0.125000;0.024414;1.846680;
404274;0.124023;0.024414;1.858398;
404494;0.123047;0.018555;1.850586;
404709;0.125977;0.003906;1.844727;
404919;0.128906;0.001953;1.847656;
405131;0.125000;0.007812;1.847656;
405351;0.126953;0.005859;1.856445;
405574;0.124023;0.005859;1.834961;
405794;0.126953;0.014648;1.821289;
406014;0.124023;0.012695;1.817383;
406234;0.124023;0.024414;1.817383;
406454;0.126953;0.026367;1.824219;
406673;0.129883;0.019531;1.827148;
406894;0.130859;0.021484;1.835938;
407114;0.130859;0.019531;1.855469;
407334;0.137695;0.017578;1.900391;
407554;0.131836;0.013672;1.908203;
407774;0.136719;0.005859;1.910156;
407994;0.142578;0.005859;1.916992;
408214;0.142578;0.010742;1.913086;
408434;0.143555;0.010742;1.895508;
408649;0.142578;0.015625;1.898438;
408870;0.140625;0.010742;1.896484;
409079;0.141602;0.014648;1.875000;
409299;0.141602;0.013672;1.870117;
409524;0.143555;0.014648;1.855469;
409744;0.139648;0.011719;1.833984;
409964;0.143555;0.010742;1.837891;
410184;0.145508;0.004883;1.817383;
410403;0.148438;0.005859;1.813477;
410623;0.148438;0.011719;1.850586;
410844;0.150391;0.016602;1.860352;
411063;0.157227;0.010742;1.892578;
411283;0.155273;0.014648;1.892578;
411504;0.156250;0.009766;1.878906;
411724;0.156250;0.003906;1.876953;
411944;0.158203;0.013672;1.892578;
412164;0.164062;0.012695;1.898438;
412383;0.164062;0.016602;1.890625;
412611;0.161133;0.009766;1.867188;
412829;0.163086;0.007812;1.871094;
413049;0.166016;0.016602;1.851562;
413264;0.170898;0.005859;1.874023;
413479;0.170898;0.013672;1.883789;
413689;0.173828;0.010742;1.873047;
413914;0.173828;0.021484;1.873047;
414133;0.183594;0.029297;1.911133;
414354;0.174805;0.029297;1.904297;
414574;0.181641;0.028320;1.907227;
414794;0.180664;0.019531;1.887695;
415014;0.182617;0.019531;1.874023;
415234;0.178711;0.005859;1.837891;
415454;0.181641;0.008789;1.857422;
415674;0.185547;0.003906;1.835938;
415893;0.184570;0.005859;1.807617;
416113;0.187500;0.010742;1.818359;
416334;0.188477;0.006836;1.802734;
416553;0.193359;0.012695;1.810547;
