Time;acc_x;acc_y;acc_z;

1632;-0.051758;0.003906;1.150391;
1773;-0.042969;0.027344;1.178711;
1913;-0.055664;0.017578;1.178711;
2053;-0.043945;0.028320;1.159180;
2193;-0.042969;0.026367;1.155273;
2333;-0.041016;0.030273;1.179688;
2474;-0.036133;0.025391;1.173828;
2614;-0.027344;0.030273;1.169922;
2753;-0.024414;0.025391;1.187500;
2893;-0.019531;0.025391;1.182617;
3033;-0.006836;0.025391;1.195312;
3174;-0.002930;0.029297;1.188477;
3313;0.001953;0.028320;1.183594;
3454;0.003906;0.026367;1.170898;
3593;0.000977;0.028320;1.150391;
3734;0.005859;0.022461;1.128906;
3873;0.005859;0.021484;1.125977;
4009;0.000000;0.030273;1.113281;
4159;0.002930;0.028320;1.087891;
4310;-0.003906;0.026367;1.068359;
4459;-0.002930;0.027344;1.058594;
4614;-0.004883;0.029297;1.033203;
4754;-0.001953;0.022461;1.016602;
4894;-0.005859;0.027344;1.020508;
5034;-0.007812;0.029297;1.018555;
5174;-0.003906;0.024414;1.041992;
5314;-0.001953;0.020508;1.042969;
5454;-0.000977;0.023438;1.050781;
5594;-0.003906;0.021484;1.072266;
5744;-0.000977;0.020508;1.077148;
5884;-0.004883;0.025391;1.080078;
6024;-0.002930;0.025391;1.101562;
6173;0.000977;0.022461;1.111328;
6313;0.004883;0.030273;1.146484;
6454;0.002930;0.028320;1.172852;
6599;0.001953;0.024414;1.187500;
6749;0.002930;0.025391;1.210938;
6910;0.005859;0.028320;1.236328;
7064;0.008789;0.021484;1.237305;
7203;0.005859;0.021484;1.244141;
7344;0.007812;0.022461;1.252930;
7484;0.005859;0.022461;1.254883;
7624;0.005859;0.020508;1.253906;
7764;0.008789;0.021484;1.247070;
7904;0.009766;0.020508;1.241211;
8044;0.007812;0.028320;1.234375;
8184;0.006836;0.026367;1.221680;
8324;0.002930;0.025391;1.211914;
8464;0.004883;0.027344;1.185547;
8603;-0.001953;0.024414;1.158203;
8744;0.002930;0.027344;1.124023;
8883;0.001953;0.020508;1.101562;
9024;-0.001953;0.025391;1.086914;
9159;-0.003906;0.020508;1.068359;
9311;-0.001953;0.022461;1.055664;
9459;-0.003906;0.024414;1.043945;
9609;-0.003906;0.020508;1.026367;
9764;-0.003906;0.021484;1.005859;
9914;-0.001953;0.028320;1.007812;
10049;-0.005859;0.019531;0.990234;
10204;-0.005859;0.024414;0.974609;
10344;-0.006836;0.025391;0.958984;
10483;-0.008789;0.021484;0.946289;
10624;-0.010742;0.023438;0.948242;
10764;-0.011719;0.021484;0.933594;
10904;-0.010742;0.025391;0.923828;
11053;-0.010742;0.020508;0.933594;
11194;-0.007812;0.026367;0.941406;
11334;-0.004883;0.024414;0.942383;
11473;-0.008789;0.021484;0.954102;
11613;-0.009766;0.025391;0.959961;
11751;-0.004883;0.024414;0.980469;
11899;-0.008789;0.021484;0.993164;
12039;-0.004883;0.021484;1.010742;
12179;-0.004883;0.023438;1.022461;
12329;-0.005859;0.020508;1.036133;
12469;-0.002930;0.021484;1.050781;
12623;0.000000;0.021484;1.073242;
12763;-0.000977;0.023438;1.062500;
12899;-0.001953;0.024414;1.064453;
13054;-0.004883;0.024414;1.078125;
13204;-0.003906;0.020508;1.063477;
13344;-0.005859;0.024414;1.068359;
13489;-0.003906;0.027344;1.063477;
13634;-0.003906;0.024414;1.075195;
13773;-0.003906;0.024414;1.071289;
13914;-0.002930;0.022461;1.080078;
14053;-0.000977;0.023438;1.066406;
14194;-0.001953;0.025391;1.066406;
14333;0.000000;0.019531;1.052734;
14474;-0.006836;0.024414;1.059570;
14610;-0.007812;0.023438;1.071289;
14760;-0.002930;0.024414;1.072266;
14910;-0.001953;0.027344;1.070312;
15059;-0.004883;0.016602;1.067383;
15199;-0.002930;0.023438;1.075195;
15341;-0.002930;0.022461;1.073242;
15484;-0.004883;0.023438;1.080078;
15629;-0.002930;0.022461;1.076172;
15784;-0.001953;0.014648;1.092773;
15934;0.000977;0.020508;1.098633;
16074;-0.002930;0.019531;1.108398;
16219;-0.000977;0.030273;1.126953;
16374;0.000977;0.028320;1.125977;
16514;-0.000977;0.028320;1.135742;
16653;0.000000;0.024414;1.130859;
16789;0.002930;0.024414;1.137695;
16944;-0.003906;0.022461;1.115234;
17084;-0.001953;0.030273;1.107422;
17234;0.000000;0.027344;1.082031;
17374;-0.003906;0.022461;1.043945;
17514;-0.001953;0.024414;1.039062;
17649;-0.007812;0.028320;1.009766;
17799;-0.004883;0.028320;0.999023;
17959;-0.009766;0.027344;0.990234;
18089;-0.009766;0.028320;0.984375;
18239;-0.007812;0.029297;0.984375;
18390;-0.005859;0.029297;0.979492;
18539;-0.009766;0.033203;0.987305;
18700;-0.006836;0.027344;0.981445;
18844;-0.005859;0.025391;0.974609;
18983;-0.008789;0.026367;0.981445;
19123;-0.008789;0.019531;0.973633;
19259;-0.008789;0.018555;0.984375;
19400;-0.009766;0.024414;0.999023;
19544;-0.008789;0.025391;0.993164;
19694;-0.009766;0.021484;1.000000;
19833;-0.005859;0.022461;1.000000;
19970;-0.006836;0.021484;1.002930;
20124;-0.005859;0.014648;0.997070;
20263;-0.005859;0.019531;1.008789;
20403;-0.005859;0.019531;0.992188;
20544;-0.006836;0.020508;0.996094;
20689;-0.006836;0.022461;1.000977;
20840;-0.009766;0.024414;0.999023;
20979;-0.010742;0.023438;0.996094;
21139;-0.007812;0.027344;1.003906;
21279;-0.005859;0.028320;1.006836;
21419;-0.006836;0.026367;1.005859;
21574;-0.007812;0.029297;1.001953;
21714;-0.010742;0.024414;1.008789;
21853;-0.008789;0.028320;1.012695;
21994;-0.006836;0.022461;0.986328;
22129;-0.009766;0.023438;0.989258;
22274;-0.008789;0.025391;1.008789;
22414;-0.007812;0.023438;1.017578;
22563;-0.002930;0.027344;1.050781;
22699;-0.006836;0.024414;1.058594;
22844;-0.003906;0.027344;1.082031;
22984;-0.001953;0.025391;1.085938;
23123;-0.004883;0.027344;1.093750;
23259;-0.003906;0.025391;1.097656;
23414;-0.005859;0.029297;1.109375;
23550;-0.006836;0.025391;1.111328;
23699;-0.004883;0.024414;1.113281;
23850;-0.008789;0.022461;1.106445;
24009;-0.009766;0.029297;1.104492;
24159;-0.006836;0.027344;1.093750;
24309;-0.008789;0.029297;1.091797;
24464;-0.011719;0.024414;1.068359;
24603;-0.008789;0.028320;1.071289;
24739;-0.010742;0.025391;1.070312;
24894;-0.007812;0.027344;1.047852;
25044;-0.008789;0.024414;1.049805;
25184;-0.009766;0.025391;1.041016;
25324;-0.009766;0.025391;1.021484;
25469;-0.008789;0.021484;1.012695;
25624;-0.012695;0.022461;1.014648;
25764;-0.010742;0.023438;1.011719;
25904;-0.011719;0.022461;1.008789;
26043;-0.012695;0.024414;1.027344;
26180;-0.012695;0.027344;1.022461;
26330;-0.010742;0.021484;1.022461;
26484;-0.006836;0.028320;1.034180;
26609;-0.010742;0.024414;1.029297;
26740;-0.006836;0.027344;1.024414;
26889;-0.009766;0.022461;1.029297;
27039;-0.011719;0.024414;1.025391;
27189;-0.011719;0.022461;1.030273;
27339;-0.009766;0.025391;1.037109;
27489;-0.011719;0.027344;1.036133;
27654;-0.010742;0.025391;1.036133;
27794;-0.013672;0.021484;1.041016;
27934;-0.010742;0.029297;1.052734;
28074;-0.005859;0.023438;1.056641;
28203;-0.005859;0.024414;1.052734;
28329;-0.007812;0.023438;1.049805;
28474;-0.005859;0.024414;1.049805;
28614;-0.008789;0.022461;1.043945;
28754;-0.009766;0.030273;1.057617;
28891;-0.008789;0.033203;1.064453;
29044;-0.011719;0.030273;1.046875;
29184;-0.006836;0.029297;1.065430;
29324;-0.005859;0.036133;1.075195;
29459;-0.008789;0.037109;1.057617;
29610;-0.007812;0.037109;1.060547;
29759;-0.008789;0.033203;1.048828;
29910;-0.007812;0.036133;1.048828;
30059;-0.004883;0.033203;1.044922;
30209;-0.009766;0.031250;1.037109;
30364;-0.009766;0.027344;1.044922;
30509;-0.009766;0.026367;1.039062;
30664;-0.009766;0.022461;1.034180;
30803;-0.010742;0.024414;1.029297;
30944;-0.007812;0.022461;1.023438;
31083;-0.005859;0.017578;1.029297;
31229;-0.010742;0.020508;1.026367;
31374;-0.009766;0.018555;1.016602;
31514;-0.005859;0.024414;1.024414;
31654;-0.006836;0.024414;1.020508;
31789;-0.010742;0.026367;1.024414;
31944;-0.009766;0.027344;1.026367;
32084;-0.009766;0.027344;1.032227;
32224;-0.009766;0.028320;1.031250;
32369;-0.009766;0.026367;1.032227;
32519;-0.011719;0.031250;1.036133;
32680;-0.008789;0.027344;1.036133;
32829;-0.008789;0.032227;1.033203;
32969;-0.007812;0.034180;1.036133;
33124;-0.007812;0.032227;1.041992;
33261;-0.007812;0.036133;1.050781;
33409;-0.008789;0.030273;1.040039;
33554;-0.008789;0.036133;1.030273;
33694;-0.009766;0.033203;1.031250;
33833;-0.008789;0.040039;1.045898;
33969;-0.005859;0.029297;1.044922;
34099;-0.009766;0.034180;1.048828;
34254;-0.006836;0.030273;1.043945;
34394;-0.003906;0.020508;1.040039;
34533;-0.011719;0.025391;1.051758;
34669;-0.004883;0.019531;1.041016;
34820;-0.005859;0.018555;1.037109;
34973;-0.009766;0.021484;1.037109;
35115;-0.005859;0.026367;1.064453;
35271;-0.006836;0.023438;1.060547;
35419;-0.007812;0.023438;1.048828;
35570;-0.000977;0.028320;1.056641;
35719;-0.007812;0.019531;1.041016;
35869;-0.008789;0.027344;1.046875;
36019;-0.010742;0.024414;1.043945;
36169;-0.004883;0.029297;1.058594;
36323;-0.004883;0.024414;1.043945;
36464;-0.012695;0.035156;1.032227;
36600;-0.008789;0.030273;1.034180;
36754;-0.007812;0.035156;1.035156;
36894;-0.014648;0.026367;1.044922;
37033;-0.003906;0.031250;1.047852;
37174;-0.008789;0.031250;1.053711;
37314;-0.009766;0.036133;1.055664;
37464;-0.004883;0.029297;1.072266;
37604;-0.008789;0.029297;1.061523;
37744;-0.007812;0.027344;1.056641;
37884;-0.004883;0.028320;1.037109;
38023;-0.006836;0.025391;1.041992;
38164;-0.008789;0.025391;1.023438;
38300;-0.008789;0.023438;1.045898;
38434;-0.007812;0.023438;1.032227;
38569;-0.007812;0.020508;1.030273;
38719;-0.007812;0.023438;1.021484;
38869;-0.006836;0.021484;1.012695;
39019;-0.010742;0.020508;0.988281;
39163;-0.007812;0.026367;0.992188;
39304;-0.009766;0.025391;0.983398;
39454;-0.010742;0.025391;0.982422;
39594;-0.010742;0.025391;0.971680;
39734;-0.009766;0.026367;0.984375;
39884;-0.009766;0.029297;0.982422;
40023;-0.013672;0.029297;0.973633;
40163;-0.012695;0.030273;0.978516;
40304;-0.012695;0.025391;0.986328;
40444;-0.009766;0.032227;0.971680;
40583;-0.008789;0.029297;0.982422;
40724;-0.010742;0.027344;0.989258;
40863;-0.007812;0.019531;0.990234;
41004;-0.010742;0.030273;0.996094;
41139;-0.013672;0.031250;0.999023;
41300;-0.007812;0.032227;1.009766;
41449;-0.011719;0.028320;1.004883;
41604;-0.009766;0.031250;0.999023;
41754;-0.009766;0.026367;1.003906;
41894;-0.009766;0.032227;1.016602;
42033;-0.009766;0.025391;1.017578;
42174;-0.006836;0.025391;1.017578;
42313;-0.009766;0.027344;1.021484;
42453;-0.009766;0.025391;1.027344;
42594;-0.008789;0.027344;1.028320;
42734;-0.009766;0.032227;1.024414;
42874;-0.012695;0.027344;1.027344;
43014;-0.007812;0.020508;1.039062;
43153;-0.007812;0.027344;1.061523;
43294;-0.008789;0.023438;1.055664;
43434;-0.006836;0.024414;1.044922;
43573;-0.005859;0.028320;1.059570;
43709;-0.007812;0.022461;1.071289;
43860;-0.004883;0.024414;1.078125;
44009;-0.003906;0.027344;1.087891;
44159;-0.008789;0.024414;1.097656;
44304;-0.003906;0.018555;1.092773;
44444;-0.006836;0.026367;1.098633;
44584;-0.007812;0.028320;1.078125;
44733;-0.004883;0.024414;1.074219;
44874;-0.004883;0.027344;1.072266;
45014;-0.004883;0.028320;1.052734;
45153;-0.007812;0.025391;1.025391;
45293;-0.010742;0.027344;1.029297;
45434;-0.011719;0.028320;1.021484;
45583;-0.007812;0.028320;1.002930;
45724;-0.010742;0.029297;0.993164;
45874;-0.011719;0.029297;0.983398;
46014;-0.011719;0.027344;0.971680;
46154;-0.010742;0.030273;0.963867;
46309;-0.011719;0.021484;0.963867;
46469;-0.008789;0.028320;0.964844;
46629;-0.009766;0.027344;0.954102;
46783;-0.009766;0.023438;0.975586;
46924;-0.010742;0.024414;0.980469;
47063;-0.008789;0.023438;0.978516;
47204;-0.011719;0.025391;0.985352;
47344;-0.009766;0.027344;1.006836;
47483;-0.010742;0.025391;1.001953;
47624;-0.007812;0.024414;1.012695;
47763;-0.005859;0.029297;1.012695;
47899;-0.008789;0.027344;1.013672;
48054;-0.010742;0.026367;1.011719;
48194;-0.008789;0.026367;1.008789;
48333;-0.006836;0.026367;1.001953;
48474;-0.008789;0.028320;1.016602;
48609;-0.009766;0.027344;0.997070;
48759;-0.009766;0.027344;0.997070;
48919;-0.009766;0.025391;0.997070;
49069;-0.011719;0.024414;0.993164;
49219;-0.010742;0.028320;0.996094;
49369;-0.009766;0.030273;1.002930;
49530;-0.007812;0.029297;1.001953;
49663;-0.006836;0.029297;1.002930;
49799;-0.009766;0.027344;0.994141;
49953;-0.014648;0.027344;1.000977;
50093;-0.006836;0.026367;0.986328;
50234;-0.010742;0.024414;0.979492;
50369;-0.010742;0.024414;0.988281;
50514;-0.011719;0.024414;0.987305;
50664;-0.005859;0.031250;1.000000;
50804;-0.013672;0.027344;0.991211;
50944;-0.007812;0.027344;1.005859;
51080;-0.007812;0.024414;1.010742;
51234;-0.004883;0.029297;1.021484;
51383;-0.008789;0.020508;1.021484;
51519;-0.007812;0.020508;1.025391;
51670;-0.005859;0.024414;1.039062;
51821;-0.002930;0.025391;1.045898;
51990;-0.001953;0.022461;1.050781;
52139;0.002930;0.019531;1.067383;
52289;0.000977;0.022461;1.083008;
52444;0.000977;0.023438;1.085938;
52584;0.002930;0.021484;1.084961;
52734;0.000000;0.015625;1.079102;
52869;-0.000977;0.013672;1.086914;
53024;0.003906;0.011719;1.080078;
53164;0.000000;0.015625;1.087891;
53303;0.001953;0.018555;1.091797;
53449;-0.000977;0.016602;1.089844;
53601;-0.000977;0.017578;1.083984;
53754;0.000000;0.014648;1.086914;
53894;0.000977;0.019531;1.078125;
54043;-0.002930;0.020508;1.080078;
54184;-0.000977;0.021484;1.069336;
54330;-0.001953;0.021484;1.065430;
54479;-0.004883;0.022461;1.053711;
54624;-0.003906;0.028320;1.064453;
54759;-0.000977;0.027344;1.054688;
54914;-0.005859;0.026367;1.040039;
55049;0.003906;0.033203;1.047852;
55199;-0.007812;0.025391;1.041016;
55353;-0.007812;0.034180;1.043945;
55494;-0.001953;0.034180;1.059570;
55629;-0.006836;0.032227;1.057617;
55780;-0.005859;0.024414;1.068359;
55940;0.000000;0.029297;1.057617;
56089;-0.001953;0.022461;1.041992;
56243;-0.006836;0.025391;1.030273;
56383;-0.002930;0.023438;1.021484;
56524;-0.006836;0.020508;1.017578;
56659;-0.005859;0.021484;1.015625;
56800;-0.004883;0.023438;1.022461;
56944;-0.004883;0.018555;1.027344;
57084;-0.005859;0.021484;1.026367;
57224;-0.004883;0.018555;1.026367;
57363;-0.003906;0.024414;1.020508;
57509;-0.006836;0.017578;1.018555;
57664;-0.001953;0.020508;1.013672;
57803;-0.004883;0.018555;1.016602;
57944;-0.006836;0.020508;1.018555;
58091;-0.004883;0.023438;1.024414;
58239;-0.005859;0.023438;1.001953;
58391;-0.007812;0.016602;1.001953;
58539;-0.006836;0.028320;1.012695;
58690;-0.006836;0.030273;1.014648;
58829;-0.005859;0.026367;1.009766;
58979;-0.004883;0.026367;1.019531;
59134;-0.005859;0.028320;1.028320;
59273;-0.006836;0.017578;1.020508;
59414;-0.003906;0.023438;1.008789;
59554;-0.004883;0.021484;1.016602;
59689;-0.006836;0.021484;1.007812;
59834;-0.004883;0.022461;1.011719;
59974;-0.003906;0.023438;1.029297;
60114;-0.005859;0.023438;1.020508;
60249;-0.008789;0.022461;1.027344;
60404;-0.007812;0.024414;1.023438;
60544;-0.003906;0.023438;1.020508;
60683;-0.004883;0.022461;1.002930;
60824;-0.005859;0.023438;1.022461;
60969;-0.003906;0.028320;1.023438;
61134;-0.004883;0.026367;1.035156;
61270;-0.004883;0.026367;1.026367;
61409;-0.001953;0.027344;1.031250;
61560;-0.005859;0.026367;1.038086;
61709;-0.008789;0.024414;1.044922;
61859;-0.001953;0.023438;1.066406;
62009;-0.004883;0.022461;1.059570;
62173;-0.000977;0.021484;1.068359;
62325;-0.002930;0.022461;1.080078;
62479;-0.004883;0.017578;1.074219;
62634;-0.002930;0.021484;1.086914;
62774;-0.001953;0.024414;1.085938;
62924;-0.002930;0.021484;1.087891;
63060;-0.002930;0.020508;1.080078;
63203;-0.001953;0.022461;1.071289;
63344;-0.000977;0.017578;1.062500;
63483;-0.003906;0.019531;1.064453;
63625;-0.002930;0.031250;1.055664;
63769;-0.003906;0.027344;1.049805;
63924;-0.006836;0.029297;1.042969;
64060;-0.004883;0.027344;1.038086;
64209;-0.003906;0.025391;1.025391;
64359;-0.004883;0.027344;1.029297;
64510;-0.005859;0.030273;1.028320;
64659;-0.008789;0.026367;1.014648;
64789;-0.005859;0.024414;1.018555;
64954;-0.003906;0.021484;1.022461;
65094;-0.004883;0.019531;1.002930;
65229;-0.004883;0.018555;1.011719;
65384;-0.004883;0.021484;1.008789;
65534;-0.004883;0.026367;1.026367;
65674;-0.007812;0.026367;1.002930;
65814;-0.003906;0.028320;1.015625;
65950;-0.007812;0.029297;1.017578;
66114;-0.008789;0.032227;1.006836;
66253;-0.006836;0.023438;1.005859;
66393;-0.008789;0.025391;1.012695;
66530;-0.006836;0.025391;0.995117;
66684;-0.007812;0.024414;0.982422;
66823;-0.008789;0.022461;0.974609;
66959;-0.007812;0.019531;0.978516;
67109;-0.007812;0.018555;0.966797;
67259;-0.008789;0.018555;0.962891;
67409;-0.006836;0.019531;0.966797;
67559;-0.006836;0.018555;0.960938;
67700;-0.011719;0.021484;0.963867;
67849;-0.007812;0.020508;0.959961;
68004;-0.010742;0.020508;0.970703;
68149;-0.008789;0.022461;0.964844;
68304;-0.006836;0.025391;0.976562;
68443;-0.007812;0.029297;0.999023;
68584;-0.008789;0.025391;1.003906;
68724;-0.002930;0.025391;1.006836;
68859;-0.007812;0.023438;1.015625;
69004;-0.004883;0.026367;1.026367;
69144;-0.005859;0.027344;1.041992;
69284;-0.004883;0.025391;1.061523;
69420;-0.000977;0.026367;1.070312;
69564;-0.003906;0.023438;1.071289;
69704;-0.004883;0.021484;1.073242;
69843;0.001953;0.021484;1.076172;
69989;0.000000;0.020508;1.079102;
70139;-0.000977;0.016602;1.079102;
70289;-0.000977;0.020508;1.073242;
70440;-0.000977;0.018555;1.071289;
70583;-0.001953;0.016602;1.078125;
70719;-0.001953;0.016602;1.061523;
70860;-0.001953;0.022461;1.073242;
71009;-0.005859;0.025391;1.070312;
71164;-0.004883;0.023438;1.063477;
71313;-0.003906;0.025391;1.054688;
71449;-0.002930;0.023438;1.052734;
71604;-0.003906;0.028320;1.054688;
71743;-0.007812;0.029297;1.042969;
71884;-0.004883;0.027344;1.032227;
72024;-0.002930;0.024414;1.048828;
72159;-0.002930;0.023438;1.046875;
72314;-0.002930;0.022461;1.046875;
72453;-0.002930;0.026367;1.052734;
72593;-0.005859;0.024414;1.049805;
72730;-0.004883;0.023438;1.045898;
72873;-0.003906;0.022461;1.041016;
73014;-0.003906;0.020508;1.033203;
73159;-0.003906;0.018555;1.034180;
73301;-0.005859;0.018555;1.026367;
73449;-0.004883;0.015625;1.009766;
73593;-0.004883;0.017578;1.004883;
73729;-0.005859;0.019531;1.001953;
73879;-0.005859;0.020508;1.000000;
74014;-0.004883;0.021484;1.004883;
74153;-0.006836;0.021484;0.995117;
74293;-0.005859;0.022461;0.985352;
74444;-0.008789;0.027344;0.995117;
74584;-0.009766;0.027344;0.978516;
74724;-0.006836;0.024414;0.991211;
74869;-0.007812;0.027344;1.000977;
75014;-0.007812;0.028320;0.989258;
75154;-0.006836;0.028320;0.991211;
75293;-0.007812;0.027344;1.003906;
75429;-0.008789;0.025391;0.995117;
75574;-0.006836;0.028320;1.001953;
75723;-0.005859;0.024414;1.010742;
75864;-0.006836;0.019531;1.001953;
76000;-0.005859;0.019531;1.000977;
76139;-0.004883;0.022461;1.000000;
76279;-0.004883;0.019531;1.005859;
76413;-0.004883;0.029297;1.005859;
76549;-0.006836;0.028320;1.010742;
76699;-0.004883;0.029297;1.017578;
76849;-0.004883;0.024414;1.025391;
77004;-0.005859;0.027344;1.032227;
77153;-0.007812;0.028320;1.041992;
77294;-0.002930;0.024414;1.050781;
77434;-0.003906;0.024414;1.067383;
77574;-0.003906;0.023438;1.059570;
77713;-0.002930;0.024414;1.071289;
77863;-0.001953;0.025391;1.083984;
78003;0.000000;0.029297;1.084961;
78144;-0.000977;0.022461;1.091797;
78293;0.000977;0.027344;1.091797;
78434;-0.002930;0.025391;1.088867;
78583;-0.000977;0.023438;1.073242;
78733;-0.003906;0.023438;1.073242;
78874;-0.003906;0.025391;1.065430;
79019;-0.005859;0.024414;1.052734;
79169;-0.005859;0.025391;1.043945;
79309;-0.003906;0.026367;1.042969;
79459;-0.003906;0.022461;1.035156;
79610;-0.006836;0.020508;1.018555;
79749;-0.005859;0.019531;1.016602;
79904;-0.005859;0.022461;1.018555;
80054;-0.005859;0.019531;1.021484;
80194;-0.006836;0.022461;1.029297;
80335;-0.005859;0.024414;1.043945;
80494;-0.005859;0.022461;1.034180;
80634;-0.005859;0.025391;1.041992;
80773;-0.003906;0.026367;1.047852;
80914;-0.004883;0.024414;1.051758;
81049;-0.006836;0.026367;1.047852;
81193;-0.004883;0.019531;1.039062;
81334;-0.003906;0.021484;1.042969;
81474;-0.005859;0.013672;1.041992;
81609;-0.003906;0.013672;1.052734;
81760;-0.005859;0.015625;1.053711;
81909;-0.004883;0.012695;1.057617;
82059;-0.000977;0.025391;1.060547;
82209;-0.005859;0.017578;1.045898;
82359;-0.004883;0.024414;1.052734;
82499;-0.004883;0.019531;1.043945;
82629;-0.005859;0.029297;1.021484;
82784;-0.005859;0.029297;1.037109;
82924;-0.008789;0.026367;1.033203;
83074;-0.011719;0.031250;1.022461;
83209;-0.007812;0.018555;1.020508;
83364;-0.006836;0.020508;1.009766;
83503;-0.010742;0.034180;1.015625;
83644;-0.005859;0.013672;1.000000;
83784;-0.007812;0.019531;1.000977;
83919;-0.006836;0.033203;0.998047;
84073;-0.008789;0.031250;1.001953;
84214;-0.011719;0.024414;0.987305;
84353;-0.009766;0.031250;0.982422;
84489;-0.011719;0.038086;0.989258;
84639;-0.016602;0.026367;0.988281;
84789;-0.010742;0.031250;0.980469;
84939;-0.010742;0.034180;1.010742;
85069;-0.013672;0.027344;1.003906;
85219;-0.004883;0.024414;1.017578;
85369;-0.007812;0.035156;1.016602;
85514;-0.011719;0.025391;1.018555;
85654;-0.006836;0.026367;1.018555;
85793;-0.006836;0.032227;1.032227;
85929;-0.008789;0.026367;1.027344;
86074;-0.008789;0.019531;1.026367;
86214;-0.008789;0.023438;1.033203;
86354;-0.005859;0.022461;1.036133;
86494;-0.008789;0.017578;1.037109;
86634;-0.003906;0.018555;1.061523;
86773;-0.005859;0.028320;1.049805;
86914;-0.007812;0.024414;1.041992;
87053;-0.004883;0.028320;1.055664;
87194;-0.004883;0.028320;1.041992;
87334;-0.005859;0.027344;1.021484;
87469;0.001953;0.021484;1.037109;
87620;0.000000;0.035156;1.029297;
87769;0.007812;0.028320;1.051758;
87919;0.013672;0.032227;1.038086;
88059;0.016602;0.028320;1.052734;
88214;0.027344;0.029297;1.054688;
88354;0.033203;0.022461;1.064453;
88493;0.038086;0.032227;1.068359;
88634;0.041992;0.028320;1.081055;
88774;0.043945;0.034180;1.078125;
88913;0.055664;0.023438;1.084961;
89053;0.053711;0.031250;1.101562;
89203;0.060547;0.014648;1.102539;
89344;0.066406;0.029297;1.104492;
89484;0.067383;0.031250;1.095703;
89624;0.076172;0.030273;1.120117;
89764;0.078125;0.024414;1.090820;
89903;0.082031;0.028320;1.083008;
90044;0.084961;0.018555;1.069336;
90179;0.087891;0.023438;1.068359;
90329;0.087891;0.017578;1.010742;
90469;0.093750;0.021484;1.016602;
90619;0.095703;0.018555;0.982422;
90769;0.097656;0.018555;0.974609;
90924;0.094727;0.025391;0.976562;
91073;0.091797;0.023438;0.965820;
91214;0.093750;0.023438;0.962891;
91353;0.090820;0.024414;0.954102;
91494;0.094727;0.030273;0.955078;
91634;0.094727;0.026367;0.939453;
91783;0.092773;0.030273;0.948242;
91923;0.091797;0.027344;0.959961;
92064;0.088867;0.030273;0.937500;
92214;0.093750;0.028320;0.959961;
92354;0.093750;0.024414;0.961914;
92494;0.094727;0.032227;0.986328;
92634;0.093750;0.026367;0.986328;
92773;0.097656;0.029297;0.991211;
92909;0.095703;0.023438;0.999023;
93059;0.092773;0.022461;1.000000;
93211;0.093750;0.025391;1.020508;
93349;0.092773;0.021484;1.024414;
93494;0.090820;0.020508;1.006836;
93639;0.092773;0.021484;1.018555;
93789;0.095703;0.024414;1.019531;
93934;0.095703;0.022461;1.012695;
94074;0.095703;0.021484;0.991211;
94213;0.090820;0.019531;0.982422;
94354;0.089844;0.015625;0.994141;
94494;0.088867;0.015625;0.991211;
94634;0.090820;0.023438;1.010742;
94774;0.092773;0.023438;1.010742;
94914;0.093750;0.030273;1.027344;
95054;0.093750;0.027344;1.037109;
95194;0.089844;0.017578;1.062500;
95334;0.092773;0.026367;1.091797;
95474;0.097656;0.022461;1.095703;
95614;0.096680;0.022461;1.111328;
95754;0.095703;0.020508;1.112305;
95879;0.096680;0.028320;1.132812;
96011;0.092773;0.023438;1.139648;
96159;0.096680;0.022461;1.155273;
96309;0.098633;0.023438;1.172852;
96449;0.097656;0.023438;1.147461;
96604;0.100586;0.014648;1.128906;
96743;0.096680;0.018555;1.122070;
96884;0.093750;0.021484;1.100586;
97024;0.090820;0.019531;1.099609;
97164;0.092773;0.022461;1.083984;
97314;0.093750;0.021484;1.056641;
97454;0.089844;0.017578;1.023438;
97594;0.090820;0.019531;1.010742;
97743;0.087891;0.023438;1.012695;
97884;0.084961;0.029297;1.006836;
98023;0.088867;0.024414;0.987305;
98164;0.087891;0.029297;0.978516;
98303;0.086914;0.027344;0.980469;
98443;0.083008;0.025391;0.973633;
98579;0.086914;0.020508;0.995117;
98799;0.085938;0.025391;0.981445;
99029;0.083984;0.029297;0.989258;
99254;0.086914;0.026367;1.000000;
99474;0.083984;0.024414;1.014648;
99693;0.084961;0.018555;1.002930;
99914;0.088867;0.021484;1.017578;
100134;0.084961;0.026367;1.032227;
100354;0.084961;0.017578;1.010742;
100574;0.086914;0.023438;0.999023;
100794;0.086914;0.023438;1.000000;
101013;0.078125;0.020508;1.002930;
101234;0.082031;0.027344;1.002930;
101454;0.083984;0.023438;0.965820;
101673;0.084961;0.024414;0.982422;
101894;0.084961;0.022461;1.007812;
102113;0.082031;0.027344;1.014648;
102330;0.083984;0.017578;0.995117;
102559;0.088867;0.027344;1.000000;
102804;0.084961;0.025391;1.023438;
103024;0.081055;0.014648;1.019531;
103244;0.084961;0.021484;1.013672;
103463;0.083984;0.028320;1.042969;
103683;0.079102;0.020508;1.052734;
103903;0.080078;0.027344;1.040039;
104124;0.082031;0.029297;1.043945;
104344;0.083008;0.023438;1.036133;
104564;0.083008;0.023438;1.065430;
104784;0.083008;0.030273;1.089844;
105003;0.082031;0.022461;1.078125;
105224;0.084961;0.023438;1.065430;
105443;0.084961;0.019531;1.075195;
105664;0.086914;0.019531;1.112305;
105880;0.081055;0.021484;1.122070;
106099;0.083008;0.021484;1.100586;
106330;0.080078;0.034180;1.103516;
106563;0.080078;0.031250;1.158203;
106784;0.085938;0.030273;1.231445;
107004;0.085938;0.025391;1.292969;
107223;0.090820;0.019531;1.360352;
107444;0.100586;0.018555;1.452148;
107664;0.108398;0.022461;1.566406;
107883;0.109375;0.027344;1.650391;
108104;0.114258;0.008789;1.713867;
108324;0.120117;0.009766;1.771484;
108544;0.123047;0.018555;1.819336;
108764;0.124023;0.019531;1.872070;
108984;0.126953;0.013672;1.870117;
109203;0.125000;0.010742;1.828125;
109424;0.123047;0.015625;1.806641;
109640;0.122070;0.017578;1.805664;
109850;0.125000;0.014648;1.794922;
110079;0.122070;0.016602;1.807617;
110314;0.122070;0.015625;1.807617;
110534;0.125977;0.018555;1.810547;
110754;0.124023;0.018555;1.859375;
110973;0.126953;0.005859;1.871094;
111194;0.128906;0.008789;1.878906;
111414;0.127930;0.018555;1.892578;
111634;0.135742;0.017578;1.898438;
111853;0.130859;0.017578;1.880859;
112074;0.126953;0.016602;1.867188;
112293;0.129883;0.016602;1.851562;
112514;0.126953;0.016602;1.822266;
112734;0.125000;0.019531;1.829102;
112954;0.128906;0.013672;1.832031;
113169;0.128906;0.009766;1.834961;
113382;0.132812;0.003906;1.833984;
113602;0.135742;0.005859;1.833984;
113820;0.134766;0.010742;1.842773;
114049;0.132812;0.019531;1.836914;
114283;0.133789;0.021484;1.836914;
114504;0.136719;0.022461;1.845703;
114723;0.132812;0.020508;1.840820;
114944;0.138672;0.015625;1.828125;
115164;0.140625;0.018555;1.842773;
115383;0.140625;0.018555;1.857422;
115604;0.143555;0.014648;1.838867;
115824;0.141602;0.007812;1.821289;
116044;0.144531;0.010742;1.841797;
116264;0.143555;0.008789;1.820312;
116484;0.144531;0.016602;1.819336;
116704;0.145508;0.016602;1.815430;
116923;0.150391;0.019531;1.833984;
117139;0.148438;0.010742;1.815430;
117359;0.151367;0.017578;1.843750;
117579;0.154297;0.013672;1.862305;
117814;0.165039;0.021484;1.892578;
118034;0.163086;0.017578;1.920898;
118254;0.170898;0.017578;1.902344;
118474;0.168945;0.017578;1.927734;
118693;0.169922;0.019531;1.906250;
118914;0.171875;0.006836;1.909180;
119134;0.173828;0.012695;1.901367;
119354;0.171875;0.028320;1.879883;
119574;0.170898;0.014648;1.864258;
119794;0.173828;0.020508;1.824219;
120014;0.170898;0.025391;1.799805;
120233;0.173828;0.019531;1.774414;
120453;0.176758;0.018555;1.794922;
120673;0.179688;0.012695;1.807617;
120890;0.180664;0.026367;1.803711;
121119;0.181641;0.025391;1.791016;
121349;0.183594;0.016602;1.795898;
121564;0.185547;0.021484;1.831055;
121784;0.189453;0.014648;1.804688;
122004;0.192383;0.009766;1.823242;
122223;0.195312;0.015625;1.805664;
122444;0.191406;0.012695;1.804688;
122663;0.198242;0.009766;1.810547;
122884;0.197266;0.017578;1.793945;
123104;0.195312;0.014648;1.797852;
123324;0.198242;0.028320;1.784180;
123544;0.198242;0.039062;1.778320;
123764;0.194336;0.023438;1.732422;
123984;0.194336;0.004883;1.699219;
124204;0.196289;-0.005859;1.644531;
124423;0.192383;-0.006836;1.589844;
124639;0.190430;0.000977;1.574219;
124869;0.189453;0.003906;1.548828;
125094;0.192383;0.025391;1.565430;
125313;0.190430;0.031250;1.571289;
125534;0.195312;0.038086;1.549805;
125753;0.196289;0.024414;1.539062;
125974;0.200195;0.014648;1.543945;
126193;0.196289;0.015625;1.538086;
126414;0.192383;0.013672;1.538086;
126634;0.186523;0.020508;1.517578;
126854;0.172852;0.017578;1.523438;
127074;0.166016;0.020508;1.521484;
127293;0.148438;0.013672;1.458984;
127513;0.131836;0.015625;1.345703;
127733;0.101562;0.019531;1.197266;
127954;0.079102;0.020508;1.056641;
128173;0.052734;0.026367;0.871094;
128399;0.037109;0.038086;0.712891;
128620;0.020508;0.040039;0.526367;
128863;0.020508;0.045898;0.441406;
129084;0.007812;0.040039;0.282227;
129304;0.006836;0.044922;0.206055;
129524;0.001953;0.040039;0.122070;
129744;0.004883;0.035156;0.096680;
129964;0.003906;0.040039;0.057617;
130184;0.000977;0.032227;0.030273;
130403;0.000000;0.027344;-0.002930;
130623;0.000977;0.030273;0.022461;
130844;-0.000977;0.026367;0.019531;
131064;-0.000977;0.028320;0.006836;
131283;0.003906;0.022461;0.023438;
131504;-0.001953;0.030273;0.013672;
131733;-0.002930;0.030273;0.014648;
131949;-0.002930;0.030273;0.021484;
132189;-0.004883;0.030273;0.023438;
132434;-0.006836;0.032227;0.040039;
132653;-0.003906;0.030273;0.029297;
132869;-0.008789;0.033203;0.027344;
133094;-0.005859;0.031250;0.023438;
133314;-0.006836;0.023438;0.035156;
133534;-0.007812;0.027344;0.020508;
133753;-0.004883;0.021484;0.027344;
133974;-0.005859;0.024414;0.039062;
134193;-0.005859;0.026367;0.042969;
134414;-0.007812;0.025391;0.022461;
134624;-0.005859;0.026367;0.037109;
134844;-0.010742;0.028320;0.020508;
135064;-0.011719;0.034180;0.018555;
135284;-0.014648;0.031250;0.015625;
135499;-0.015625;0.029297;0.026367;
135719;-0.003906;0.011719;0.084961;
135954;-0.014648;0.032227;0.024414;
136174;-0.013672;0.031250;0.029297;
136394;-0.010742;0.032227;0.020508;
136614;-0.014648;0.029297;0.040039;
136834;-0.012695;0.027344;0.026367;
137054;-0.012695;0.031250;0.035156;
137274;-0.012695;0.026367;0.023438;
137493;-0.012695;0.030273;0.027344;
137714;-0.013672;0.026367;0.023438;
137934;-0.013672;0.026367;0.025391;
138153;-0.009766;0.032227;0.017578;
138374;-0.012695;0.028320;0.021484;
138594;-0.010742;0.024414;0.022461;
138814;-0.010742;0.022461;0.018555;
139033;-0.012695;0.028320;0.019531;
139250;-0.011719;0.028320;0.017578;
139480;-0.010742;0.029297;0.016602;
139690;-0.009766;0.029297;0.012695;
139913;-0.010742;0.028320;0.020508;
140135;-0.012695;0.025391;0.014648;
140354;-0.012695;0.025391;0.020508;
140574;-0.013672;0.026367;0.006836;
140793;-0.011719;0.028320;0.015625;
141014;-0.012695;0.028320;0.010742;
141234;-0.014648;0.027344;0.010742;
141453;-0.013672;0.023438;0.011719;
141675;-0.012695;0.024414;0.010742;
141904;-0.011719;0.024414;0.002930;
142123;-0.014648;0.029297;0.003906;
142344;-0.013672;0.029297;0.018555;
142564;-0.012695;0.030273;0.004883;
142783;-0.013672;0.028320;0.006836;
142999;-0.014648;0.025391;0.013672;
143240;-0.015625;0.029297;0.015625;
143459;-0.015625;0.030273;0.004883;
143684;-0.013672;0.029297;0.007812;
143903;-0.010742;0.028320;0.030273;
144124;-0.023438;0.027344;0.018555;
144344;-0.015625;0.024414;0.005859;
144564;-0.015625;0.030273;0.005859;
144784;-0.016602;0.035156;0.008789;
145003;-0.015625;0.032227;0.006836;
145223;-0.016602;0.028320;0.006836;
145444;-0.018555;0.029297;0.010742;
145663;-0.016602;0.033203;0.010742;
145884;-0.017578;0.033203;0.003906;
146103;-0.016602;0.028320;0.019531;
146323;-0.018555;0.033203;0.016602;
146545;-0.018555;0.030273;0.021484;
146779;-0.018555;0.032227;0.020508;
147009;-0.015625;0.030273;0.027344;
147229;-0.019531;0.026367;0.020508;
147454;-0.020508;0.027344;0.017578;
147674;-0.020508;0.032227;0.011719;
147894;-0.023438;0.027344;0.027344;
148113;-0.022461;0.029297;0.029297;
148343;-0.022461;0.030273;0.017578;
148564;-0.020508;0.028320;0.022461;
148784;-0.022461;0.025391;0.013672;
149004;-0.021484;0.033203;0.009766;
149219;-0.021484;0.028320;0.005859;
149434;-0.024414;0.031250;-0.006836;
149654;-0.025391;0.032227;-0.008789;
149874;-0.026367;0.032227;-0.024414;
150094;-0.028320;0.035156;-0.030273;
150314;-0.030273;0.027344;-0.035156;
150530;-0.031250;0.027344;-0.047852;
150759;-0.027344;0.030273;-0.048828;
150980;-0.056641;0.021484;-0.104492;
151204;-0.069336;0.032227;-0.082031;
151424;-0.019531;0.036133;0.028320;
151644;-0.034180;0.030273;-0.007812;
151864;-0.036133;0.035156;0.017578;
152084;-0.037109;0.037109;0.054688;
152304;-0.042969;0.033203;0.131836;
152524;-0.040039;0.031250;0.236328;
152743;-0.036133;0.027344;0.391602;
152964;-0.031250;0.029297;0.524414;
153184;-0.017578;0.025391;0.695312;
153404;-0.000977;0.026367;0.878906;
153624;0.012695;0.025391;1.047852;
153844;0.023438;0.015625;1.163086;
154064;0.036133;0.004883;1.258789;
154284;0.044922;0.011719;1.333984;
154499;0.052734;0.011719;1.418945;
154709;0.059570;0.014648;1.478516;
154929;0.065430;0.013672;1.579102;
155164;0.067383;0.022461;1.659180;
155384;0.063477;0.021484;1.685547;
155604;0.072266;0.031250;1.710938;
155824;0.063477;0.025391;1.698242;
156043;0.060547;0.023438;1.735352;
156264;0.061523;0.034180;1.711914;
156484;0.057617;0.055664;1.678711;
156703;0.045898;0.048828;1.653320;
156924;0.050781;0.036133;1.662109;
157144;0.048828;0.030273;1.657227;
157365;0.046875;0.025391;1.684570;
157594;0.045898;0.024414;1.708008;
157813;0.042969;0.031250;1.724609;
158034;0.046875;0.056641;1.807617;
158250;0.050781;0.061523;1.834961;
158470;0.050781;0.066406;1.860352;
158699;0.045898;0.049805;1.901367;
158934;0.055664;0.039062;1.921875;
159154;0.031250;0.013672;1.886719;
159374;0.054688;0.014648;1.939453;
159594;0.048828;0.003906;1.905273;
159814;0.041992;0.005859;1.883789;
160034;0.043945;0.002930;1.937500;
160254;0.040039;-0.009766;1.766602;
160473;0.023438;-0.006836;1.792969;
160694;0.018555;0.002930;1.729492;
160914;0.008789;0.008789;1.680664;
161133;0.006836;0.018555;1.675781;
161354;0.005859;0.020508;1.685547;
161574;0.001953;0.024414;1.697266;
161790;0.004883;0.026367;1.721680;
162020;0.002930;0.026367;1.727539;
162249;0.003906;0.022461;1.740234;
162483;0.004883;0.013672;1.772461;
162704;0.007812;0.011719;1.795898;
162924;0.005859;0.010742;1.824219;
163144;0.007812;0.012695;1.859375;
163364;0.008789;0.006836;1.893555;
163584;0.010742;0.014648;1.918945;
163794;0.010742;-0.005859;1.928711;
164013;0.009766;0.003906;1.928711;
164234;0.004883;0.006836;1.916992;
164454;0.004883;0.018555;1.911133;
164669;-0.001953;0.027344;1.879883;
164894;-0.008789;0.032227;1.859375;
165114;-0.011719;0.034180;1.835938;
165330;-0.013672;0.031250;1.806641;
165559;-0.017578;0.026367;1.782227;
165790;-0.020508;0.028320;1.767578;
166034;-0.024414;0.027344;1.757812;
166253;-0.022461;0.024414;1.756836;
166469;-0.029297;0.032227;1.721680;
166694;-0.021484;0.020508;1.768555;
166913;-0.022461;0.029297;1.793945;
167134;-0.017578;0.020508;1.832031;
167354;-0.017578;0.017578;1.858398;
167574;-0.020508;0.021484;1.881836;
167794;-0.018555;0.015625;1.879883;
168013;-0.017578;0.012695;1.904297;
168234;-0.017578;0.014648;1.897461;
168453;-0.019531;0.021484;1.873047;
168674;-0.019531;0.021484;1.875000;
168894;-0.025391;0.027344;1.839844;
169109;-0.025391;0.031250;1.814453;
169331;-0.038086;0.019531;1.781250;
169539;-0.038086;0.023438;1.704102;
169774;-0.037109;0.021484;1.726562;
169994;-0.036133;0.012695;1.706055;
170214;-0.039062;0.014648;1.691406;
170434;-0.037109;0.013672;1.696289;
170654;-0.037109;0.013672;1.689453;
170874;-0.037109;0.013672;1.697266;
171094;-0.038086;0.013672;1.696289;
171313;-0.040039;0.012695;1.697266;
171533;-0.039062;0.021484;1.707031;
171754;-0.036133;0.019531;1.704102;
171974;-0.036133;0.016602;1.709961;
172194;-0.034180;0.019531;1.728516;
172414;-0.038086;0.017578;1.713867;
172629;-0.036133;0.016602;1.716797;
172869;-0.034180;0.016602;1.726562;
173090;-0.035156;0.023438;1.722656;
173319;-0.037109;0.018555;1.704102;
173544;-0.035156;0.021484;1.708008;
173764;-0.037109;0.024414;1.705078;
173984;-0.034180;0.019531;1.696289;
174204;-0.035156;0.019531;1.691406;
174424;-0.031250;0.019531;1.691406;
174644;-0.033203;0.019531;1.667969;
174855;-0.033203;0.016602;1.661133;
175084;-0.030273;0.013672;1.651367;
175304;-0.030273;0.014648;1.625000;
175524;-0.035156;0.000000;1.628906;
175744;-0.028320;0.020508;1.589844;
175963;-0.022461;0.013672;1.560547;
176183;-0.019531;0.018555;1.529297;
176403;-0.036133;0.020508;1.405273;
176619;-0.021484;0.014648;1.423828;
176850;-0.015625;0.019531;1.375000;
177079;-0.011719;0.022461;1.318359;
177303;-0.010742;0.026367;1.254883;
177524;-0.010742;0.021484;1.212891;
177744;-0.012695;0.027344;1.178711;
177964;-0.013672;0.023438;1.133789;
178184;-0.018555;0.024414;1.117188;
178404;-0.016602;0.027344;1.103516;
178624;-0.021484;0.030273;1.063477;
178844;-0.014648;0.024414;1.073242;
179064;-0.011719;0.027344;1.081055;
179283;-0.010742;0.020508;1.058594;
179504;-0.011719;0.025391;1.051758;
179724;-0.012695;0.021484;1.043945;
179940;-0.012695;0.025391;1.031250;
180164;-0.015625;0.015625;1.047852;
180380;-0.012695;0.020508;1.066406;
180619;-0.012695;0.022461;1.099609;
180859;-0.010742;0.024414;1.114258;
181093;-0.009766;0.023438;1.138672;
181314;-0.008789;0.019531;1.166992;
181534;-0.003906;0.016602;1.224609;
181753;0.000977;0.025391;1.278320;
181974;0.002930;0.022461;1.291016;
182194;-0.002930;0.021484;1.254883;
182414;-0.004883;0.020508;1.180664;
182634;-0.010742;0.022461;1.097656;
182854;-0.014648;0.021484;1.011719;
183074;-0.017578;0.021484;0.929688;
183293;-0.020508;0.022461;0.865234;
183514;-0.024414;0.022461;0.811523;
183734;-0.026367;0.021484;0.799805;
183954;-0.022461;0.026367;0.833984;
184171;-0.019531;0.025391;0.902344;
184399;-0.015625;0.022461;1.008789;
184629;-0.010742;0.024414;1.097656;
184844;-0.006836;0.022461;1.154297;
185064;-0.001953;0.025391;1.192383;
185284;0.000000;0.020508;1.185547;
185503;-0.001953;0.020508;1.143555;
185723;-0.003906;0.022461;1.100586;
185944;-0.005859;0.020508;1.050781;
186164;-0.009766;0.019531;0.999023;
186384;-0.012695;0.019531;0.984375;
186604;-0.011719;0.026367;0.980469;
186823;-0.013672;0.023438;0.990234;
187044;-0.010742;0.025391;1.025391;
187263;-0.007812;0.021484;1.052734;
187484;-0.003906;0.026367;1.098633;
187703;-0.004883;0.026367;1.090820;
187920;-0.005859;0.021484;1.081055;
188159;-0.005859;0.020508;1.041992;
188390;-0.009766;0.023438;1.000000;
188614;-0.008789;0.022461;0.970703;
188834;-0.012695;0.018555;0.945312;
189054;-0.011719;0.016602;0.923828;
189273;-0.009766;0.022461;0.914062;
189494;-0.009766;0.021484;0.936523;
189714;-0.011719;0.018555;0.952148;
189934;-0.008789;0.024414;0.981445;
190154;-0.006836;0.031250;1.019531;
190374;-0.003906;0.022461;1.016602;
190594;-0.003906;0.024414;1.038086;
190814;-0.004883;0.026367;1.035156;
191034;-0.003906;0.029297;1.032227;
191254;-0.004883;0.028320;1.032227;
191474;-0.004883;0.023438;1.013672;
191689;-0.002930;0.019531;1.016602;
191919;-0.002930;0.022461;1.027344;
192149;-0.000977;0.022461;1.034180;
192384;-0.001953;0.024414;1.064453;
192604;-0.000977;0.019531;1.071289;
192824;0.000977;0.020508;1.096680;
193043;0.004883;0.023438;1.108398;
193264;0.004883;0.026367;1.125977;
193484;0.005859;0.023438;1.134766;
193704;0.003906;0.025391;1.137695;
193924;0.008789;0.022461;1.138672;
194143;0.007812;0.020508;1.114258;
194364;0.004883;0.024414;1.097656;
194584;0.004883;0.026367;1.066406;
194804;0.001953;0.020508;1.043945;
195023;0.005859;0.019531;1.028320;
195239;0.000977;0.023438;1.015625;
195469;0.000000;0.029297;0.997070;
195689;-0.003906;0.025391;0.985352;
195919;0.000977;0.027344;0.999023;
196143;0.000000;0.024414;1.009766;
196363;0.002930;0.021484;0.992188;
196584;0.000977;0.019531;0.978516;
196804;-0.001953;0.024414;0.947266;
197024;-0.000977;0.019531;0.921875;
197243;0.000000;0.022461;0.904297;
197464;-0.005859;0.023438;0.889648;
197683;-0.003906;0.026367;0.864258;
197904;-0.003906;0.024414;0.865234;
198124;-0.004883;0.025391;0.857422;
198343;-0.002930;0.026367;0.861328;
198564;-0.006836;0.025391;0.863281;
198784;-0.005859;0.024414;0.860352;
199004;-0.004883;0.024414;0.858398;
199219;-0.001953;0.028320;0.872070;
199429;-0.003906;0.027344;0.865234;
199640;-0.000977;0.022461;0.866211;
199864;-0.002930;0.026367;0.867188;
200084;-0.001953;0.026367;0.866211;
200304;-0.000977;0.025391;0.867188;
200523;0.000977;0.025391;0.866211;
200743;-0.002930;0.022461;0.863281;
200964;-0.002930;0.022461;0.858398;
201184;-0.001953;0.026367;0.849609;
201404;0.000000;0.028320;0.846680;
201623;-0.002930;0.025391;0.852539;
201844;-0.000977;0.026367;0.839844;
202064;-0.002930;0.025391;0.839844;
202284;-0.000977;0.028320;0.836914;
202504;-0.002930;0.024414;0.840820;
202724;-0.004883;0.022461;0.836914;
202944;-0.001953;0.026367;0.828125;
203159;-0.000977;0.026367;0.852539;
203389;-0.002930;0.027344;0.868164;
203619;0.000000;0.026367;0.904297;
203854;0.003906;0.021484;0.930664;
204074;0.007812;0.021484;0.981445;
204293;0.008789;0.027344;1.027344;
204514;0.013672;0.023438;1.056641;
204733;0.014648;0.021484;1.065430;
204954;0.015625;0.021484;1.086914;
205174;0.019531;0.024414;1.096680;
205393;0.018555;0.023438;1.101562;
205614;0.019531;0.027344;1.081055;
205833;0.016602;0.023438;1.065430;
206054;0.015625;0.023438;1.056641;
206273;0.012695;0.025391;1.023438;
206494;0.009766;0.023438;0.988281;
206714;0.007812;0.023438;0.965820;
206929;0.006836;0.026367;0.951172;
207150;0.006836;0.027344;0.930664;
207379;0.006836;0.026367;0.913086;
207614;0.006836;0.026367;0.912109;
207834;0.003906;0.023438;0.903320;
208054;0.003906;0.026367;0.909180;
208273;0.005859;0.028320;0.916992;
208494;0.007812;0.021484;0.925781;
208714;0.003906;0.021484;0.929688;
208933;0.008789;0.024414;0.944336;
209154;0.006836;0.022461;0.937500;
209374;0.006836;0.029297;0.943359;
209593;0.004883;0.024414;0.959961;
209814;0.006836;0.028320;0.954102;
210034;0.005859;0.025391;0.956055;
210254;0.008789;0.026367;0.957031;
210469;0.007812;0.024414;0.963867;
210700;0.011719;0.028320;0.956055;
210929;0.008789;0.028320;0.973633;
211164;0.011719;0.029297;0.973633;
211384;0.006836;0.020508;0.974609;
211603;0.008789;0.019531;0.977539;
211824;0.010742;0.025391;0.972656;
212043;0.008789;0.033203;0.990234;
212264;0.010742;0.030273;1.024414;
212484;0.012695;0.027344;1.052734;
212703;0.021484;0.026367;1.107422;
212924;0.020508;0.025391;1.146484;
213144;0.022461;0.022461;1.174805;
213363;0.030273;0.023438;1.220703;
213584;0.031250;0.024414;1.244141;
213804;0.030273;0.018555;1.227539;
214019;0.027344;0.020508;1.213867;
214251;0.025391;0.017578;1.176758;
214480;0.022461;0.027344;1.140625;
214714;0.020508;0.025391;1.094727;
214934;0.013672;0.023438;1.062500;
215154;0.014648;0.026367;1.038086;
215374;0.013672;0.019531;1.023438;
215594;0.013672;0.024414;1.021484;
215814;0.014648;0.021484;1.015625;
216034;0.016602;0.025391;1.000977;
216254;0.016602;0.029297;1.025391;
216474;0.016602;0.026367;1.043945;
216693;0.017578;0.024414;1.046875;
216914;0.017578;0.024414;1.058594;
217134;0.019531;0.021484;1.081055;
217353;0.019531;0.021484;1.077148;
217574;0.021484;0.024414;1.084961;
217791;0.020508;0.017578;1.087891;
218029;0.023438;0.021484;1.093750;
218274;0.021484;0.016602;1.087891;
218494;0.022461;0.024414;1.083984;
218713;0.024414;0.016602;1.083008;
218934;0.019531;0.023438;1.087891;
219154;0.019531;0.025391;1.079102;
219374;0.020508;0.023438;1.066406;
219594;0.022461;0.019531;1.062500;
219813;0.019531;0.022461;1.058594;
220034;0.019531;0.019531;1.046875;
220254;0.018555;0.021484;1.040039;
220474;0.018555;0.024414;1.054688;
220694;0.021484;0.025391;1.050781;
220914;0.021484;0.021484;1.037109;
221133;0.019531;0.019531;1.025391;
221349;0.015625;0.023438;1.017578;
221579;0.016602;0.028320;0.999023;
221814;0.017578;0.025391;0.994141;
222034;0.017578;0.025391;0.999023;
222253;0.014648;0.024414;0.993164;
222474;0.016602;0.022461;0.980469;
222694;0.016602;0.024414;0.979492;
222914;0.013672;0.028320;0.994141;
223133;0.016602;0.027344;0.994141;
223353;0.014648;0.025391;0.993164;
223574;0.016602;0.024414;1.005859;
223794;0.017578;0.027344;1.012695;
224014;0.017578;0.022461;1.007812;
224234;0.018555;0.023438;1.023438;
224454;0.017578;0.024414;1.019531;
224673;0.016602;0.023438;1.019531;
224891;0.019531;0.024414;1.021484;
225109;0.016602;0.024414;1.023438;
225329;0.019531;0.023438;1.015625;
225553;0.018555;0.023438;1.009766;
225774;0.018555;0.023438;1.009766;
225994;0.018555;0.021484;1.011719;
226214;0.019531;0.022461;1.007812;
226434;0.019531;0.023438;1.000000;
226653;0.016602;0.021484;0.990234;
226874;0.016602;0.023438;0.970703;
227093;0.016602;0.017578;0.977539;
227314;0.013672;0.021484;0.985352;
227534;0.018555;0.022461;0.990234;
227754;0.017578;0.021484;0.990234;
227974;0.015625;0.020508;0.990234;
228194;0.018555;0.024414;0.973633;
228409;0.019531;0.024414;0.972656;
228649;0.016602;0.026367;0.972656;
228879;0.018555;0.026367;0.984375;
229109;0.018555;0.024414;1.008789;
229334;0.020508;0.023438;1.013672;
229554;0.021484;0.023438;1.022461;
229773;0.020508;0.022461;1.020508;
229993;0.021484;0.023438;1.013672;
230214;0.018555;0.024414;1.011719;
230433;0.017578;0.022461;1.003906;
230654;0.022461;0.021484;0.998047;
230874;0.020508;0.024414;1.008789;
231093;0.020508;0.026367;0.998047;
231314;0.017578;0.021484;0.989258;
231533;0.019531;0.023438;0.993164;
231753;0.017578;0.024414;0.990234;
231973;0.017578;0.026367;1.002930;
232193;0.017578;0.024414;0.990234;
232409;0.018555;0.025391;0.995117;
232639;0.017578;0.024414;0.989258;
232859;0.017578;0.025391;0.990234;
233093;0.020508;0.024414;1.003906;
233314;0.017578;0.024414;1.008789;
233533;0.017578;0.025391;0.997070;
233753;0.020508;0.021484;0.985352;
233974;0.020508;0.023438;0.985352;
234193;0.019531;0.026367;0.990234;
234414;0.018555;0.024414;0.995117;
234634;0.020508;0.023438;0.999023;
234853;0.018555;0.026367;0.994141;
235074;0.019531;0.024414;0.989258;
235294;0.018555;0.025391;0.990234;
235514;0.016602;0.022461;0.986328;
235734;0.018555;0.026367;0.995117;
235954;0.021484;0.025391;1.001953;
236170;0.020508;0.022461;0.996094;
236399;0.019531;0.027344;1.005859;
236609;0.020508;0.026367;0.993164;
236843;0.019531;0.024414;0.993164;
237064;0.019531;0.022461;1.008789;
237283;0.018555;0.024414;1.013672;
237504;0.021484;0.026367;1.011719;
237723;0.021484;0.028320;1.025391;
237943;0.021484;0.027344;1.040039;
238164;0.025391;0.026367;1.057617;
238383;0.025391;0.024414;1.081055;
238604;0.028320;0.025391;1.096680;
238823;0.032227;0.023438;1.125977;
239044;0.034180;0.026367;1.135742;
239264;0.033203;0.024414;1.143555;
239484;0.034180;0.020508;1.151367;
239700;0.034180;0.022461;1.159180;
239919;0.033203;0.021484;1.156250;
240129;0.036133;0.022461;1.158203;
240359;0.033203;0.021484;1.152344;
240594;0.034180;0.026367;1.148438;
240814;0.031250;0.022461;1.129883;
241033;0.033203;0.025391;1.132812;
241254;0.032227;0.023438;1.126953;
241473;0.028320;0.021484;1.099609;
241694;0.032227;0.023438;1.096680;
241914;0.029297;0.025391;1.080078;
242133;0.026367;0.022461;1.072266;
242354;0.030273;0.019531;1.066406;
242573;0.024414;0.022461;1.056641;
242794;0.027344;0.016602;1.040039;
243014;0.025391;0.023438;1.032227;
243233;0.025391;0.020508;1.029297;
243455;0.024414;0.020508;1.025391;
243674;0.024414;0.020508;1.023438;
243889;0.024414;0.023438;1.024414;
244119;0.025391;0.024414;1.021484;
244354;0.027344;0.022461;1.020508;
244574;0.024414;0.024414;1.019531;
244793;0.025391;0.024414;1.028320;
245014;0.026367;0.024414;1.024414;
245234;0.025391;0.029297;1.021484;
245453;0.024414;0.023438;1.018555;
245674;0.027344;0.025391;1.019531;
245893;0.026367;0.020508;1.028320;
246114;0.025391;0.022461;1.031250;
246334;0.025391;0.022461;1.014648;
246554;0.026367;0.021484;1.013672;
246773;0.025391;0.024414;1.021484;
246994;0.025391;0.019531;1.020508;
247214;0.026367;0.022461;1.020508;
247433;0.024414;0.023438;1.019531;
247639;0.026367;0.020508;1.011719;
247859;0.027344;0.024414;1.016602;
248089;0.025391;0.030273;1.018555;
248314;0.026367;0.024414;1.019531;
248534;0.029297;0.025391;1.016602;
248754;0.023438;0.030273;1.009766;
248974;0.027344;0.028320;1.007812;
249194;0.025391;0.027344;1.019531;
249413;0.025391;0.024414;1.008789;
249633;0.026367;0.026367;1.015625;
249854;0.027344;0.022461;1.008789;
250074;0.026367;0.023438;1.022461;
250294;0.027344;0.022461;1.022461;
250514;0.027344;0.021484;1.020508;
250734;0.027344;0.020508;1.029297;
250954;0.025391;0.022461;1.009766;
251174;0.028320;0.023438;1.025391;
251389;0.026367;0.026367;1.025391;
251599;0.028320;0.023438;1.034180;
251829;0.028320;0.019531;1.021484;
252053;0.026367;0.022461;1.018555;
252273;0.030273;0.028320;1.017578;
252493;0.027344;0.025391;1.029297;
252713;0.026367;0.024414;1.018555;
252934;0.027344;0.024414;1.019531;
253153;0.025391;0.023438;1.015625;
253373;0.028320;0.022461;1.008789;
253594;0.026367;0.022461;1.010742;
253813;0.026367;0.014648;1.009766;
254034;0.028320;0.016602;1.007812;
254254;0.029297;0.012695;1.000977;
254474;0.028320;0.014648;1.005859;
254693;0.026367;0.016602;1.009766;
254914;0.026367;0.013672;1.001953;
255129;0.027344;0.019531;0.996094;
255369;0.026367;0.018555;0.998047;
255604;0.030273;0.025391;0.996094;
255819;0.025391;0.024414;0.990234;
256043;0.027344;0.028320;1.009766;
256263;0.025391;0.022461;1.000000;
256484;0.029297;0.028320;1.009766;
256704;0.028320;0.029297;1.021484;
256924;0.027344;0.026367;1.036133;
257143;0.028320;0.022461;1.048828;
257364;0.029297;0.025391;1.052734;
257584;0.034180;0.026367;1.057617;
257803;0.032227;0.029297;1.061523;
258024;0.032227;0.024414;1.059570;
258244;0.034180;0.027344;1.068359;
258464;0.032227;0.019531;1.063477;
258683;0.034180;0.026367;1.064453;
258903;0.033203;0.021484;1.055664;
259119;0.033203;0.027344;1.053711;
259342;0.032227;0.025391;1.050781;
259559;0.032227;0.028320;1.045898;
259793;0.032227;0.022461;1.048828;
260014;0.030273;0.025391;1.036133;
260233;0.031250;0.025391;1.038086;
260453;0.031250;0.027344;1.039062;
260674;0.031250;0.021484;1.047852;
260893;0.031250;0.022461;1.041992;
261114;0.031250;0.020508;1.039062;
261334;0.032227;0.023438;1.036133;
261554;0.031250;0.021484;1.054688;
261774;0.034180;0.026367;1.046875;
261993;0.033203;0.021484;1.037109;
262214;0.036133;0.023438;1.038086;
262434;0.033203;0.024414;1.052734;
262654;0.035156;0.021484;1.050781;
262859;0.031250;0.022461;1.034180;
263070;0.033203;0.025391;1.041016;
263299;0.033203;0.024414;1.042969;
263544;0.031250;0.023438;1.036133;
263763;0.031250;0.027344;1.041992;
263984;0.031250;0.024414;1.013672;
264203;0.029297;0.023438;1.003906;
264423;0.027344;0.025391;0.998047;
264643;0.027344;0.023438;0.987305;
264864;0.028320;0.026367;0.976562;
265084;0.026367;0.024414;0.965820;
265304;0.026367;0.025391;0.959961;
265524;0.025391;0.024414;0.961914;
265744;0.024414;0.025391;0.958984;
265964;0.026367;0.024414;0.960938;
266184;0.024414;0.024414;0.971680;
266401;0.030273;0.024414;0.991211;
266629;0.030273;0.022461;0.997070;
266849;0.033203;0.022461;1.022461;
267080;0.034180;0.021484;1.022461;
267324;0.034180;0.023438;1.038086;
267543;0.035156;0.023438;1.050781;
267764;0.034180;0.022461;1.051758;
267983;0.038086;0.021484;1.063477;
268204;0.036133;0.022461;1.058594;
268424;0.033203;0.024414;1.041992;
268644;0.036133;0.024414;1.042969;
268863;0.035156;0.023438;1.044922;
269083;0.032227;0.023438;1.037109;
269304;0.032227;0.025391;1.030273;
269523;0.033203;0.026367;1.021484;
269743;0.032227;0.023438;1.022461;
269964;0.033203;0.025391;1.012695;
270184;0.033203;0.028320;1.008789;
270399;0.032227;0.023438;1.007812;
270609;0.032227;0.024414;1.014648;
270830;0.032227;0.022461;1.015625;
271064;0.031250;0.019531;1.005859;
271284;0.032227;0.025391;1.006836;
271503;0.032227;0.023438;1.011719;
271723;0.034180;0.023438;1.012695;
271944;0.032227;0.016602;1.007812;
272164;0.032227;0.019531;0.987305;
272384;0.029297;0.014648;0.959961;
272604;0.024414;0.022461;0.948242;
272823;0.028320;0.019531;0.941406;
273043;0.024414;0.022461;0.942383;
273263;0.027344;0.027344;0.965820;
273484;0.031250;0.022461;0.982422;
273703;0.034180;0.030273;1.030273;
273920;0.038086;0.025391;1.043945;
274149;0.038086;0.026367;1.078125;
274379;0.041016;0.025391;1.094727;
274614;0.042969;0.025391;1.115234;
274834;0.044922;0.025391;1.124023;
275054;0.042969;0.023438;1.110352;
275273;0.041016;0.021484;1.081055;
275494;0.039062;0.023438;1.056641;
275714;0.034180;0.023438;1.035156;
275934;0.034180;0.024414;1.016602;
276153;0.029297;0.023438;0.990234;
276373;0.028320;0.026367;0.952148;
276594;0.026367;0.025391;0.940430;
276814;0.023438;0.021484;0.916992;
277034;0.024414;0.022461;0.903320;
277254;0.020508;0.023438;0.878906;
277473;0.021484;0.023438;0.875977;
277699;0.021484;0.020508;0.898438;
277929;0.024414;0.025391;0.915039;
278164;0.027344;0.023438;0.945312;
278383;0.028320;0.018555;0.965820;
278603;0.031250;0.024414;0.975586;
278824;0.028320;0.022461;0.998047;
279044;0.034180;0.026367;1.011719;
279264;0.033203;0.019531;1.018555;
279484;0.034180;0.021484;1.027344;
279704;0.036133;0.024414;1.030273;
279924;0.036133;0.021484;1.045898;
280143;0.037109;0.023438;1.041016;
280364;0.036133;0.026367;1.042969;
280583;0.036133;0.024414;1.042969;
280804;0.034180;0.022461;1.032227;
281023;0.036133;0.023438;1.031250;
281229;0.036133;0.023438;1.025391;
281459;0.034180;0.026367;1.017578;
281704;0.033203;0.028320;1.037109;
281923;0.034180;0.026367;1.050781;
282143;0.039062;0.024414;1.060547;
282364;0.041992;0.027344;1.083008;
282584;0.040039;0.025391;1.093750;
282804;0.041992;0.023438;1.102539;
283024;0.043945;0.027344;1.120117;
283244;0.046875;0.024414;1.126953;
283464;0.043945;0.026367;1.127930;
283684;0.042969;0.027344;1.123047;
283904;0.044922;0.020508;1.123047;
284124;0.043945;0.022461;1.117188;
284344;0.042969;0.023438;1.114258;
284564;0.044922;0.022461;1.100586;
284783;0.041016;0.023438;1.101562;
285000;0.041992;0.024414;1.088867;
285229;0.041016;0.024414;1.068359;
285449;0.037109;0.025391;1.059570;
285684;0.038086;0.024414;1.037109;
285904;0.037109;0.023438;1.027344;
286123;0.035156;0.020508;1.010742;
286344;0.031250;0.029297;0.997070;
286564;0.031250;0.021484;0.984375;
286784;0.031250;0.020508;0.975586;
287001;0.031250;0.024414;0.954102;
287229;0.028320;0.026367;0.937500;
287473;0.028320;0.033203;0.933594;
287694;0.023438;0.025391;0.916016;
287914;0.026367;0.022461;0.919922;
288133;0.027344;0.031250;0.937500;
288354;0.028320;0.030273;0.947266;
288574;0.028320;0.029297;0.961914;
288789;0.032227;0.023438;0.984375;
289019;0.037109;0.023438;1.029297;
289250;0.037109;0.024414;1.047852;
289489;0.043945;0.027344;1.076172;
289714;0.042969;0.023438;1.092773;
289934;0.042969;0.019531;1.093750;
290151;0.043945;0.019531;1.082031;
290374;0.041016;0.020508;1.066406;
290594;0.037109;0.017578;1.054688;
290809;0.039062;0.016602;1.038086;
291024;0.038086;0.022461;1.023438;
291244;0.034180;0.025391;1.009766;
291464;0.033203;0.021484;0.987305;
291683;0.029297;0.026367;0.968750;
291903;0.031250;0.020508;0.965820;
292124;0.029297;0.020508;0.950195;
292329;0.024414;0.020508;0.949219;
292559;0.029297;0.026367;0.960938;
292789;0.029297;0.024414;0.962891;
293019;0.029297;0.024414;0.958008;
293265;0.031250;0.022461;0.960938;
293504;0.034180;0.023438;0.968750;
293724;0.030273;0.025391;0.970703;
293940;0.031250;0.026367;0.966797;
294164;0.030273;0.022461;0.973633;
294383;0.028320;0.026367;0.967773;
294599;0.033203;0.024414;0.964844;
294834;0.031250;0.025391;0.961914;
295054;0.027344;0.022461;0.963867;
295269;0.032227;0.025391;0.973633;
295504;0.034180;0.023438;1.022461;
295723;0.043945;0.023438;1.082031;
295939;0.046875;0.021484;1.113281;
296164;0.049805;0.019531;1.136719;
296380;0.049805;0.023438;1.162109;
296609;0.053711;0.022461;1.162109;
296849;0.048828;0.024414;1.155273;
297084;0.045898;0.027344;1.137695;
297304;0.043945;0.022461;1.094727;
297523;0.041992;0.028320;1.085938;
297744;0.041016;0.030273;1.057617;
297963;0.037109;0.026367;1.029297;
298184;0.036133;0.028320;1.011719;
298404;0.032227;0.030273;0.994141;
298623;0.034180;0.029297;0.987305;
298839;0.032227;0.021484;0.991211;
299073;0.038086;0.025391;1.000977;
299293;0.035156;0.023438;1.014648;
299510;0.041016;0.029297;1.041016;
299740;0.040039;0.022461;1.060547;
299963;0.041992;0.017578;1.072266;
300179;0.043945;0.023438;1.088867;
300409;0.046875;0.027344;1.101562;
300639;0.044922;0.022461;1.115234;
300869;0.047852;0.025391;1.120117;
301104;0.048828;0.019531;1.115234;
301324;0.048828;0.027344;1.110352;
301539;0.048828;0.029297;1.105469;
301774;0.048828;0.026367;1.114258;
301993;0.048828;0.022461;1.118164;
302209;0.045898;0.024414;1.093750;
302424;0.041992;0.032227;1.081055;
302643;0.039062;0.028320;1.060547;
302863;0.037109;0.022461;1.035156;
303083;0.038086;0.024414;1.013672;
303304;0.034180;0.025391;1.005859;
303519;0.034180;0.025391;0.986328;
303754;0.033203;0.025391;0.989258;
303970;0.032227;0.019531;0.979492;
304199;0.033203;0.023438;0.986328;
304429;0.037109;0.024414;1.008789;
304649;0.040039;0.022461;1.028320;
304859;0.037109;0.023438;1.025391;
305094;0.036133;0.023438;1.043945;
305314;0.041016;0.027344;1.051758;
305533;0.040039;0.021484;1.059570;
305754;0.037109;0.023438;1.049805;
305974;0.041992;0.023438;1.045898;
306189;0.039062;0.021484;1.035156;
306414;0.038086;0.021484;1.025391;
306634;0.035156;0.017578;1.023438;
306849;0.039062;0.018555;1.025391;
307074;0.037109;0.021484;1.022461;
307294;0.034180;0.027344;0.989258;
307514;0.032227;0.022461;0.978516;
307734;0.031250;0.024414;0.962891;
307955;0.032227;0.023438;0.958984;
308180;0.029297;0.026367;0.951172;
308409;0.031250;0.028320;0.960938;
308639;0.031250;0.026367;0.950195;
308859;0.034180;0.027344;0.973633;
309074;0.030273;0.023438;0.972656;
309289;0.035156;0.023438;0.980469;
309513;0.033203;0.022461;0.967773;
309734;0.032227;0.025391;0.967773;
309951;0.035156;0.023438;0.980469;
310164;0.032227;0.021484;0.970703;
310384;0.031250;0.025391;0.957031;
310599;0.032227;0.024414;0.957031;
310834;0.032227;0.023438;0.966797;
311054;0.032227;0.016602;0.962891;
311269;0.032227;0.021484;0.958984;
311494;0.034180;0.025391;0.959961;
311713;0.030273;0.030273;0.962891;
311929;0.031250;0.025391;0.947266;
312149;0.030273;0.025391;0.962891;
312389;0.031250;0.020508;0.961914;
312619;0.032227;0.022461;0.975586;
312849;0.034180;0.020508;0.977539;
313073;0.035156;0.025391;1.000000;
313293;0.034180;0.024414;1.006836;
313514;0.036133;0.026367;1.028320;
313733;0.041016;0.027344;1.047852;
313954;0.040039;0.019531;1.056641;
314169;0.042969;0.020508;1.067383;
314384;0.041016;0.019531;1.071289;
314604;0.040039;0.020508;1.064453;
314823;0.041992;0.019531;1.069336;
315043;0.041992;0.022461;1.060547;
315264;0.041016;0.025391;1.075195;
315479;0.041992;0.027344;1.052734;
315694;0.041992;0.022461;1.053711;
315919;0.039062;0.028320;1.041016;
316149;0.037109;0.026367;1.037109;
316370;0.038086;0.026367;1.036133;
316603;0.035156;0.026367;1.028320;
316824;0.034180;0.027344;1.008789;
317045;0.034180;0.024414;1.003906;
317283;0.036133;0.023438;1.008789;
317503;0.035156;0.023438;1.010742;
317721;0.037109;0.020508;1.011719;
317954;0.040039;0.020508;1.028320;
318174;0.041992;0.023438;1.060547;
318389;0.042969;0.018555;1.076172;
318623;0.043945;0.023438;1.102539;
318844;0.044922;0.020508;1.091797;
319059;0.044922;0.021484;1.120117;
319274;0.047852;0.024414;1.130859;
319495;0.050781;0.022461;1.145508;
319719;0.051758;0.025391;1.173828;
319949;0.054688;0.023438;1.201172;
320179;0.059570;0.025391;1.212891;
320413;0.061523;0.025391;1.235352;
320633;0.062500;0.020508;1.242188;
320854;0.063477;0.024414;1.245117;
321069;0.064453;0.028320;1.258789;
321304;0.061523;0.022461;1.231445;
321524;0.060547;0.022461;1.209961;
321739;0.056641;0.021484;1.178711;
321964;0.053711;0.024414;1.138672;
322183;0.047852;0.023438;1.117188;
322400;0.041992;0.023438;1.077148;
322644;0.040039;0.020508;1.039062;
322864;0.036133;0.024414;1.006836;
323079;0.035156;0.028320;0.984375;
323310;0.034180;0.024414;0.966797;
323539;0.030273;0.024414;0.944336;
323779;0.030273;0.025391;0.930664;
324024;0.031250;0.024414;0.947266;
324244;0.031250;0.028320;0.961914;
324460;0.032227;0.022461;0.978516;
324683;0.036133;0.023438;0.997070;
324904;0.039062;0.024414;1.010742;
325119;0.040039;0.025391;1.030273;
325364;0.039062;0.029297;1.044922;
325584;0.040039;0.024414;1.058594;
325799;0.042969;0.023438;1.059570;
326034;0.043945;0.025391;1.068359;
326253;0.045898;0.030273;1.070312;
326469;0.041992;0.024414;1.065430;
326704;0.043945;0.021484;1.061523;
326924;0.042969;0.020508;1.051758;
327139;0.043945;0.027344;1.063477;
327369;0.041992;0.022461;1.055664;
327604;0.043945;0.024414;1.047852;
327820;0.043945;0.019531;1.048828;
328049;0.041016;0.024414;1.043945;
328284;0.041992;0.028320;1.042969;
328503;0.041992;0.025391;1.053711;
328720;0.040039;0.029297;1.033203;
328954;0.041992;0.030273;1.029297;
329173;0.041992;0.023438;1.038086;
329390;0.042969;0.026367;1.032227;
329614;0.041992;0.021484;1.032227;
329833;0.039062;0.024414;1.026367;
330054;0.041992;0.020508;1.034180;
330273;0.040039;0.022461;1.036133;
330493;0.041016;0.022461;1.024414;
330703;0.040039;0.020508;1.029297;
330919;0.039062;0.022461;1.027344;
331139;0.040039;0.023438;1.018555;
331369;0.040039;0.024414;1.004883;
331599;0.038086;0.026367;1.001953;
331829;0.036133;0.027344;0.988281;
332063;0.037109;0.024414;0.984375;
332279;0.038086;0.024414;0.972656;
332503;0.037109;0.025391;0.974609;
332724;0.037109;0.023438;0.986328;
332945;0.038086;0.024414;0.999023;
333184;0.040039;0.026367;0.997070;
333404;0.039062;0.025391;1.002930;
333620;0.039062;0.024414;1.007812;
333864;0.041016;0.022461;1.010742;
334084;0.041016;0.020508;1.006836;
334299;0.041992;0.019531;1.014648;
334534;0.039062;0.024414;1.024414;
334753;0.041992;0.026367;1.018555;
334969;0.040039;0.027344;1.019531;
335199;0.041016;0.028320;1.017578;
335429;0.041016;0.031250;1.014648;
335659;0.041992;0.024414;1.017578;
335894;0.040039;0.026367;1.023438;
336113;0.041992;0.023438;1.007812;
336334;0.041016;0.023438;1.011719;
336554;0.042969;0.024414;1.021484;
336773;0.043945;0.021484;1.031250;
336994;0.042969;0.019531;1.033203;
337210;0.043945;0.021484;1.023438;
337443;0.042969;0.023438;1.044922;
337663;0.043945;0.022461;1.036133;
337880;0.042969;0.019531;1.036133;
338104;0.044922;0.027344;1.041992;
338324;0.042969;0.025391;1.042969;
338539;0.046875;0.022461;1.035156;
338763;0.042969;0.028320;1.033203;
338984;0.043945;0.023438;1.037109;
339289;0.041992;0.022461;1.026367;
339529;0.043945;0.021484;1.028320;
339769;0.043945;0.026367;1.024414;
339990;0.041992;0.021484;1.016602;
340209;0.041016;0.025391;1.013672;
340433;0.042969;0.025391;1.012695;
340654;0.040039;0.025391;1.009766;
340869;0.039062;0.021484;1.008789;
341084;0.041992;0.024414;0.995117;
341304;0.039062;0.022461;0.997070;
341519;0.040039;0.021484;0.999023;
341753;0.040039;0.022461;0.994141;
341974;0.041016;0.017578;0.983398;
342189;0.041016;0.021484;0.986328;
342413;0.040039;0.017578;1.000000;
342634;0.041992;0.021484;0.991211;
342849;0.043945;0.019531;0.999023;
343074;0.044922;0.025391;1.004883;
343299;0.041992;0.024414;1.014648;
343520;0.042969;0.028320;1.016602;
343740;0.043945;0.027344;1.021484;
343969;0.042969;0.030273;1.026367;
