Time;acc_x;acc_y;acc_z;

1797;-0.019531;0.021484;1.795898;
1943;-0.004883;0.021484;1.812500;
2083;-0.018555;0.014648;1.803711;
2223;-0.016602;0.019531;1.786133;
2363;-0.012695;0.017578;1.783203;
2503;-0.017578;0.012695;1.784180;
2644;-0.024414;0.014648;1.773438;
2784;-0.020508;0.012695;1.773438;
2923;-0.023438;0.016602;1.777344;
3063;-0.020508;0.017578;1.801758;
3203;-0.024414;0.021484;1.809570;
3343;-0.014648;0.017578;1.846680;
3484;-0.017578;0.019531;1.861328;
3624;-0.014648;0.018555;1.875000;
3764;-0.015625;0.009766;1.896484;
3904;-0.011719;0.019531;1.923828;
4043;-0.014648;0.012695;1.915039;
4183;-0.016602;0.012695;1.901367;
4323;-0.013672;0.012695;1.895508;
4471;-0.017578;0.012695;1.888672;
4620;-0.020508;0.005859;1.864258;
4759;-0.020508;0.012695;1.857422;
4912;-0.022461;0.014648;1.844727;
5049;-0.025391;0.010742;1.856445;
5180;-0.024414;0.017578;1.855469;
5324;-0.023438;0.016602;1.843750;
5464;-0.027344;0.018555;1.852539;
5599;-0.025391;0.014648;1.854492;
5743;-0.025391;0.021484;1.845703;
5883;-0.026367;0.023438;1.848633;
6023;-0.026367;0.020508;1.864258;
6164;-0.031250;0.024414;1.856445;
6304;-0.027344;0.024414;1.873047;
6443;-0.027344;0.021484;1.864258;
6584;-0.028320;0.020508;1.861328;
6723;-0.025391;0.023438;1.868164;
6864;-0.025391;0.016602;1.878906;
7004;-0.029297;0.014648;1.860352;
7143;-0.032227;0.010742;1.847656;
7279;-0.028320;0.008789;1.846680;
7420;-0.028320;0.009766;1.825195;
7569;-0.030273;0.011719;1.794922;
7719;-0.037109;0.018555;1.777344;
7859;-0.040039;0.027344;1.753906;
7999;-0.041992;0.028320;1.745117;
8143;-0.044922;0.022461;1.717773;
8284;-0.051758;0.027344;1.678711;
8434;-0.048828;0.023438;1.669922;
8574;-0.052734;0.020508;1.632812;
8714;-0.053711;0.023438;1.606445;
8853;-0.054688;0.025391;1.579102;
8994;-0.059570;0.023438;1.565430;
9134;-0.058594;0.024414;1.541992;
9274;-0.058594;0.028320;1.520508;
9414;-0.062500;0.026367;1.508789;
9554;-0.064453;0.030273;1.485352;
9694;-0.065430;0.030273;1.480469;
9834;-0.067383;0.022461;1.476562;
9973;-0.062500;0.023438;1.476562;
10109;-0.065430;0.022461;1.469727;
10259;-0.065430;0.018555;1.474609;
10399;-0.064453;0.017578;1.470703;
10559;-0.062500;0.013672;1.468750;
10709;-0.064453;0.016602;1.470703;
10864;-0.065430;0.016602;1.458008;
11003;-0.067383;0.021484;1.447266;
11144;-0.066406;0.018555;1.429688;
11294;-0.069336;0.022461;1.413086;
11434;-0.069336;0.021484;1.396484;
11574;-0.073242;0.022461;1.386719;
11713;-0.071289;0.025391;1.378906;
11853;-0.073242;0.024414;1.352539;
11994;-0.071289;0.026367;1.344727;
12134;-0.073242;0.025391;1.333984;
12274;-0.076172;0.028320;1.316406;
12423;-0.080078;0.023438;1.307617;
12564;-0.076172;0.024414;1.306641;
12704;-0.074219;0.024414;1.292969;
12839;-0.075195;0.023438;1.287109;
12979;-0.077148;0.024414;1.278320;
13139;-0.074219;0.019531;1.274414;
13279;-0.073242;0.020508;1.280273;
13429;-0.077148;0.022461;1.275391;
13584;-0.077148;0.019531;1.277344;
13724;-0.077148;0.015625;1.288086;
13864;-0.076172;0.015625;1.285156;
14003;-0.077148;0.020508;1.296875;
14143;-0.076172;0.020508;1.280273;
14284;-0.077148;0.024414;1.283203;
14424;-0.082031;0.023438;1.273438;
14564;-0.081055;0.025391;1.255859;
14714;-0.079102;0.027344;1.250000;
14854;-0.081055;0.022461;1.215820;
14994;-0.078125;0.024414;1.224609;
15134;-0.083008;0.027344;1.210938;
15274;-0.082031;0.025391;1.192383;
15414;-0.083008;0.023438;1.195312;
15559;-0.083984;0.024414;1.180664;
15709;-0.082031;0.019531;1.157227;
15849;-0.084961;0.020508;1.160156;
15993;-0.084961;0.021484;1.149414;
16129;-0.083984;0.024414;1.146484;
16259;-0.084961;0.018555;1.126953;
16400;-0.084961;0.021484;1.120117;
16549;-0.085938;0.019531;1.107422;
16694;-0.088867;0.018555;1.094727;
16834;-0.085938;0.019531;1.090820;
16974;-0.088867;0.019531;1.078125;
17113;-0.085938;0.023438;1.090820;
17254;-0.084961;0.020508;1.081055;
17393;-0.089844;0.021484;1.081055;
17534;-0.085938;0.021484;1.086914;
17674;-0.083984;0.024414;1.080078;
17813;-0.085938;0.021484;1.086914;
17954;-0.085938;0.026367;1.089844;
18094;-0.083984;0.029297;1.093750;
18234;-0.085938;0.029297;1.095703;
18374;-0.084961;0.026367;1.094727;
18514;-0.084961;0.027344;1.089844;
18654;-0.085938;0.021484;1.085938;
18780;-0.086914;0.020508;1.076172;
18920;-0.083008;0.024414;1.080078;
19049;-0.085938;0.019531;1.076172;
19190;-0.086914;0.018555;1.072266;
19329;-0.085938;0.017578;1.064453;
19479;-0.083984;0.017578;1.062500;
19629;-0.084961;0.022461;1.069336;
19779;-0.083008;0.017578;1.066406;
19933;-0.083008;0.023438;1.064453;
20074;-0.083008;0.022461;1.071289;
20214;-0.083008;0.025391;1.076172;
20354;-0.081055;0.022461;1.061523;
20494;-0.082031;0.023438;1.054688;
20644;-0.081055;0.024414;1.064453;
20784;-0.077148;0.024414;1.045898;
20924;-0.078125;0.023438;1.051758;
21063;-0.075195;0.026367;1.063477;
21203;-0.072266;0.024414;1.068359;
21353;-0.069336;0.023438;1.075195;
21494;-0.069336;0.020508;1.099609;
21634;-0.064453;0.021484;1.107422;
21774;-0.063477;0.019531;1.113281;
21909;-0.062500;0.021484;1.126953;
22050;-0.055664;0.020508;1.127930;
22199;-0.050781;0.020508;1.151367;
22349;-0.044922;0.024414;1.166992;
22499;-0.043945;0.023438;1.178711;
22654;-0.041016;0.021484;1.174805;
22794;-0.040039;0.018555;1.161133;
22934;-0.038086;0.015625;1.140625;
23074;-0.035156;0.024414;1.134766;
23224;-0.033203;0.018555;1.111328;
23363;-0.032227;0.022461;1.098633;
23504;-0.032227;0.029297;1.109375;
23644;-0.034180;0.026367;1.083984;
23783;-0.029297;0.035156;1.091797;
23924;-0.033203;0.031250;1.075195;
24073;-0.029297;0.034180;1.055664;
24214;-0.028320;0.029297;1.028320;
24353;-0.026367;0.025391;1.013672;
24504;-0.026367;0.023438;0.986328;
24639;-0.024414;0.022461;0.965820;
24790;-0.023438;0.017578;0.913086;
24939;-0.027344;0.017578;0.881836;
25079;-0.025391;0.022461;0.852539;
25234;-0.026367;0.017578;0.833984;
25373;-0.024414;0.021484;0.841797;
25514;-0.023438;0.020508;0.855469;
25664;-0.025391;0.019531;0.871094;
25803;-0.024414;0.020508;0.888672;
25943;-0.023438;0.025391;0.930664;
26084;-0.017578;0.019531;0.946289;
26223;-0.018555;0.024414;0.969727;
26364;-0.011719;0.023438;0.991211;
26503;-0.013672;0.022461;1.019531;
26643;-0.008789;0.023438;1.035156;
26784;-0.007812;0.022461;1.041016;
26924;-0.001953;0.021484;1.044922;
27063;0.002930;0.018555;1.062500;
27209;0.003906;0.021484;1.056641;
27359;0.005859;0.018555;1.070312;
27500;0.007812;0.022461;1.083984;
27649;0.004883;0.020508;1.092773;
27799;0.009766;0.020508;1.105469;
27939;0.011719;0.024414;1.115234;
28081;0.010742;0.025391;1.130859;
28219;0.009766;0.025391;1.141602;
28384;0.014648;0.031250;1.164062;
28524;0.009766;0.025391;1.145508;
28674;0.009766;0.029297;1.154297;
28810;0.006836;0.029297;1.142578;
28959;0.004883;0.030273;1.140625;
29114;0.004883;0.026367;1.139648;
29254;0.003906;0.025391;1.138672;
29394;0.001953;0.024414;1.133789;
29529;0.006836;0.019531;1.137695;
29684;0.007812;0.013672;1.125000;
29823;0.002930;0.020508;1.120117;
29959;0.003906;0.021484;1.126953;
30101;0.002930;0.016602;1.123047;
30249;0.003906;0.023438;1.112305;
30389;0.003906;0.019531;1.110352;
30540;0.004883;0.019531;1.116211;
30689;0.002930;0.024414;1.126953;
30840;0.000000;0.025391;1.115234;
30989;0.004883;0.025391;1.119141;
31140;0.001953;0.029297;1.102539;
31274;-0.000977;0.030273;1.125977;
31414;0.001953;0.027344;1.125000;
31553;0.001953;0.028320;1.138672;
31690;0.000977;0.029297;1.123047;
31843;0.007812;0.028320;1.115234;
31984;0.003906;0.031250;1.109375;
32133;0.000000;0.028320;1.090820;
32274;0.001953;0.023438;1.060547;
32424;0.000977;0.025391;1.024414;
32564;-0.004883;0.024414;1.014648;
32704;-0.004883;0.026367;0.989258;
32844;-0.005859;0.024414;0.979492;
32979;-0.007812;0.022461;0.960938;
33134;-0.008789;0.024414;0.944336;
33279;-0.006836;0.030273;0.935547;
33420;-0.008789;0.029297;0.938477;
33569;-0.009766;0.029297;0.944336;
33724;-0.006836;0.027344;0.949219;
33869;-0.007812;0.032227;0.946289;
34019;-0.005859;0.031250;0.948242;
34174;-0.006836;0.029297;0.951172;
34309;-0.006836;0.029297;0.975586;
34449;-0.008789;0.019531;0.957031;
34581;-0.006836;0.026367;0.956055;
34713;-0.008789;0.024414;0.946289;
34854;-0.003906;0.028320;0.979492;
34994;-0.008789;0.025391;0.971680;
35133;-0.006836;0.026367;0.988281;
35273;-0.004883;0.026367;0.991211;
35409;-0.003906;0.025391;0.993164;
35564;-0.006836;0.020508;1.001953;
35714;-0.003906;0.025391;0.987305;
35854;-0.005859;0.017578;0.997070;
36003;-0.002930;0.019531;1.003906;
36139;-0.004883;0.024414;1.006836;
36274;-0.003906;0.022461;0.997070;
36413;-0.004883;0.022461;0.986328;
36549;-0.005859;0.033203;0.995117;
36699;-0.006836;0.027344;1.004883;
36849;-0.005859;0.032227;1.011719;
36999;-0.005859;0.030273;1.005859;
37150;-0.002930;0.031250;1.005859;
37299;-0.006836;0.029297;1.008789;
37441;-0.008789;0.030273;1.020508;
37569;-0.004883;0.023438;1.026367;
37709;0.000000;0.025391;1.038086;
37844;-0.004883;0.023438;1.034180;
37979;-0.005859;0.028320;1.047852;
38129;-0.002930;0.023438;1.051758;
38269;-0.003906;0.021484;1.045898;
38414;-0.005859;0.018555;1.037109;
38553;-0.005859;0.021484;1.043945;
38694;-0.005859;0.019531;1.051758;
38834;-0.003906;0.019531;1.054688;
38969;-0.000977;0.018555;1.041992;
39124;-0.003906;0.019531;1.041992;
39263;-0.005859;0.027344;1.014648;
39404;-0.006836;0.027344;1.026367;
39544;-0.005859;0.028320;1.025391;
39689;-0.007812;0.029297;1.030273;
39834;-0.005859;0.026367;1.057617;
39984;0.000000;0.030273;1.107422;
40124;-0.002930;0.026367;1.125977;
40260;0.000000;0.025391;1.161133;
40409;0.007812;0.023438;1.191406;
40559;0.005859;0.023438;1.200195;
40700;0.000977;0.023438;1.207031;
40839;0.005859;0.021484;1.222656;
40972;0.004883;0.016602;1.224609;
41109;0.005859;0.021484;1.220703;
41259;0.004883;0.017578;1.234375;
41409;0.002930;0.021484;1.230469;
41559;0.004883;0.026367;1.230469;
41709;0.003906;0.021484;1.210938;
41854;0.007812;0.022461;1.209961;
41990;0.000977;0.029297;1.192383;
42134;0.001953;0.032227;1.198242;
42284;0.000977;0.024414;1.173828;
42423;0.002930;0.023438;1.154297;
42559;0.001953;0.017578;1.128906;
42714;0.000000;0.025391;1.113281;
42854;-0.001953;0.025391;1.100586;
42994;-0.002930;0.030273;1.085938;
43134;-0.003906;0.025391;1.054688;
43270;-0.003906;0.025391;1.020508;
43414;-0.003906;0.025391;1.029297;
43554;-0.008789;0.029297;1.007812;
43694;-0.002930;0.022461;0.995117;
43829;-0.004883;0.025391;0.968750;
43979;-0.010742;0.019531;0.975586;
44129;-0.005859;0.021484;0.961914;
44279;-0.010742;0.019531;0.959961;
44429;-0.008789;0.022461;0.959961;
44579;-0.007812;0.015625;0.950195;
44714;-0.005859;0.020508;0.965820;
44849;-0.010742;0.024414;0.972656;
44999;-0.008789;0.025391;0.963867;
45149;-0.003906;0.019531;0.961914;
45299;-0.005859;0.026367;0.961914;
45453;-0.009766;0.024414;0.969727;
45594;-0.008789;0.027344;0.973633;
45734;-0.009766;0.027344;0.986328;
45869;-0.010742;0.025391;0.980469;
46020;-0.004883;0.022461;0.989258;
46164;-0.004883;0.025391;0.995117;
46303;-0.007812;0.027344;1.000000;
46454;-0.007812;0.022461;0.999023;
46591;-0.004883;0.020508;0.981445;
46734;-0.005859;0.018555;0.967773;
46873;-0.008789;0.018555;0.976562;
47013;-0.005859;0.020508;0.984375;
47163;-0.005859;0.022461;0.991211;
47299;-0.003906;0.026367;0.991211;
47450;-0.003906;0.020508;1.009766;
47591;-0.006836;0.024414;1.023438;
47729;-0.007812;0.025391;1.041992;
47869;-0.002930;0.024414;1.052734;
48019;-0.004883;0.021484;1.064453;
48171;-0.001953;0.024414;1.083008;
48321;-0.005859;0.025391;1.088867;
48469;-0.002930;0.034180;1.100586;
48619;-0.006836;0.028320;1.101562;
48769;-0.003906;0.017578;1.086914;
48909;0.000000;0.017578;1.084961;
49039;-0.000977;0.015625;1.086914;
49170;-0.004883;0.021484;1.091797;
49314;-0.002930;0.020508;1.096680;
49454;-0.000977;0.028320;1.082031;
49594;0.000977;0.021484;1.070312;
49729;-0.007812;0.029297;1.087891;
49874;-0.006836;0.023438;1.070312;
50023;-0.003906;0.026367;1.047852;
50163;-0.002930;0.026367;1.041016;
50314;-0.002930;0.023438;1.029297;
50449;-0.006836;0.022461;1.015625;
50589;-0.009766;0.021484;1.005859;
50743;-0.003906;0.028320;0.998047;
50879;-0.004883;0.021484;0.987305;
51029;-0.005859;0.018555;0.967773;
51179;-0.009766;0.027344;0.988281;
51319;-0.008789;0.025391;0.972656;
51470;-0.003906;0.020508;0.977539;
51609;-0.004883;0.020508;0.962891;
51749;-0.006836;0.024414;0.963867;
51899;-0.006836;0.021484;0.969727;
52031;-0.009766;0.023438;0.985352;
52159;-0.003906;0.028320;0.979492;
52304;-0.004883;0.027344;0.986328;
52444;-0.009766;0.027344;0.993164;
52583;-0.008789;0.026367;0.999023;
52719;-0.004883;0.025391;1.009766;
52864;-0.004883;0.024414;1.000977;
53004;-0.006836;0.023438;1.006836;
53144;-0.009766;0.022461;1.013672;
53284;-0.004883;0.019531;1.011719;
53414;-0.006836;0.022461;1.013672;
53549;-0.003906;0.020508;1.000977;
53684;-0.006836;0.025391;1.014648;
53824;-0.009766;0.026367;1.003906;
53969;-0.008789;0.030273;1.006836;
54120;-0.003906;0.022461;1.005859;
54249;-0.004883;0.022461;1.003906;
54399;-0.006836;0.029297;1.015625;
54540;-0.008789;0.026367;1.005859;
54689;-0.004883;0.022461;1.016602;
54839;-0.007812;0.025391;1.007812;
54979;-0.004883;0.024414;1.015625;
55110;-0.003906;0.026367;1.016602;
55254;-0.006836;0.025391;1.029297;
55389;-0.002930;0.025391;1.011719;
55539;-0.004883;0.023438;1.006836;
55684;-0.002930;0.025391;1.000977;
55833;-0.005859;0.028320;1.006836;
55973;-0.005859;0.025391;1.003906;
56123;-0.008789;0.025391;0.985352;
56259;-0.007812;0.026367;0.972656;
56404;-0.010742;0.022461;0.982422;
56544;-0.006836;0.019531;0.993164;
56684;-0.003906;0.023438;1.022461;
56819;-0.004883;0.022461;1.042969;
56964;-0.004883;0.025391;1.076172;
57104;-0.002930;0.021484;1.111328;
57244;0.000000;0.026367;1.152344;
57383;0.001953;0.023438;1.170898;
57519;0.003906;0.028320;1.195312;
57660;0.002930;0.023438;1.213867;
57809;0.004883;0.026367;1.235352;
57959;0.005859;0.023438;1.239258;
58104;0.004883;0.022461;1.243164;
58239;0.008789;0.025391;1.242188;
58379;0.003906;0.015625;1.214844;
58529;0.006836;0.019531;1.223633;
58669;0.006836;0.022461;1.225586;
58811;0.001953;0.023438;1.194336;
58949;0.005859;0.021484;1.185547;
59099;0.001953;0.020508;1.165039;
59249;0.002930;0.020508;1.175781;
59400;0.001953;0.024414;1.153320;
59543;0.002930;0.033203;1.142578;
59693;0.000000;0.025391;1.125977;
59834;-0.001953;0.025391;1.107422;
59974;0.000000;0.021484;1.093750;
60109;-0.004883;0.014648;1.111328;
60241;-0.000977;0.022461;1.078125;
60379;-0.001953;0.019531;1.055664;
60519;-0.002930;0.026367;1.068359;
60653;-0.004883;0.028320;1.053711;
60804;-0.004883;0.018555;1.027344;
60943;-0.001953;0.019531;1.013672;
61079;-0.008789;0.025391;1.010742;
61229;-0.008789;0.024414;1.003906;
61379;-0.004883;0.028320;1.016602;
61529;-0.002930;0.028320;1.012695;
61679;-0.005859;0.020508;1.018555;
61819;-0.004883;0.018555;1.018555;
61949;-0.004883;0.026367;1.014648;
62091;-0.004883;0.023438;1.015625;
62240;-0.006836;0.022461;1.007812;
62379;-0.006836;0.026367;0.983398;
62520;-0.005859;0.022461;0.991211;
62662;-0.004883;0.016602;1.004883;
62789;-0.006836;0.024414;1.005859;
62939;-0.004883;0.024414;0.998047;
63094;-0.005859;0.023438;0.995117;
63234;-0.004883;0.020508;0.982422;
63374;-0.008789;0.029297;0.995117;
63513;-0.008789;0.028320;0.970703;
63659;-0.005859;0.026367;0.953125;
63804;-0.007812;0.019531;0.924805;
63954;-0.009766;0.022461;0.902344;
64093;-0.010742;0.027344;0.891602;
64233;-0.014648;0.027344;0.879883;
64384;-0.014648;0.025391;0.854492;
64523;-0.013672;0.023438;0.855469;
64663;-0.014648;0.025391;0.858398;
64809;-0.013672;0.021484;0.876953;
64954;-0.016602;0.025391;0.883789;
65090;-0.013672;0.025391;0.898438;
65220;-0.014648;0.020508;0.909180;
65369;-0.015625;0.026367;0.910156;
65519;-0.016602;0.023438;0.918945;
65669;-0.012695;0.025391;0.929688;
65819;-0.014648;0.028320;0.926758;
65969;-0.012695;0.034180;0.924805;
66109;-0.011719;0.028320;0.941406;
66264;-0.011719;0.028320;0.941406;
66404;-0.009766;0.031250;0.958984;
66543;-0.012695;0.024414;0.961914;
66685;-0.009766;0.022461;0.982422;
66829;-0.005859;0.028320;1.002930;
66984;-0.007812;0.024414;1.011719;
67124;-0.008789;0.022461;1.022461;
67263;-0.007812;0.029297;1.040039;
67410;-0.007812;0.023438;1.038086;
67564;-0.006836;0.024414;1.066406;
67703;-0.005859;0.030273;1.078125;
67843;-0.004883;0.029297;1.095703;
67979;-0.004883;0.022461;1.087891;
68120;-0.003906;0.026367;1.087891;
68269;-0.004883;0.026367;1.094727;
68421;-0.007812;0.026367;1.089844;
68569;-0.000977;0.024414;1.087891;
68719;-0.004883;0.023438;1.071289;
68869;-0.007812;0.025391;1.080078;
68999;-0.006836;0.026367;1.086914;
69149;0.000000;0.023438;1.064453;
69279;-0.005859;0.024414;1.048828;
69419;-0.006836;0.022461;1.038086;
69574;-0.003906;0.024414;1.026367;
69714;-0.005859;0.022461;1.037109;
69864;-0.006836;0.017578;1.036133;
69999;-0.004883;0.022461;1.058594;
70154;-0.005859;0.025391;1.050781;
70294;-0.008789;0.022461;1.048828;
70433;-0.006836;0.026367;1.049805;
70569;-0.005859;0.033203;1.056641;
70714;-0.010742;0.030273;1.054688;
70854;-0.004883;0.033203;1.068359;
70994;-0.003906;0.025391;1.052734;
71139;-0.007812;0.024414;1.049805;
71283;-0.007812;0.028320;1.044922;
71429;-0.005859;0.028320;1.051758;
71579;-0.010742;0.035156;1.041016;
71709;-0.004883;0.029297;1.048828;
71859;-0.004883;0.033203;1.048828;
72009;-0.005859;0.029297;1.050781;
72149;-0.005859;0.028320;1.047852;
72293;-0.005859;0.022461;1.037109;
72434;-0.008789;0.028320;1.033203;
72559;-0.003906;0.023438;1.032227;
72700;-0.006836;0.027344;1.037109;
72844;-0.007812;0.035156;1.038086;
72989;-0.007812;0.032227;1.041992;
73129;-0.006836;0.035156;1.028320;
73270;-0.011719;0.031250;1.023438;
73413;-0.003906;0.029297;1.032227;
73564;-0.008789;0.027344;1.031250;
73703;-0.007812;0.023438;1.033203;
73839;-0.004883;0.028320;1.040039;
73969;-0.009766;0.024414;1.017578;
74114;-0.007812;0.024414;1.000000;
74253;-0.010742;0.021484;0.979492;
74394;-0.009766;0.019531;0.964844;
74529;-0.010742;0.021484;0.955078;
74684;-0.012695;0.019531;0.927734;
74824;-0.015625;0.020508;0.935547;
74963;-0.011719;0.027344;0.938477;
75103;-0.015625;0.021484;0.922852;
75240;-0.009766;0.021484;0.945312;
75389;-0.008789;0.019531;0.963867;
75529;-0.009766;0.021484;0.982422;
75660;-0.013672;0.015625;1.011719;
75794;-0.009766;0.020508;1.036133;
75934;-0.007812;0.016602;1.051758;
76061;-0.004883;0.018555;1.080078;
76199;-0.006836;0.016602;1.105469;
76349;0.000000;0.016602;1.137695;
76479;-0.001953;0.021484;1.153320;
76619;0.001953;0.015625;1.160156;
76769;-0.002930;0.017578;1.166992;
76910;0.000977;0.018555;1.169922;
77064;-0.001953;0.024414;1.162109;
77203;-0.005859;0.022461;1.136719;
77344;-0.003906;0.027344;1.129883;
77484;-0.005859;0.026367;1.113281;
77624;-0.006836;0.028320;1.091797;
77759;-0.007812;0.024414;1.084961;
77889;-0.004883;0.026367;1.065430;
78034;-0.008789;0.025391;1.056641;
78174;-0.006836;0.028320;1.050781;
78313;-0.010742;0.023438;1.053711;
78464;-0.005859;0.022461;1.049805;
78599;-0.007812;0.025391;1.049805;
78749;-0.007812;0.022461;1.046875;
78889;-0.007812;0.020508;1.042969;
79034;-0.005859;0.024414;1.045898;
79174;-0.007812;0.021484;1.044922;
79299;-0.008789;0.016602;1.043945;
79450;-0.006836;0.021484;1.048828;
79589;-0.005859;0.018555;1.037109;
79732;-0.007812;0.025391;1.037109;
79880;-0.009766;0.019531;1.034180;
80019;-0.008789;0.023438;1.042969;
80169;-0.007812;0.022461;1.036133;
80319;-0.009766;0.024414;1.045898;
80449;-0.010742;0.023438;1.037109;
80604;-0.008789;0.023438;1.042969;
80744;-0.005859;0.023438;1.042969;
80884;-0.005859;0.021484;1.033203;
81023;-0.009766;0.024414;1.046875;
81149;-0.011719;0.027344;1.045898;
81283;-0.006836;0.026367;1.051758;
81433;-0.003906;0.026367;1.047852;
81573;-0.005859;0.023438;1.046875;
81715;-0.010742;0.021484;1.041992;
81864;-0.009766;0.022461;1.033203;
82004;-0.008789;0.021484;1.031250;
82144;-0.009766;0.020508;1.049805;
82284;-0.010742;0.022461;1.041992;
82429;-0.003906;0.015625;1.030273;
82559;-0.007812;0.016602;1.031250;
82709;-0.007812;0.019531;1.036133;
82851;-0.008789;0.022461;1.041992;
82999;-0.009766;0.021484;1.035156;
83149;-0.011719;0.027344;1.051758;
83279;-0.010742;0.026367;1.040039;
83430;-0.007812;0.026367;1.041992;
83579;-0.006836;0.022461;1.031250;
83729;-0.004883;0.024414;1.034180;
83859;-0.008789;0.022461;1.028320;
84004;-0.011719;0.026367;1.031250;
84144;-0.008789;0.023438;1.037109;
84284;-0.007812;0.026367;1.041992;
84419;-0.005859;0.022461;1.028320;
84564;-0.006836;0.027344;1.013672;
84703;-0.008789;0.022461;0.990234;
84844;-0.013672;0.024414;0.968750;
84984;-0.012695;0.022461;0.958008;
85119;-0.012695;0.023438;0.960938;
85249;-0.013672;0.027344;0.941406;
85394;-0.013672;0.024414;0.932617;
85534;-0.015625;0.020508;0.916016;
85669;-0.015625;0.022461;0.916992;
85810;-0.014648;0.028320;0.935547;
85950;-0.016602;0.021484;0.953125;
86099;-0.012695;0.020508;0.981445;
86254;-0.012695;0.024414;1.003906;
86389;-0.012695;0.024414;1.021484;
86519;-0.006836;0.018555;1.044922;
86669;-0.005859;0.023438;1.058594;
86809;-0.005859;0.022461;1.073242;
86949;-0.002930;0.019531;1.072266;
87079;-0.005859;0.023438;1.075195;
87219;-0.004883;0.025391;1.084961;
87374;-0.004883;0.024414;1.086914;
87509;-0.004883;0.026367;1.097656;
87653;-0.003906;0.024414;1.085938;
87794;-0.004883;0.027344;1.072266;
87934;-0.007812;0.026367;1.057617;
88074;-0.006836;0.028320;1.058594;
88200;-0.007812;0.024414;1.044922;
88343;-0.007812;0.025391;1.018555;
88469;-0.009766;0.027344;1.007812;
88614;-0.009766;0.023438;1.003906;
88754;-0.010742;0.029297;0.999023;
88894;-0.010742;0.026367;0.995117;
89029;-0.009766;0.024414;1.003906;
89174;-0.008789;0.025391;1.011719;
89319;-0.006836;0.022461;1.012695;
89473;-0.005859;0.023438;1.023438;
89610;-0.008789;0.020508;1.007812;
89739;-0.012695;0.024414;1.024414;
89889;-0.008789;0.021484;1.034180;
90040;-0.005859;0.022461;1.043945;
90189;-0.006836;0.024414;1.054688;
90329;-0.005859;0.024414;1.065430;
90463;-0.007812;0.022461;1.057617;
90589;-0.007812;0.019531;1.065430;
90739;-0.009766;0.023438;1.072266;
90879;-0.007812;0.025391;1.079102;
91029;-0.008789;0.026367;1.069336;
91184;-0.010742;0.022461;1.077148;
91323;-0.003906;0.018555;1.085938;
91459;-0.002930;0.023438;1.075195;
91604;-0.007812;0.022461;1.074219;
91744;-0.006836;0.022461;1.069336;
91884;-0.006836;0.022461;1.067383;
92019;-0.010742;0.027344;1.068359;
92169;-0.008789;0.022461;1.080078;
92313;-0.005859;0.024414;1.071289;
92454;-0.006836;0.023438;1.069336;
92594;-0.004883;0.017578;1.062500;
92729;-0.007812;0.025391;1.068359;
92874;-0.008789;0.021484;1.058594;
93014;-0.009766;0.021484;1.058594;
93154;-0.006836;0.018555;1.067383;
93289;-0.003906;0.020508;1.065430;
93430;-0.005859;0.018555;1.054688;
93579;-0.005859;0.018555;1.055664;
93729;-0.003906;0.024414;1.058594;
93879;-0.009766;0.024414;1.048828;
94009;-0.007812;0.019531;1.044922;
94154;-0.007812;0.020508;1.038086;
94290;-0.011719;0.023438;1.057617;
94430;-0.007812;0.022461;1.043945;
94564;-0.005859;0.018555;1.041016;
94699;-0.008789;0.023438;1.024414;
94830;-0.007812;0.023438;1.033203;
94969;-0.008789;0.022461;1.033203;
95124;-0.007812;0.023438;1.023438;
95263;-0.007812;0.022461;1.015625;
95399;-0.006836;0.021484;1.016602;
95554;-0.011719;0.021484;1.013672;
95694;-0.007812;0.022461;1.016602;
95834;-0.009766;0.022461;1.014648;
95970;-0.008789;0.026367;1.007812;
96114;-0.011719;0.023438;1.012695;
96253;-0.005859;0.023438;1.021484;
96393;-0.004883;0.024414;1.025391;
96534;-0.006836;0.027344;1.016602;
96669;-0.008789;0.025391;1.014648;
96814;-0.010742;0.025391;1.026367;
96953;-0.012695;0.026367;1.023438;
97089;-0.005859;0.023438;1.024414;
97229;-0.006836;0.024414;1.028320;
97369;-0.004883;0.019531;1.013672;
97509;-0.006836;0.020508;1.018555;
97649;-0.011719;0.022461;1.018555;
97789;-0.010742;0.026367;1.006836;
97924;-0.005859;0.023438;1.012695;
98069;-0.006836;0.026367;1.014648;
98219;-0.007812;0.031250;1.016602;
98369;-0.006836;0.027344;1.006836;
98519;-0.009766;0.031250;1.014648;
98663;-0.010742;0.023438;1.026367;
98804;-0.013672;0.020508;1.027344;
98943;-0.010742;0.022461;1.033203;
99079;-0.006836;0.024414;1.031250;
99214;-0.005859;0.018555;1.021484;
99351;-0.004883;0.018555;1.008789;
99489;-0.011719;0.022461;0.998047;
99643;-0.013672;0.020508;0.976562;
99784;-0.012695;0.020508;0.959961;
99924;-0.013672;0.016602;0.957031;
100059;-0.011719;0.020508;0.947266;
100209;-0.006836;0.020508;0.937500;
100364;-0.010742;0.019531;0.934570;
100500;-0.010742;0.023438;0.918945;
100649;-0.007812;0.021484;0.916016;
100789;-0.014648;0.023438;0.917969;
100930;-0.016602;0.021484;0.906250;
101079;-0.012695;0.024414;0.915039;
101229;-0.010742;0.019531;0.910156;
101379;-0.015625;0.023438;0.918945;
101529;-0.011719;0.021484;0.918945;
101669;-0.006836;0.023438;0.918945;
101809;-0.011719;0.019531;0.916992;
101950;-0.010742;0.023438;0.918945;
102094;-0.013672;0.021484;0.928711;
102234;-0.012695;0.021484;0.933594;
102373;-0.013672;0.021484;0.932617;
102514;-0.006836;0.021484;0.933594;
102654;-0.006836;0.019531;0.940430;
102794;-0.008789;0.022461;0.937500;
102944;-0.009766;0.026367;0.939453;
103084;-0.014648;0.024414;0.932617;
103220;-0.013672;0.025391;0.930664;
103353;-0.010742;0.027344;0.936523;
103494;-0.012695;0.021484;0.929688;
103633;-0.009766;0.021484;0.915039;
103774;-0.011719;0.020508;0.917969;
103909;-0.014648;0.017578;0.915039;
104059;-0.012695;0.020508;0.915039;
104189;-0.012695;0.017578;0.915039;
104334;-0.009766;0.019531;0.918945;
104474;-0.008789;0.016602;0.921875;
104609;-0.008789;0.021484;0.924805;
104749;-0.009766;0.019531;0.914062;
104899;-0.011719;0.017578;0.911133;
105039;-0.009766;0.022461;0.935547;
105189;-0.009766;0.021484;0.926758;
105339;-0.011719;0.016602;0.934570;
105479;-0.003906;0.021484;0.932617;
105629;-0.002930;0.016602;0.927734;
105761;-0.005859;0.023438;0.945312;
105889;-0.004883;0.023438;0.933594;
106034;-0.003906;0.020508;0.939453;
106174;-0.000977;0.020508;0.951172;
106314;-0.004883;0.026367;0.957031;
106454;-0.000977;0.022461;1.009766;
106594;0.004883;0.017578;1.028320;
106734;0.010742;0.018555;1.047852;
106873;0.009766;0.016602;1.080078;
107014;0.018555;0.016602;1.078125;
107164;0.018555;0.017578;1.102539;
107304;0.024414;0.025391;1.135742;
107444;0.028320;0.020508;1.154297;
107580;0.038086;0.017578;1.178711;
107729;0.041016;0.020508;1.217773;
107879;0.041992;0.018555;1.232422;
108021;0.045898;0.023438;1.248047;
108159;0.053711;0.021484;1.278320;
108290;0.053711;0.027344;1.298828;
108444;0.060547;0.022461;1.326172;
108583;0.065430;0.020508;1.315430;
108724;0.071289;0.020508;1.351562;
108874;0.076172;0.029297;1.356445;
109013;0.081055;0.024414;1.359375;
109154;0.083984;0.022461;1.359375;
109294;0.089844;0.023438;1.351562;
109433;0.093750;0.029297;1.355469;
109574;0.101562;0.025391;1.334961;
109714;0.105469;0.021484;1.319336;
109854;0.113281;0.018555;1.326172;
109994;0.116211;0.017578;1.278320;
110134;0.111328;0.015625;1.263672;
110273;0.107422;0.021484;1.238281;
110409;0.110352;0.021484;1.200195;
110549;0.107422;0.017578;1.142578;
110700;0.108398;0.021484;1.107422;
110839;0.105469;0.025391;1.049805;
110979;0.101562;0.023438;0.999023;
111119;0.099609;0.024414;0.978516;
111269;0.100586;0.025391;0.957031;
111419;0.097656;0.030273;0.916992;
111563;0.094727;0.030273;0.918945;
111704;0.095703;0.030273;0.920898;
111844;0.091797;0.029297;0.890625;
111984;0.091797;0.025391;0.878906;
112124;0.090820;0.027344;0.889648;
112264;0.088867;0.026367;0.887695;
112404;0.090820;0.024414;0.890625;
112543;0.092773;0.030273;0.867188;
112684;0.091797;0.025391;0.858398;
112823;0.089844;0.029297;0.853516;
112964;0.089844;0.029297;0.827148;
113103;0.089844;0.029297;0.826172;
113244;0.089844;0.031250;0.842773;
113384;0.086914;0.028320;0.833984;
113531;0.087891;0.028320;0.813477;
113679;0.091797;0.026367;0.814453;
113819;0.086914;0.023438;0.826172;
113960;0.091797;0.028320;0.839844;
114100;0.089844;0.031250;0.866211;
114239;0.089844;0.027344;0.889648;
114379;0.089844;0.031250;0.925781;
114529;0.091797;0.028320;0.958008;
114671;0.090820;0.030273;0.995117;
114804;0.093750;0.023438;1.028320;
114943;0.097656;0.024414;1.047852;
115084;0.096680;0.026367;1.043945;
115224;0.096680;0.026367;1.033203;
115364;0.094727;0.016602;1.031250;
115514;0.093750;0.014648;1.032227;
115654;0.090820;0.021484;1.036133;
115794;0.092773;0.021484;1.041992;
115934;0.093750;0.017578;1.043945;
116073;0.091797;0.022461;1.032227;
116214;0.090820;0.018555;1.014648;
116353;0.088867;0.024414;1.037109;
116494;0.085938;0.022461;1.039062;
116634;0.092773;0.024414;1.079102;
116769;0.089844;0.026367;1.081055;
116909;0.091797;0.030273;1.087891;
117044;0.088867;0.022461;1.075195;
117180;0.092773;0.020508;1.088867;
117319;0.093750;0.017578;1.107422;
117469;0.092773;0.023438;1.119141;
117619;0.092773;0.023438;1.114258;
117749;0.088867;0.024414;1.123047;
117904;0.091797;0.028320;1.101562;
118043;0.088867;0.020508;1.090820;
118184;0.087891;0.024414;1.096680;
118324;0.091797;0.028320;1.106445;
118463;0.087891;0.026367;1.089844;
118604;0.090820;0.018555;1.070312;
118743;0.087891;0.019531;1.047852;
118884;0.086914;0.010742;1.039062;
119024;0.085938;0.022461;1.053711;
119163;0.088867;0.016602;1.028320;
119304;0.083984;0.021484;1.030273;
119453;0.082031;0.021484;1.011719;
119594;0.082031;0.025391;1.020508;
119734;0.082031;0.029297;1.038086;
119879;0.085938;0.028320;1.041992;
120009;0.084961;0.031250;1.049805;
120159;0.083008;0.019531;1.042969;
120310;0.083984;0.025391;1.045898;
120459;0.087891;0.025391;1.061523;
120609;0.083984;0.023438;1.083984;
120754;0.085938;0.028320;1.102539;
120894;0.084961;0.034180;1.101562;
121044;0.084961;0.026367;1.097656;
121183;0.081055;0.021484;1.075195;
121324;0.083008;0.027344;1.072266;
121473;0.083008;0.035156;1.123047;
121614;0.083008;0.026367;1.103516;
121754;0.078125;0.027344;1.118164;
121894;0.086914;0.021484;1.199219;
122033;0.082031;0.010742;1.285156;
122174;0.091797;0.014648;1.403320;
122324;0.104492;0.014648;1.564453;
122464;0.101562;0.016602;1.630859;
122604;0.114258;0.012695;1.715820;
122739;0.125000;0.012695;1.796875;
122869;0.127930;0.009766;1.866211;
123009;0.134766;0.018555;1.919922;
123159;0.136719;0.012695;1.974609;
123301;0.131836;0.023438;1.984375;
123433;0.135742;0.020508;2.003906;
123563;0.135742;0.025391;2.013672;
123699;0.132812;0.019531;1.996094;
123840;0.131836;0.017578;1.934570;
123984;0.132812;0.004883;1.913086;
124124;0.125000;0.017578;1.859375;
124264;0.125977;0.009766;1.817383;
124404;0.130859;0.018555;1.806641;
124543;0.121094;0.014648;1.770508;
124684;0.125977;0.025391;1.771484;
124823;0.121094;0.018555;1.789062;
124963;0.125000;0.021484;1.790039;
125104;0.124023;0.019531;1.796875;
125254;0.125000;0.012695;1.805664;
125394;0.123047;0.011719;1.830078;
125543;0.131836;0.006836;1.836914;
125684;0.127930;0.018555;1.844727;
125823;0.128906;0.016602;1.838867;
125960;0.132812;0.013672;1.835938;
126090;0.128906;0.008789;1.811523;
126239;0.129883;0.010742;1.816406;
126384;0.129883;0.011719;1.798828;
126531;0.125977;0.014648;1.804688;
126660;0.130859;0.021484;1.806641;
126800;0.125977;0.017578;1.791992;
126944;0.128906;0.015625;1.782227;
127094;0.131836;0.019531;1.804688;
127233;0.129883;0.023438;1.828125;
127374;0.130859;0.023438;1.836914;
127523;0.133789;0.021484;1.850586;
127664;0.137695;0.023438;1.881836;
127804;0.136719;0.020508;1.875977;
127943;0.139648;0.025391;1.893555;
128084;0.136719;0.021484;1.907227;
128224;0.138672;0.019531;1.902344;
128364;0.137695;0.023438;1.909180;
128503;0.141602;0.016602;1.905273;
128644;0.137695;0.017578;1.887695;
128784;0.138672;0.020508;1.881836;
128919;0.141602;0.014648;1.868164;
129059;0.138672;0.016602;1.862305;
129190;0.139648;0.013672;1.853516;
129320;0.138672;0.007812;1.836914;
129469;0.136719;0.000000;1.842773;
129609;0.135742;-0.006836;1.832031;
129749;0.138672;0.000000;1.817383;
129894;0.141602;-0.000977;1.836914;
130034;0.142578;0.003906;1.816406;
130174;0.141602;0.005859;1.808594;
130313;0.139648;0.007812;1.825195;
130453;0.140625;0.002930;1.826172;
130593;0.143555;0.013672;1.830078;
130734;0.143555;0.009766;1.841797;
130873;0.144531;0.001953;1.833984;
131014;0.143555;-0.003906;1.828125;
131153;0.147461;0.014648;1.835938;
131294;0.140625;0.012695;1.842773;
131433;0.145508;0.008789;1.844727;
131573;0.150391;0.013672;1.854492;
131714;0.146484;0.024414;1.847656;
131859;0.144531;0.018555;1.837891;
131999;0.144531;0.017578;1.836914;
132133;0.150391;0.013672;1.845703;
132269;0.147461;0.017578;1.831055;
132419;0.152344;0.014648;1.825195;
132569;0.146484;0.025391;1.797852;
132709;0.148438;0.029297;1.785156;
132849;0.151367;0.027344;1.778320;
132993;0.152344;0.026367;1.774414;
133143;0.152344;0.023438;1.774414;
133284;0.154297;0.017578;1.779297;
133423;0.153320;0.015625;1.785156;
133563;0.156250;0.012695;1.799805;
133704;0.154297;0.008789;1.771484;
133853;0.161133;0.009766;1.774414;
133993;0.158203;0.012695;1.793945;
134133;0.160156;0.005859;1.807617;
134274;0.170898;0.006836;1.800781;
134414;0.168945;0.009766;1.821289;
134564;0.167969;0.009766;1.819336;
134704;0.172852;0.010742;1.821289;
134844;0.168945;0.017578;1.833008;
134989;0.171875;0.025391;1.840820;
135129;0.174805;0.026367;1.844727;
135279;0.174805;0.032227;1.827148;
135429;0.176758;0.029297;1.848633;
135569;0.172852;0.027344;1.829102;
135710;0.178711;0.029297;1.842773;
135854;0.181641;0.032227;1.853516;
135994;0.178711;0.019531;1.824219;
136134;0.180664;0.030273;1.843750;
136273;0.182617;0.023438;1.836914;
136414;0.181641;0.020508;1.816406;
136554;0.186523;0.020508;1.799805;
136693;0.184570;0.018555;1.806641;
136834;0.182617;0.011719;1.782227;
136983;0.185547;0.015625;1.780273;
137124;0.185547;0.015625;1.774414;
137264;0.187500;0.021484;1.784180;
137403;0.187500;0.016602;1.763672;
137544;0.189453;0.016602;1.780273;
137693;0.191406;0.019531;1.778320;
137829;0.192383;0.019531;1.785156;
137979;0.196289;0.016602;1.781250;
138119;0.197266;0.019531;1.791992;
138269;0.200195;0.020508;1.805664;
138423;0.199219;0.022461;1.817383;
138563;0.203125;0.020508;1.819336;
138689;0.199219;0.020508;1.814453;
138830;0.201172;0.016602;1.810547;
138970;0.207031;0.014648;1.810547;
139114;0.208984;0.006836;1.827148;
139253;0.208984;0.006836;1.835938;
139394;0.214844;-0.004883;1.791992;
139533;0.211914;-0.011719;1.738281;
139673;0.213867;-0.007812;1.734375;
139814;0.213867;0.000977;1.756836;
139954;0.214844;-0.018555;1.765625;
140094;0.215820;0.004883;1.771484;
140244;0.208984;0.001953;1.749023;
140384;0.207031;0.000977;1.749023;
140524;0.202148;0.012695;1.756836;
140663;0.194336;0.018555;1.729492;
140804;0.189453;0.025391;1.727539;
140943;0.178711;0.025391;1.688477;
141079;0.173828;0.020508;1.691406;
141209;0.165039;0.025391;1.660156;
141359;0.159180;0.020508;1.635742;
141499;0.150391;0.028320;1.621094;
141649;0.143555;0.032227;1.600586;
141794;0.140625;0.035156;1.559570;
141919;0.127930;0.041016;1.483398;
142069;0.115234;0.039062;1.411133;
142204;0.099609;0.044922;1.318359;
142344;0.092773;0.038086;1.243164;
142484;0.073242;0.032227;1.129883;
142624;0.059570;0.030273;1.023438;
142764;0.045898;0.028320;0.888672;
142900;0.037109;0.024414;0.809570;
143044;0.028320;0.024414;0.681641;
143184;0.019531;0.022461;0.598633;
143324;0.015625;0.023438;0.487305;
143463;0.010742;0.030273;0.408203;
143603;0.002930;0.031250;0.288086;
143744;0.002930;0.027344;0.211914;
143884;0.006836;0.025391;0.180664;
144024;0.002930;0.028320;0.118164;
144159;0.003906;0.032227;0.079102;
144309;0.001953;0.030273;0.033203;
144439;0.002930;0.027344;0.022461;
144581;-0.001953;0.030273;-0.003906;
144719;0.008789;0.029297;0.012695;
144870;0.002930;0.029297;-0.022461;
145009;0.000000;0.028320;-0.024414;
145139;0.000000;0.033203;-0.023438;
145294;0.000977;0.031250;-0.040039;
145434;-0.000977;0.036133;-0.024414;
145584;-0.003906;0.025391;-0.039062;
145724;-0.000977;0.029297;-0.027344;
145864;-0.001953;0.028320;-0.019531;
146004;-0.003906;0.022461;-0.019531;
146145;-0.008789;0.022461;-0.024414;
146294;-0.005859;0.026367;-0.011719;
146443;-0.006836;0.024414;-0.004883;
146583;-0.004883;0.020508;0.014648;
146724;-0.002930;0.022461;0.027344;
146863;-0.003906;0.021484;0.022461;
147004;-0.009766;0.021484;0.035156;
147143;-0.006836;0.022461;0.049805;
147280;-0.009766;0.023438;0.041016;
147419;-0.006836;0.024414;0.057617;
147561;-0.010742;0.023438;0.059570;
147690;-0.008789;0.024414;0.053711;
147839;-0.009766;0.027344;0.057617;
147980;-0.008789;0.031250;0.052734;
148130;-0.015625;0.030273;0.041992;
148279;-0.011719;0.032227;0.039062;
148429;-0.012695;0.030273;0.041016;
148569;-0.016602;0.032227;0.029297;
148714;-0.014648;0.030273;0.053711;
148849;-0.010742;0.031250;0.047852;
149004;-0.013672;0.031250;0.043945;
149143;-0.013672;0.029297;0.046875;
149284;-0.013672;0.033203;0.043945;
149433;-0.010742;0.031250;0.033203;
149584;-0.012695;0.031250;0.017578;
149724;-0.010742;0.025391;0.022461;
149863;-0.010742;0.027344;0.022461;
149999;-0.010742;0.024414;0.018555;
150144;-0.011719;0.026367;0.013672;
150284;-0.014648;0.024414;0.012695;
150433;-0.017578;0.026367;0.003906;
150575;-0.014648;0.021484;0.006836;
150709;-0.013672;0.024414;0.007812;
150849;-0.012695;0.022461;0.005859;
150989;-0.011719;0.023438;0.015625;
151139;-0.014648;0.023438;0.000000;
151269;-0.013672;0.023438;0.007812;
151399;-0.016602;0.029297;0.008789;
151544;-0.015625;0.028320;0.009766;
151694;-0.015625;0.027344;0.018555;
151834;-0.014648;0.026367;0.017578;
151974;-0.014648;0.026367;0.019531;
152114;-0.013672;0.028320;0.011719;
152253;-0.018555;0.028320;0.018555;
152394;-0.015625;0.028320;0.023438;
152544;-0.012695;0.024414;0.026367;
152684;-0.018555;0.027344;0.018555;
152824;-0.017578;0.030273;0.023438;
152964;-0.015625;0.027344;0.029297;
153104;-0.017578;0.026367;0.021484;
153254;-0.015625;0.027344;0.022461;
153394;-0.014648;0.027344;0.029297;
153529;-0.014648;0.027344;0.018555;
153669;-0.014648;0.025391;0.023438;
153799;-0.015625;0.024414;0.023438;
153949;-0.017578;0.025391;0.021484;
154090;-0.013672;0.023438;0.024414;
154239;-0.018555;0.024414;0.019531;
154379;-0.015625;0.024414;0.027344;
154530;-0.012695;0.028320;0.031250;
154684;-0.022461;0.025391;0.034180;
154824;-0.017578;0.026367;0.008789;
154964;-0.016602;0.029297;0.020508;
155114;-0.017578;0.026367;0.009766;
155254;-0.016602;0.024414;0.013672;
155394;-0.020508;0.027344;0.018555;
155534;-0.016602;0.024414;0.017578;
155674;-0.017578;0.028320;0.015625;
155813;-0.018555;0.025391;0.008789;
155950;-0.019531;0.023438;0.009766;
156104;-0.020508;0.026367;0.000977;
156243;-0.016602;0.024414;0.009766;
156394;-0.018555;0.027344;0.019531;
156529;-0.019531;0.024414;0.002930;
156669;-0.018555;0.026367;0.008789;
156819;-0.017578;0.026367;0.009766;
156959;-0.018555;0.028320;0.005859;
157109;-0.020508;0.025391;0.008789;
157249;-0.020508;0.026367;0.005859;
157389;-0.020508;0.025391;0.013672;
157524;-0.016602;0.026367;0.018555;
157659;-0.018555;0.026367;0.017578;
157799;-0.020508;0.026367;0.015625;
157954;-0.020508;0.024414;0.019531;
158094;-0.019531;0.029297;0.020508;
158234;-0.022461;0.027344;0.010742;
158369;-0.020508;0.026367;0.024414;
158514;-0.019531;0.026367;0.019531;
158654;-0.021484;0.025391;0.026367;
158794;-0.021484;0.027344;0.015625;
158934;-0.022461;0.028320;0.017578;
159073;-0.020508;0.029297;0.024414;
159214;-0.021484;0.026367;0.013672;
159354;-0.020508;0.027344;0.016602;
159494;-0.023438;0.027344;0.013672;
159634;-0.023438;0.026367;0.009766;
159774;-0.023438;0.028320;0.014648;
159909;-0.023438;0.028320;0.012695;
160049;-0.023438;0.027344;0.008789;
160200;-0.024414;0.027344;0.007812;
160344;-0.023438;0.029297;0.008789;
160490;-0.024414;0.027344;0.007812;
160629;-0.025391;0.029297;0.013672;
160769;-0.023438;0.028320;0.012695;
160923;-0.024414;0.028320;0.012695;
161063;-0.025391;0.029297;0.003906;
161204;-0.024414;0.030273;0.003906;
161344;-0.023438;0.031250;0.017578;
161484;-0.029297;0.030273;0.000000;
161624;-0.025391;0.029297;0.007812;
161764;-0.026367;0.031250;0.009766;
161915;-0.025391;0.030273;0.013672;
162054;-0.029297;0.033203;0.009766;
162193;-0.026367;0.030273;0.004883;
162333;-0.028320;0.031250;0.008789;
162473;-0.027344;0.028320;0.012695;
162619;-0.028320;0.026367;0.015625;
162764;-0.028320;0.028320;0.025391;
162899;-0.029297;0.022461;0.027344;
163049;-0.030273;0.023438;0.026367;
163189;-0.029297;0.022461;0.030273;
163339;-0.030273;0.024414;0.034180;
163480;-0.030273;0.027344;0.037109;
163629;-0.030273;0.025391;0.034180;
163779;-0.030273;0.025391;0.037109;
163914;-0.030273;0.023438;0.041992;
164054;-0.031250;0.027344;0.044922;
164194;-0.033203;0.025391;0.044922;
164333;-0.031250;0.026367;0.044922;
164459;-0.033203;0.027344;0.038086;
164614;-0.035156;0.027344;0.035156;
164763;-0.033203;0.025391;0.038086;
164904;-0.032227;0.023438;0.039062;
165039;-0.032227;0.026367;0.039062;
165184;-0.034180;0.029297;0.033203;
165324;-0.033203;0.032227;0.027344;
165464;-0.036133;0.029297;0.013672;
165604;-0.034180;0.034180;0.002930;
165740;-0.035156;0.032227;-0.006836;
165889;-0.036133;0.030273;-0.017578;
166040;-0.038086;0.030273;-0.031250;
166179;-0.035156;0.026367;-0.039062;
166319;-0.038086;0.028320;-0.051758;
166453;-0.036133;0.028320;-0.061523;
166589;-0.039062;0.023438;-0.062500;
166729;-0.038086;0.023438;-0.054688;
166879;-0.041016;0.025391;-0.072266;
167023;-0.044922;0.026367;-0.053711;
167164;-0.047852;0.020508;-0.027344;
167303;-0.050781;0.019531;0.038086;
167444;-0.048828;0.020508;0.134766;
167593;-0.051758;0.021484;0.227539;
167734;-0.043945;0.022461;0.363281;
167874;-0.038086;0.021484;0.476562;
168014;-0.034180;0.023438;0.598633;
168154;-0.023438;0.024414;0.677734;
168294;-0.019531;0.013672;0.821289;
168443;-0.004883;0.019531;0.945312;
168583;0.004883;0.020508;1.038086;
168724;0.009766;0.020508;1.152344;
168864;0.013672;0.023438;1.221680;
168999;0.021484;0.025391;1.300781;
169153;0.026367;0.030273;1.339844;
169289;0.036133;0.030273;1.407227;
169429;0.041992;0.035156;1.457031;
169579;0.048828;0.032227;1.495117;
169730;0.052734;0.026367;1.521484;
169883;0.055664;0.019531;1.531250;
170024;0.051758;0.015625;1.530273;
170163;0.054688;0.018555;1.554688;
170303;0.048828;0.023438;1.564453;
170444;0.048828;0.033203;1.580078;
170584;0.046875;0.033203;1.585938;
170724;0.042969;0.023438;1.597656;
170874;0.046875;0.022461;1.618164;
171013;0.043945;0.025391;1.632812;
171154;0.048828;0.025391;1.674805;
171294;0.051758;0.021484;1.687500;
171433;0.048828;0.020508;1.709961;
171574;0.048828;0.029297;1.731445;
171713;0.045898;0.050781;1.768555;
171854;0.050781;0.062500;1.789062;
172003;0.049805;0.065430;1.807617;
172139;0.048828;0.056641;1.823242;
172289;0.042969;0.052734;1.833984;
172439;0.047852;0.034180;1.826172;
172580;0.046875;0.030273;1.811523;
172719;0.045898;0.027344;1.822266;
172859;0.041992;0.017578;1.814453;
173014;0.041992;0.015625;1.831055;
173164;0.040039;0.019531;1.832031;
173303;0.042969;0.019531;1.858398;
173444;0.040039;0.015625;1.866211;
173584;0.042969;0.012695;1.877930;
173724;0.042969;0.012695;1.878906;
173864;0.041016;0.009766;1.889648;
174004;0.038086;0.008789;1.882812;
174144;0.034180;0.012695;1.862305;
174284;0.028320;0.015625;1.833008;
174423;0.023438;0.019531;1.819336;
174563;0.016602;0.021484;1.792969;
174703;0.014648;0.018555;1.782227;
174844;0.013672;0.018555;1.784180;
174990;0.015625;0.020508;1.791016;
175129;0.013672;0.019531;1.824219;
175279;0.017578;0.018555;1.849609;
175420;0.017578;0.019531;1.878906;
175559;0.020508;0.023438;1.913086;
175699;0.021484;0.024414;1.934570;
175853;0.022461;0.020508;1.969727;
175989;0.023438;0.022461;1.988281;
176143;0.025391;0.019531;2.021484;
176283;0.028320;0.022461;2.056641;
176424;0.028320;0.016602;2.046875;
176564;0.027344;0.023438;2.049805;
176704;0.024414;0.016602;2.045898;
176844;0.021484;0.016602;2.019531;
176984;0.019531;0.013672;2.001953;
177124;0.016602;0.008789;1.963867;
177264;0.008789;0.009766;1.938477;
177404;0.004883;0.011719;1.900391;
177544;0.001953;0.016602;1.884766;
177683;-0.000977;0.017578;1.869141;
177823;-0.001953;0.015625;1.859375;
177964;-0.004883;0.018555;1.864258;
178104;-0.008789;0.023438;1.858398;
178239;-0.007812;0.020508;1.861328;
178369;-0.008789;0.019531;1.868164;
178519;-0.003906;0.023438;1.880859;
178659;-0.008789;0.020508;1.900391;
178809;-0.006836;0.024414;1.913086;
178959;-0.007812;0.020508;1.920898;
179109;-0.007812;0.020508;1.936523;
179264;-0.006836;0.020508;1.958008;
179404;-0.005859;0.025391;1.973633;
179544;-0.004883;0.031250;1.980469;
179684;-0.005859;0.029297;1.995117;
179823;-0.005859;0.031250;2.000977;
179964;-0.006836;0.025391;2.015625;
180104;-0.004883;0.021484;2.007812;
180244;-0.003906;0.023438;2.015625;
180383;-0.007812;0.018555;2.000000;
180524;-0.007812;0.016602;1.982422;
180664;-0.009766;0.016602;1.968750;
180803;-0.012695;0.012695;1.957031;
180944;-0.012695;0.015625;1.948242;
181084;-0.013672;0.012695;1.926758;
181219;-0.016602;0.014648;1.928711;
181369;-0.019531;0.012695;1.913086;
181511;-0.018555;0.012695;1.903320;
181650;-0.017578;0.014648;1.897461;
181799;-0.022461;0.024414;1.902344;
181939;-0.025391;0.021484;1.893555;
182070;-0.025391;0.019531;1.884766;
182213;-0.026367;0.017578;1.893555;
182350;-0.026367;0.020508;1.884766;
182490;-0.024414;0.019531;1.892578;
182634;-0.025391;0.019531;1.892578;
182784;-0.023438;0.016602;1.902344;
182924;-0.022461;0.017578;1.903320;
183064;-0.023438;0.015625;1.910156;
183204;-0.024414;0.020508;1.917969;
183344;-0.024414;0.018555;1.918945;
183484;-0.024414;0.016602;1.923828;
183623;-0.024414;0.018555;1.936523;
183764;-0.024414;0.013672;1.924805;
183913;-0.026367;0.015625;1.915039;
184054;-0.023438;0.011719;1.926758;
184194;-0.023438;0.017578;1.938477;
184334;-0.022461;0.017578;1.935547;
184474;-0.022461;0.014648;1.926758;
184609;-0.025391;0.017578;1.930664;
184739;-0.020508;0.018555;1.929688;
184889;-0.020508;0.010742;1.924805;
185024;-0.022461;0.015625;1.925781;
185164;-0.024414;0.019531;1.924805;
185303;-0.024414;0.015625;1.915039;
185444;-0.024414;0.015625;1.918945;
185590;-0.024414;0.015625;1.913086;
185739;-0.024414;0.014648;1.906250;
185879;-0.027344;0.021484;1.903320;
186019;-0.027344;0.016602;1.883789;
186163;-0.026367;0.017578;1.877930;
186304;-0.028320;0.020508;1.864258;
186453;-0.028320;0.024414;1.849609;
186594;-0.029297;0.021484;1.826172;
186734;-0.031250;0.023438;1.809570;
186883;-0.031250;0.019531;1.786133;
187023;-0.035156;0.016602;1.758789;
187173;-0.037109;0.018555;1.739258;
187314;-0.039062;0.018555;1.718750;
187453;-0.041016;0.019531;1.701172;
187604;-0.041992;0.019531;1.679688;
187744;-0.041992;0.016602;1.663086;
187884;-0.039062;0.018555;1.660156;
188035;-0.043945;0.016602;1.650391;
188179;-0.044922;0.015625;1.638672;
188329;-0.042969;0.020508;1.631836;
188479;-0.046875;0.017578;1.625000;
188629;-0.048828;0.018555;1.622070;
188779;-0.045898;0.018555;1.630859;
188934;-0.043945;0.019531;1.628906;
189074;-0.041016;0.015625;1.634766;
189224;-0.041992;0.016602;1.627930;
189364;-0.044922;0.011719;1.641602;
189504;-0.038086;0.010742;1.636719;
189644;-0.041016;0.009766;1.633789;
189784;-0.038086;0.014648;1.643555;
189924;-0.039062;0.013672;1.640625;
190064;-0.038086;0.011719;1.647461;
190204;-0.037109;0.017578;1.656250;
190343;-0.037109;0.020508;1.637695;
190484;-0.038086;0.015625;1.634766;
190623;-0.038086;0.020508;1.627930;
190763;-0.035156;0.019531;1.635742;
190899;-0.039062;0.018555;1.625000;
191039;-0.039062;0.025391;1.614258;
191194;-0.040039;0.021484;1.590820;
191329;-0.040039;0.025391;1.591797;
191469;-0.040039;0.026367;1.568359;
191620;-0.039062;0.023438;1.554688;
191769;-0.040039;0.022461;1.531250;
191914;-0.042969;0.023438;1.512695;
192063;-0.042969;0.019531;1.477539;
192204;-0.044922;0.023438;1.472656;
192344;-0.044922;0.020508;1.461914;
192484;-0.043945;0.023438;1.446289;
192624;-0.047852;0.021484;1.433594;
192764;-0.046875;0.027344;1.431641;
192904;-0.046875;0.019531;1.420898;
193054;-0.045898;0.023438;1.411133;
193194;-0.045898;0.023438;1.403320;
193333;-0.048828;0.021484;1.387695;
193483;-0.046875;0.017578;1.378906;
193623;-0.048828;0.020508;1.385742;
193763;-0.047852;0.019531;1.368164;
193889;-0.045898;0.023438;1.362305;
194029;-0.046875;0.020508;1.355469;
194169;-0.046875;0.020508;1.344727;
194319;-0.045898;0.023438;1.341797;
194460;-0.048828;0.023438;1.324219;
194609;-0.047852;0.016602;1.316406;
194759;-0.047852;0.020508;1.315430;
194914;-0.047852;0.023438;1.313477;
195054;-0.046875;0.021484;1.306641;
195204;-0.044922;0.026367;1.291992;
195343;-0.049805;0.020508;1.268555;
195484;-0.049805;0.028320;1.256836;
195634;-0.048828;0.025391;1.231445;
195774;-0.048828;0.026367;1.227539;
195914;-0.048828;0.029297;1.219727;
196064;-0.046875;0.025391;1.218750;
196204;-0.050781;0.018555;1.210938;
196344;-0.050781;0.015625;1.190430;
196484;-0.046875;0.009766;1.169922;
196624;-0.050781;0.019531;1.153320;
196763;-0.050781;0.013672;1.147461;
196909;-0.049805;0.021484;1.143555;
197059;-0.051758;0.016602;1.118164;
197199;-0.051758;0.020508;1.092773;
197349;-0.051758;0.017578;1.079102;
197489;-0.057617;0.023438;1.068359;
197634;-0.058594;0.018555;1.043945;
197773;-0.050781;0.022461;1.059570;
197914;-0.055664;0.021484;1.052734;
198054;-0.054688;0.030273;1.057617;
198193;-0.053711;0.023438;1.065430;
198333;-0.053711;0.029297;1.082031;
198474;-0.050781;0.023438;1.104492;
198613;-0.044922;0.021484;1.125000;
198754;-0.044922;0.021484;1.145508;
198893;-0.043945;0.021484;1.169922;
199034;-0.040039;0.021484;1.182617;
199174;-0.037109;0.022461;1.181641;
199314;-0.036133;0.022461;1.201172;
199454;-0.035156;0.020508;1.204102;
199589;-0.036133;0.018555;1.196289;
199729;-0.038086;0.016602;1.172852;
199880;-0.036133;0.017578;1.156250;
200019;-0.040039;0.015625;1.130859;
200169;-0.040039;0.023438;1.110352;
200309;-0.041992;0.023438;1.088867;
200454;-0.042969;0.023438;1.052734;
200594;-0.044922;0.027344;1.030273;
200734;-0.045898;0.029297;1.002930;
200873;-0.043945;0.029297;0.992188;
201014;-0.046875;0.028320;0.968750;
201163;-0.048828;0.028320;0.953125;
201304;-0.046875;0.025391;0.954102;
201443;-0.046875;0.029297;0.941406;
201594;-0.047852;0.028320;0.936523;
201734;-0.043945;0.034180;0.940430;
201874;-0.041992;0.034180;0.944336;
202014;-0.043945;0.031250;0.949219;
202154;-0.040039;0.029297;0.960938;
202294;-0.035156;0.024414;0.966797;
202439;-0.034180;0.022461;0.981445;
202589;-0.033203;0.022461;0.990234;
202729;-0.030273;0.030273;1.013672;
202892;-0.029297;0.025391;1.032227;
203041;-0.022461;0.030273;1.045898;
203189;-0.021484;0.025391;1.059570;
203339;-0.019531;0.029297;1.056641;
203483;-0.016602;0.021484;1.073242;
203623;-0.010742;0.026367;1.090820;
203763;-0.009766;0.027344;1.095703;
203903;-0.001953;0.024414;1.107422;
204054;-0.005859;0.027344;1.093750;
204194;0.004883;0.028320;1.113281;
204334;0.000977;0.025391;1.097656;
204474;0.007812;0.031250;1.074219;
204613;0.007812;0.029297;1.064453;
204754;0.015625;0.029297;1.065430;
204903;0.017578;0.028320;1.063477;
205043;0.026367;0.023438;1.027344;
205184;0.026367;0.022461;1.021484;
205324;0.027344;0.023438;1.007812;
205459;0.035156;0.025391;1.000977;
205601;0.038086;0.032227;0.992188;
205730;0.041992;0.027344;0.992188;
205869;0.046875;0.026367;0.983398;
206019;0.053711;0.026367;0.984375;
206169;0.059570;0.029297;0.959961;
206314;0.063477;0.028320;0.944336;
206464;0.067383;0.027344;0.917969;
206604;0.073242;0.027344;0.891602;
206743;0.074219;0.024414;0.846680;
206894;0.078125;0.021484;0.808594;
207033;0.077148;0.019531;0.772461;
207174;0.083984;0.028320;0.759766;
207324;0.087891;0.023438;0.738281;
207464;0.089844;0.024414;0.710938;
207604;0.092773;0.027344;0.684570;
207754;0.094727;0.024414;0.694336;
207894;0.100586;0.031250;0.669922;
208034;0.100586;0.031250;0.675781;
208173;0.103516;0.032227;0.662109;
208319;0.110352;0.026367;0.648438;
208469;0.110352;0.024414;0.624023;
208609;0.112305;0.024414;0.625000;
208739;0.113281;0.026367;0.651367;
208869;0.113281;0.021484;0.674805;
208999;0.116211;0.021484;0.700195;
209133;0.119141;0.029297;0.725586;
209259;0.122070;0.030273;0.734375;
209404;0.123047;0.024414;0.732422;
209544;0.123047;0.031250;0.760742;
209683;0.121094;0.026367;0.762695;
209824;0.125977;0.019531;0.766602;
209964;0.127930;0.022461;0.756836;
210104;0.125977;0.029297;0.759766;
210244;0.128906;0.025391;0.762695;
210384;0.125000;0.039062;0.753906;
210523;0.126953;0.028320;0.767578;
210663;0.125977;0.027344;0.786133;
210814;0.120117;0.025391;0.779297;
210953;0.122070;0.032227;0.783203;
211094;0.120117;0.026367;0.765625;
211233;0.118164;0.027344;0.741211;
211369;0.120117;0.034180;0.772461;
211524;0.115234;0.027344;0.756836;
211661;0.114258;0.026367;0.771484;
211809;0.113281;0.024414;0.770508;
211949;0.116211;0.022461;0.780273;
212099;0.113281;0.020508;0.794922;
212249;0.117188;0.031250;0.817383;
212404;0.117188;0.026367;0.826172;
212553;0.123047;0.026367;0.847656;
212694;0.121094;0.030273;0.855469;
212844;0.120117;0.027344;0.850586;
212984;0.125000;0.026367;0.874023;
213123;0.124023;0.031250;0.926758;
213264;0.126953;0.029297;0.947266;
213404;0.125977;0.026367;0.945312;
213544;0.124023;0.029297;0.958008;
213684;0.126953;0.032227;0.980469;
213824;0.121094;0.027344;0.979492;
213964;0.119141;0.025391;0.969727;
214113;0.117188;0.027344;0.981445;
214254;0.118164;0.028320;0.965820;
214389;0.117188;0.030273;0.964844;
214529;0.112305;0.026367;0.958984;
214679;0.114258;0.026367;0.954102;
214819;0.110352;0.023438;0.961914;
214961;0.112305;0.023438;0.951172;
215103;0.109375;0.027344;0.970703;
215239;0.109375;0.025391;0.964844;
215379;0.109375;0.028320;0.969727;
215534;0.112305;0.024414;0.986328;
215674;0.113281;0.024414;0.980469;
215813;0.110352;0.028320;0.986328;
215954;0.115234;0.027344;1.010742;
216104;0.116211;0.023438;1.005859;
216244;0.113281;0.022461;1.004883;
216394;0.117188;0.026367;1.017578;
216534;0.117188;0.029297;1.022461;
216673;0.119141;0.025391;1.034180;
216814;0.121094;0.027344;1.037109;
216954;0.118164;0.026367;1.039062;
217094;0.121094;0.025391;1.050781;
217234;0.120117;0.026367;1.041992;
217373;0.119141;0.021484;1.044922;
217510;0.118164;0.026367;1.039062;
217639;0.121094;0.026367;1.043945;
217769;0.124023;0.023438;1.050781;
217909;0.119141;0.024414;1.029297;
218060;0.121094;0.026367;1.026367;
218210;0.116211;0.024414;1.006836;
218349;0.116211;0.022461;0.978516;
218504;0.112305;0.027344;0.973633;
218644;0.111328;0.027344;0.955078;
218784;0.111328;0.026367;0.936523;
218933;0.108398;0.025391;0.916016;
219074;0.109375;0.029297;0.908203;
219214;0.104492;0.027344;0.894531;
219354;0.107422;0.028320;0.891602;
219494;0.099609;0.031250;0.881836;
219634;0.103516;0.025391;0.866211;
219774;0.103516;0.030273;0.872070;
219914;0.101562;0.025391;0.849609;
220054;0.102539;0.028320;0.833984;
220203;0.102539;0.032227;0.843750;
220344;0.100586;0.025391;0.816406;
220479;0.100586;0.026367;0.828125;
220619;0.099609;0.029297;0.814453;
220769;0.101562;0.026367;0.834961;
220919;0.099609;0.027344;0.847656;
221049;0.100586;0.024414;0.834961;
221194;0.100586;0.031250;0.858398;
221339;0.101562;0.029297;0.855469;
221484;0.101562;0.030273;0.866211;
221623;0.102539;0.028320;0.872070;
221764;0.104492;0.027344;0.889648;
221904;0.103516;0.031250;0.899414;
222044;0.107422;0.028320;0.916992;
222184;0.106445;0.028320;0.929688;
222324;0.108398;0.024414;0.938477;
222464;0.109375;0.029297;0.948242;
222604;0.111328;0.026367;0.958984;
222744;0.113281;0.027344;0.975586;
222883;0.111328;0.028320;0.983398;
223024;0.111328;0.022461;0.974609;
223163;0.115234;0.027344;1.000977;
223304;0.116211;0.028320;0.997070;
223444;0.116211;0.025391;1.007812;
223589;0.114258;0.031250;1.009766;
223741;0.113281;0.025391;1.012695;
223869;0.117188;0.030273;1.021484;
223999;0.116211;0.030273;1.013672;
224149;0.116211;0.027344;1.019531;
224300;0.117188;0.031250;1.026367;
224439;0.116211;0.023438;1.019531;
224584;0.112305;0.027344;1.034180;
224733;0.114258;0.029297;1.022461;
224874;0.114258;0.031250;1.024414;
225014;0.112305;0.024414;1.014648;
225154;0.110352;0.029297;1.017578;
225293;0.110352;0.027344;1.018555;
225434;0.104492;0.025391;1.013672;
225584;0.105469;0.026367;1.011719;
225724;0.101562;0.029297;0.998047;
225863;0.102539;0.027344;1.003906;
226003;0.099609;0.027344;0.998047;
226144;0.098633;0.027344;0.981445;
226294;0.096680;0.027344;0.984375;
226433;0.093750;0.028320;0.973633;
226570;0.094727;0.028320;0.969727;
226709;0.092773;0.030273;0.958008;
226861;0.087891;0.028320;0.931641;
227010;0.085938;0.028320;0.913086;
227159;0.084961;0.029297;0.893555;
227304;0.081055;0.029297;0.867188;
227444;0.078125;0.026367;0.838867;
227593;0.077148;0.027344;0.819336;
227734;0.076172;0.027344;0.807617;
227873;0.073242;0.027344;0.791992;
228014;0.071289;0.028320;0.791016;
228153;0.070312;0.030273;0.795898;
228294;0.070312;0.026367;0.792969;
228433;0.070312;0.026367;0.803711;
228574;0.071289;0.029297;0.819336;
228723;0.070312;0.028320;0.855469;
228864;0.075195;0.024414;0.882812;
229004;0.076172;0.029297;0.915039;
229143;0.078125;0.031250;0.935547;
229279;0.077148;0.028320;0.958008;
229419;0.079102;0.028320;0.973633;
229559;0.080078;0.025391;0.989258;
229710;0.081055;0.028320;0.999023;
229859;0.081055;0.031250;1.001953;
229999;0.079102;0.027344;1.000000;
230140;0.080078;0.025391;0.999023;
230293;0.079102;0.024414;0.989258;
230434;0.075195;0.026367;0.988281;
230584;0.072266;0.026367;0.969727;
230723;0.069336;0.028320;0.950195;
230864;0.070312;0.022461;0.941406;
231013;0.065430;0.023438;0.917969;
231154;0.065430;0.029297;0.915039;
231304;0.063477;0.028320;0.900391;
231443;0.061523;0.027344;0.883789;
231584;0.059570;0.027344;0.880859;
231724;0.057617;0.027344;0.874023;
231864;0.056641;0.027344;0.863281;
232004;0.055664;0.028320;0.865234;
232144;0.054688;0.034180;0.864258;
232279;0.051758;0.035156;0.868164;
232414;0.052734;0.030273;0.864258;
232554;0.049805;0.030273;0.871094;
232690;0.053711;0.023438;0.868164;
232829;0.050781;0.029297;0.868164;
232969;0.050781;0.028320;0.872070;
233099;0.047852;0.030273;0.866211;
233239;0.048828;0.028320;0.874023;
233379;0.049805;0.029297;0.882812;
233534;0.046875;0.029297;0.876953;
233674;0.049805;0.025391;0.885742;
233814;0.045898;0.031250;0.883789;
233953;0.047852;0.026367;0.885742;
234094;0.043945;0.030273;0.888672;
234234;0.049805;0.027344;0.884766;
234373;0.045898;0.027344;0.890625;
234513;0.042969;0.030273;0.888672;
234653;0.044922;0.028320;0.878906;
234794;0.043945;0.032227;0.882812;
234934;0.042969;0.029297;0.892578;
235074;0.039062;0.028320;0.886719;
235214;0.041016;0.029297;0.881836;
235353;0.041016;0.029297;0.888672;
235489;0.038086;0.030273;0.891602;
235641;0.036133;0.030273;0.897461;
235789;0.039062;0.031250;0.905273;
235939;0.041016;0.030273;0.910156;
236089;0.041016;0.029297;0.926758;
236239;0.043945;0.025391;0.931641;
236384;0.041992;0.028320;0.953125;
236524;0.042969;0.032227;0.976562;
236673;0.046875;0.027344;0.985352;
236814;0.050781;0.027344;0.999023;
236954;0.050781;0.028320;1.015625;
237094;0.049805;0.024414;1.015625;
237233;0.050781;0.031250;1.041992;
237374;0.050781;0.027344;1.049805;
237514;0.049805;0.030273;1.051758;
237654;0.054688;0.023438;1.057617;
237794;0.052734;0.025391;1.066406;
237934;0.051758;0.027344;1.081055;
238074;0.049805;0.024414;1.071289;
238213;0.047852;0.023438;1.077148;
238354;0.046875;0.025391;1.064453;
238489;0.044922;0.025391;1.062500;
238629;0.044922;0.024414;1.040039;
238759;0.041992;0.025391;1.027344;
238893;0.042969;0.022461;1.011719;
239033;0.039062;0.022461;0.990234;
239170;0.039062;0.025391;0.979492;
239309;0.039062;0.022461;0.966797;
239459;0.039062;0.028320;0.957031;
239599;0.039062;0.027344;0.937500;
239740;0.036133;0.029297;0.929688;
239893;0.037109;0.030273;0.920898;
240033;0.038086;0.029297;0.919922;
240174;0.039062;0.030273;0.913086;
240324;0.040039;0.028320;0.918945;
240463;0.036133;0.028320;0.911133;
240604;0.038086;0.029297;0.907227;
240744;0.036133;0.029297;0.909180;
240884;0.036133;0.027344;0.907227;
241033;0.032227;0.023438;0.894531;
241174;0.034180;0.026367;0.895508;
241314;0.032227;0.027344;0.898438;
241454;0.031250;0.026367;0.896484;
241594;0.034180;0.029297;0.896484;
241734;0.033203;0.028320;0.891602;
241869;0.034180;0.030273;0.913086;
242019;0.033203;0.029297;0.905273;
242169;0.031250;0.029297;0.905273;
242309;0.037109;0.029297;0.916016;
242459;0.031250;0.028320;0.916992;
242600;0.033203;0.025391;0.911133;
242729;0.038086;0.024414;0.912109;
242874;0.039062;0.026367;0.916992;
243023;0.035156;0.027344;0.915039;
243164;0.038086;0.023438;0.919922;
243304;0.029297;0.028320;0.913086;
243444;0.031250;0.028320;0.921875;
243584;0.035156;0.029297;0.924805;
243723;0.035156;0.024414;0.939453;
243864;0.038086;0.027344;0.955078;
244004;0.040039;0.024414;0.985352;
244144;0.041016;0.025391;1.007812;
244283;0.041992;0.025391;1.030273;
244423;0.044922;0.024414;1.056641;
244564;0.049805;0.028320;1.085938;
244703;0.048828;0.028320;1.111328;
244849;0.052734;0.028320;1.125977;
244989;0.053711;0.029297;1.148438;
245141;0.055664;0.031250;1.150391;
245279;0.056641;0.029297;1.159180;
245419;0.057617;0.031250;1.164062;
245569;0.060547;0.031250;1.160156;
245719;0.059570;0.025391;1.162109;
245873;0.060547;0.027344;1.167969;
246013;0.060547;0.022461;1.153320;
246163;0.058594;0.027344;1.162109;
246303;0.057617;0.022461;1.151367;
246444;0.056641;0.022461;1.147461;
246584;0.056641;0.021484;1.149414;
246724;0.055664;0.025391;1.156250;
246864;0.054688;0.024414;1.145508;
247004;0.056641;0.026367;1.154297;
247144;0.056641;0.027344;1.147461;
247293;0.054688;0.026367;1.142578;
247434;0.057617;0.030273;1.147461;
247574;0.056641;0.027344;1.145508;
247713;0.059570;0.026367;1.154297;
247850;0.058594;0.028320;1.154297;
247999;0.057617;0.027344;1.153320;
248129;0.057617;0.030273;1.165039;
248273;0.054688;0.028320;1.158203;
248409;0.056641;0.026367;1.152344;
248539;0.056641;0.025391;1.145508;
248679;0.057617;0.023438;1.142578;
248829;0.055664;0.024414;1.136719;
248969;0.056641;0.025391;1.136719;
249119;0.052734;0.026367;1.139648;
249263;0.054688;0.028320;1.138672;
249404;0.052734;0.022461;1.126953;
249544;0.050781;0.030273;1.127930;
249684;0.053711;0.025391;1.120117;
249834;0.048828;0.027344;1.109375;
249974;0.047852;0.028320;1.105469;
250114;0.049805;0.026367;1.099609;
250264;0.050781;0.021484;1.085938;
250404;0.047852;0.025391;1.074219;
250544;0.048828;0.024414;1.072266;
250683;0.048828;0.026367;1.059570;
250824;0.046875;0.024414;1.048828;
250964;0.043945;0.029297;1.048828;
251104;0.045898;0.025391;1.041016;
251229;0.041992;0.027344;1.019531;
251371;0.040039;0.029297;1.003906;
251510;0.041016;0.028320;0.996094;
251659;0.037109;0.027344;0.988281;
251799;0.038086;0.025391;0.979492;
251939;0.036133;0.025391;0.958008;
252094;0.033203;0.025391;0.950195;
252233;0.034180;0.028320;0.941406;
252374;0.033203;0.032227;0.956055;
252514;0.033203;0.026367;0.951172;
252654;0.031250;0.027344;0.932617;
252794;0.035156;0.027344;0.934570;
252934;0.030273;0.026367;0.928711;
253074;0.034180;0.028320;0.936523;
253214;0.035156;0.030273;0.933594;
253353;0.034180;0.028320;0.942383;
253494;0.037109;0.026367;0.953125;
253634;0.037109;0.026367;0.957031;
253773;0.035156;0.026367;0.968750;
253924;0.034180;0.026367;0.958984;
254059;0.037109;0.030273;0.987305;
254210;0.037109;0.029297;1.001953;
254359;0.041016;0.026367;1.006836;
254499;0.038086;0.027344;1.008789;
254649;0.038086;0.026367;1.019531;
254804;0.041016;0.029297;1.035156;
254944;0.041016;0.025391;1.032227;
255080;0.041992;0.021484;1.044922;
255214;0.044922;0.028320;1.050781;
255349;0.041992;0.026367;1.057617;
255490;0.045898;0.029297;1.060547;
255643;0.043945;0.033203;1.062500;
255794;0.043945;0.025391;1.061523;
255934;0.043945;0.026367;1.055664;
256074;0.041992;0.024414;1.048828;
256214;0.044922;0.030273;1.049805;
256353;0.044922;0.028320;1.043945;
256494;0.043945;0.029297;1.036133;
256634;0.042969;0.029297;1.025391;
256773;0.040039;0.027344;1.013672;
256914;0.042969;0.025391;1.009766;
257053;0.037109;0.022461;1.003906;
257194;0.037109;0.023438;1.004883;
257344;0.039062;0.031250;1.001953;
257484;0.036133;0.030273;0.998047;
257624;0.036133;0.029297;0.997070;
257759;0.036133;0.024414;0.994141;
257899;0.039062;0.028320;1.004883;
258049;0.036133;0.026367;1.003906;
258199;0.036133;0.028320;0.986328;
258339;0.036133;0.028320;0.987305;
258481;0.035156;0.028320;0.992188;
258624;0.037109;0.028320;1.001953;
258764;0.037109;0.026367;0.998047;
258904;0.037109;0.026367;0.997070;
259044;0.038086;0.026367;0.996094;
259184;0.040039;0.028320;1.013672;
259324;0.037109;0.026367;1.000000;
259464;0.041016;0.029297;1.020508;
259603;0.039062;0.024414;1.030273;
259744;0.044922;0.023438;1.047852;
259883;0.040039;0.024414;1.045898;
260024;0.042969;0.023438;1.061523;
260174;0.042969;0.022461;1.072266;
260314;0.042969;0.025391;1.094727;
260454;0.046875;0.027344;1.110352;
260599;0.048828;0.027344;1.120117;
260739;0.045898;0.028320;1.118164;
260889;0.049805;0.026367;1.120117;
261039;0.047852;0.028320;1.111328;
261189;0.048828;0.030273;1.110352;
261339;0.046875;0.028320;1.095703;
261494;0.044922;0.027344;1.073242;
261644;0.043945;0.028320;1.069336;
261783;0.042969;0.026367;1.060547;
261924;0.041992;0.022461;1.039062;
262073;0.042969;0.027344;1.038086;
262214;0.038086;0.029297;1.020508;
262354;0.039062;0.027344;1.019531;
262493;0.035156;0.026367;0.997070;
262634;0.036133;0.030273;1.000000;
262784;0.034180;0.024414;0.987305;
262924;0.034180;0.025391;0.976562;
263064;0.032227;0.026367;0.967773;
263203;0.033203;0.024414;0.959961;
263343;0.034180;0.023438;0.958008;
263479;0.033203;0.025391;0.957031;
263629;0.032227;0.025391;0.950195;
263779;0.029297;0.025391;0.952148;
263920;0.034180;0.023438;0.953125;
264061;0.029297;0.025391;0.944336;
264189;0.029297;0.024414;0.953125;
264334;0.031250;0.025391;0.951172;
264470;0.028320;0.027344;0.957031;
264624;0.030273;0.022461;0.954102;
264763;0.033203;0.025391;0.966797;
264903;0.030273;0.020508;0.966797;
265044;0.035156;0.020508;0.977539;
265184;0.035156;0.025391;0.982422;
265333;0.037109;0.023438;0.998047;
265475;0.036133;0.022461;1.006836;
265623;0.036133;0.026367;1.008789;
265764;0.040039;0.030273;1.027344;
265904;0.039062;0.025391;1.031250;
266054;0.040039;0.026367;1.031250;
266194;0.038086;0.027344;1.041992;
266333;0.037109;0.027344;1.045898;
266483;0.037109;0.025391;1.039062;
266619;0.041992;0.029297;1.053711;
266769;0.040039;0.028320;1.058594;
266919;0.041992;0.025391;1.057617;
267061;0.042969;0.032227;1.061523;
267189;0.040039;0.028320;1.056641;
267329;0.041016;0.025391;1.056641;
267479;0.040039;0.028320;1.067383;
267630;0.040039;0.028320;1.064453;
267779;0.040039;0.028320;1.069336;
267934;0.041016;0.024414;1.066406;
268084;0.042969;0.024414;1.069336;
268224;0.041016;0.025391;1.066406;
268364;0.041992;0.024414;1.077148;
268513;0.038086;0.023438;1.069336;
268653;0.041016;0.027344;1.074219;
268793;0.041992;0.024414;1.082031;
268934;0.042969;0.022461;1.080078;
269073;0.043945;0.015625;1.077148;
269214;0.043945;0.022461;1.093750;
269363;0.042969;0.019531;1.087891;
269503;0.045898;0.020508;1.087891;
269644;0.042969;0.017578;1.086914;
269783;0.045898;0.018555;1.103516;
269919;0.044922;0.016602;1.106445;
270059;0.043945;0.020508;1.088867;
270199;0.045898;0.021484;1.096680;
270339;0.041992;0.022461;1.076172;
270479;0.043945;0.023438;1.069336;
270629;0.041992;0.022461;1.054688;
270774;0.040039;0.026367;1.037109;
270914;0.034180;0.026367;1.023438;
271053;0.035156;0.026367;1.016602;
271194;0.036133;0.025391;1.004883;
271334;0.033203;0.028320;1.014648;
271474;0.034180;0.027344;1.012695;
271614;0.034180;0.029297;1.020508;
271753;0.034180;0.027344;1.031250;
271894;0.035156;0.026367;1.032227;
272033;0.038086;0.027344;1.046875;
272174;0.041992;0.024414;1.064453;
272314;0.045898;0.027344;1.090820;
272454;0.043945;0.025391;1.106445;
272594;0.046875;0.024414;1.114258;
272729;0.042969;0.025391;1.125000;
272879;0.045898;0.024414;1.124023;
273019;0.045898;0.025391;1.125000;
273149;0.044922;0.023438;1.120117;
273279;0.041992;0.024414;1.102539;
273409;0.043945;0.027344;1.109375;
273539;0.045898;0.021484;1.104492;
273679;0.041992;0.025391;1.094727;
273824;0.042969;0.023438;1.082031;
273974;0.041016;0.023438;1.061523;
274114;0.039062;0.026367;1.056641;
274254;0.036133;0.023438;1.038086;
274394;0.037109;0.020508;1.023438;
274534;0.034180;0.028320;1.011719;
274674;0.035156;0.025391;1.004883;
274814;0.035156;0.027344;1.003906;
274954;0.033203;0.027344;1.000977;
275094;0.034180;0.026367;0.993164;
275244;0.034180;0.026367;0.996094;
275383;0.032227;0.025391;0.991211;
275524;0.032227;0.023438;0.993164;
275664;0.034180;0.022461;1.007812;
275804;0.034180;0.027344;1.012695;
275949;0.034180;0.028320;1.016602;
276089;0.031250;0.026367;1.010742;
276239;0.031250;0.025391;0.998047;
276389;0.033203;0.027344;0.997070;
276519;0.031250;0.026367;0.994141;
276659;0.034180;0.027344;0.989258;
276804;0.030273;0.027344;0.991211;
276953;0.030273;0.028320;0.988281;
277093;0.035156;0.023438;0.984375;
277233;0.033203;0.025391;0.980469;
277383;0.033203;0.025391;0.976562;
277523;0.030273;0.025391;0.972656;
277664;0.029297;0.023438;0.973633;
277804;0.029297;0.027344;0.978516;
277944;0.033203;0.025391;0.966797;
278094;0.026367;0.028320;0.955078;
278233;0.029297;0.027344;0.970703;
278374;0.032227;0.028320;0.969727;
278514;0.031250;0.033203;0.984375;
278653;0.031250;0.029297;0.976562;
278799;0.032227;0.028320;0.992188;
278949;0.033203;0.025391;1.008789;
279099;0.036133;0.031250;1.038086;
279249;0.038086;0.027344;1.050781;
279389;0.039062;0.026367;1.076172;
279529;0.041992;0.024414;1.089844;
279661;0.043945;0.026367;1.110352;
279814;0.043945;0.023438;1.131836;
279963;0.045898;0.025391;1.154297;
280104;0.051758;0.025391;1.173828;
280243;0.051758;0.026367;1.179688;
280383;0.052734;0.024414;1.196289;
280523;0.054688;0.025391;1.199219;
280664;0.052734;0.021484;1.197266;
280804;0.056641;0.023438;1.197266;
280943;0.054688;0.025391;1.195312;
281084;0.052734;0.021484;1.182617;
281223;0.052734;0.021484;1.176758;
281364;0.051758;0.019531;1.170898;
281514;0.048828;0.024414;1.163086;
281653;0.048828;0.025391;1.155273;
281790;0.047852;0.024414;1.142578;
281932;0.045898;0.028320;1.141602;
282069;0.043945;0.027344;1.123047;
282199;0.045898;0.027344;1.120117;
282349;0.042969;0.027344;1.123047;
282499;0.045898;0.032227;1.114258;
282639;0.043945;0.029297;1.108398;
282789;0.043945;0.026367;1.106445;
282933;0.041016;0.025391;1.097656;
283073;0.041016;0.028320;1.098633;
283223;0.040039;0.028320;1.106445;
283364;0.041016;0.027344;1.098633;
283504;0.042969;0.028320;1.103516;
283644;0.042969;0.029297;1.108398;
283783;0.042969;0.021484;1.088867;
283924;0.041992;0.023438;1.093750;
284074;0.041992;0.027344;1.077148;
284214;0.040039;0.028320;1.081055;
284354;0.042969;0.026367;1.070312;
284503;0.040039;0.028320;1.055664;
284644;0.037109;0.028320;1.047852;
284784;0.038086;0.025391;1.034180;
284929;0.035156;0.029297;1.029297;
285069;0.035156;0.028320;1.021484;
285222;0.034180;0.026367;1.017578;
285369;0.029297;0.026367;1.000977;
285499;0.033203;0.028320;1.001953;
285649;0.033203;0.030273;1.005859;
285794;0.035156;0.030273;1.007812;
285944;0.035156;0.027344;1.000000;
286083;0.032227;0.028320;0.995117;
286224;0.035156;0.027344;0.994141;
286364;0.029297;0.029297;0.989258;
286504;0.029297;0.025391;0.978516;
286644;0.029297;0.026367;0.970703;
286783;0.028320;0.028320;0.956055;
286924;0.027344;0.024414;0.946289;
287064;0.026367;0.028320;0.944336;
287203;0.027344;0.027344;0.929688;
287344;0.026367;0.028320;0.919922;
287494;0.027344;0.027344;0.919922;
287634;0.030273;0.032227;0.922852;
287769;0.026367;0.031250;0.920898;
287919;0.024414;0.028320;0.921875;
288059;0.027344;0.030273;0.922852;
288191;0.023438;0.032227;0.920898;
288319;0.026367;0.034180;0.936523;
288459;0.025391;0.030273;0.934570;
288600;0.027344;0.027344;0.935547;
288754;0.027344;0.026367;0.949219;
288893;0.027344;0.028320;0.950195;
289033;0.029297;0.026367;0.958008;
289174;0.031250;0.029297;0.976562;
289324;0.031250;0.028320;0.984375;
289463;0.031250;0.026367;0.991211;
289603;0.030273;0.022461;0.995117;
289743;0.032227;0.023438;1.008789;
289884;0.035156;0.020508;1.014648;
290033;0.037109;0.023438;1.024414;
290174;0.035156;0.022461;1.023438;
290314;0.037109;0.022461;1.027344;
290453;0.036133;0.019531;1.025391;
290594;0.038086;0.025391;1.032227;
290744;0.035156;0.026367;1.028320;
290884;0.033203;0.025391;1.026367;
291019;0.032227;0.024414;1.026367;
291151;0.035156;0.028320;1.025391;
291301;0.034180;0.025391;1.006836;
291439;0.032227;0.026367;1.005859;
291589;0.033203;0.027344;1.007812;
291739;0.035156;0.031250;1.014648;
291879;0.033203;0.029297;1.014648;
292029;0.032227;0.028320;1.008789;
292174;0.035156;0.029297;1.018555;
292314;0.035156;0.032227;1.014648;
292454;0.037109;0.027344;1.024414;
292593;0.035156;0.026367;1.026367;
292733;0.037109;0.025391;1.030273;
292874;0.035156;0.029297;1.033203;
293024;0.033203;0.027344;1.034180;
293164;0.038086;0.025391;1.027344;
293304;0.035156;0.027344;1.028320;
293444;0.038086;0.029297;1.023438;
293584;0.035156;0.027344;1.016602;
293734;0.037109;0.023438;1.028320;
293873;0.034180;0.025391;1.028320;
294013;0.035156;0.026367;1.020508;
294140;0.034180;0.021484;1.029297;
294279;0.033203;0.021484;1.027344;
294419;0.033203;0.021484;1.021484;
294559;0.035156;0.023438;1.017578;
294700;0.035156;0.023438;1.015625;
294829;0.039062;0.023438;1.031250;
294969;0.035156;0.024414;1.030273;
295110;0.035156;0.024414;1.035156;
295253;0.036133;0.024414;1.029297;
295394;0.036133;0.027344;1.031250;
295534;0.033203;0.024414;1.027344;
295674;0.032227;0.024414;1.023438;
295814;0.036133;0.025391;1.022461;
295963;0.034180;0.025391;1.022461;
296104;0.033203;0.027344;1.016602;
296244;0.033203;0.027344;1.025391;
296384;0.030273;0.025391;1.020508;
296524;0.033203;0.024414;1.022461;
296663;0.033203;0.030273;1.032227;
296803;0.032227;0.024414;1.038086;
296954;0.031250;0.027344;1.025391;
297094;0.033203;0.023438;1.034180;
297230;0.032227;0.030273;1.041016;
297379;0.032227;0.028320;1.036133;
297519;0.035156;0.023438;1.031250;
297659;0.035156;0.024414;1.036133;
297801;0.035156;0.027344;1.034180;
297954;0.038086;0.025391;1.038086;
298089;0.035156;0.022461;1.039062;
298220;0.035156;0.023438;1.034180;
298360;0.034180;0.023438;1.036133;
298503;0.036133;0.023438;1.038086;
298644;0.034180;0.026367;1.034180;
298784;0.037109;0.025391;1.035156;
298924;0.033203;0.025391;1.025391;
299063;0.033203;0.026367;1.030273;
299204;0.036133;0.029297;1.042969;
299344;0.035156;0.027344;1.041992;
299484;0.038086;0.027344;1.045898;
299624;0.034180;0.029297;1.043945;
299774;0.032227;0.024414;1.029297;
299923;0.035156;0.026367;1.042969;
300064;0.034180;0.024414;1.044922;
300204;0.037109;0.025391;1.046875;
300344;0.035156;0.025391;1.047852;
300481;0.037109;0.025391;1.032227;
300619;0.040039;0.023438;1.041992;
300759;0.035156;0.026367;1.041992;
300889;0.038086;0.027344;1.048828;
301019;0.037109;0.024414;1.035156;
301169;0.036133;0.024414;1.036133;
301319;0.034180;0.025391;1.039062;
301459;0.035156;0.029297;1.043945;
301614;0.036133;0.027344;1.043945;
301754;0.035156;0.027344;1.035156;
301894;0.035156;0.028320;1.032227;
302043;0.037109;0.029297;1.039062;
302183;0.036133;0.026367;1.041016;
302324;0.037109;0.030273;1.040039;
302474;0.037109;0.025391;1.047852;
302614;0.035156;0.028320;1.038086;
302754;0.031250;0.026367;1.045898;
302893;0.035156;0.025391;1.047852;
303033;0.035156;0.030273;1.047852;
303174;0.033203;0.025391;1.045898;
303314;0.034180;0.026367;1.045898;
303454;0.038086;0.024414;1.049805;
303579;0.037109;0.025391;1.040039;
303720;0.035156;0.025391;1.037109;
303863;0.035156;0.027344;1.034180;
303999;0.034180;0.026367;1.036133;
304149;0.033203;0.025391;1.028320;
304299;0.034180;0.027344;1.029297;
304439;0.032227;0.023438;1.025391;
304594;0.035156;0.027344;1.032227;
304744;0.031250;0.025391;1.034180;
304894;0.035156;0.028320;1.032227;
305033;0.033203;0.026367;1.023438;
305174;0.033203;0.027344;1.030273;
305314;0.034180;0.025391;1.030273;
305454;0.035156;0.027344;1.029297;
305594;0.035156;0.030273;1.042969;
305733;0.036133;0.028320;1.056641;
305874;0.035156;0.025391;1.052734;
306024;0.037109;0.028320;1.054688;
306163;0.033203;0.024414;1.048828;
306304;0.034180;0.024414;1.056641;
306454;0.034180;0.031250;1.043945;
306589;0.035156;0.021484;1.044922;
306719;0.034180;0.024414;1.043945;
306849;0.037109;0.028320;1.046875;
306999;0.035156;0.024414;1.044922;
307139;0.036133;0.020508;1.054688;
307269;0.033203;0.025391;1.044922;
307409;0.033203;0.021484;1.020508;
307549;0.030273;0.030273;1.018555;
307700;0.026367;0.027344;1.002930;
307850;0.028320;0.029297;1.000000;
308004;0.027344;0.027344;0.991211;
308153;0.027344;0.025391;0.988281;
308294;0.027344;0.029297;0.988281;
308434;0.033203;0.027344;0.999023;
308573;0.029297;0.029297;0.991211;
308713;0.030273;0.025391;0.991211;
308854;0.031250;0.025391;0.996094;
309003;0.033203;0.028320;1.001953;
309144;0.028320;0.024414;1.007812;
309283;0.033203;0.025391;1.012695;
309424;0.033203;0.029297;1.022461;
309564;0.031250;0.026367;1.035156;
309704;0.034180;0.026367;1.039062;
309844;0.035156;0.028320;1.042969;
309980;0.035156;0.028320;1.033203;
310119;0.037109;0.029297;1.026367;
310270;0.034180;0.023438;1.029297;
310409;0.032227;0.027344;1.021484;
310559;0.032227;0.028320;1.012695;
310710;0.033203;0.024414;0.998047;
310859;0.032227;0.026367;0.994141;
310993;0.029297;0.024414;0.979492;
311143;0.025391;0.028320;0.966797;
311284;0.023438;0.026367;0.961914;
311424;0.025391;0.026367;0.954102;
311563;0.023438;0.026367;0.964844;
311704;0.023438;0.027344;0.953125;
311844;0.027344;0.026367;0.953125;
311983;0.025391;0.024414;0.948242;
312124;0.026367;0.024414;0.967773;
312264;0.028320;0.024414;0.972656;
312404;0.030273;0.022461;0.982422;
312544;0.029297;0.024414;0.993164;
312694;0.029297;0.025391;1.001953;
312834;0.029297;0.028320;1.014648;
312969;0.031250;0.030273;1.021484;
313109;0.032227;0.024414;1.038086;
313259;0.033203;0.025391;1.043945;
313409;0.034180;0.027344;1.041992;
313549;0.035156;0.025391;1.048828;
313689;0.034180;0.026367;1.043945;
313830;0.035156;0.026367;1.052734;
313959;0.033203;0.027344;1.068359;
314114;0.035156;0.026367;1.061523;
314254;0.036133;0.022461;1.053711;
314394;0.032227;0.030273;1.055664;
314534;0.031250;0.025391;1.044922;
314674;0.030273;0.024414;1.037109;
314813;0.032227;0.028320;1.027344;
314954;0.031250;0.029297;1.015625;
315093;0.030273;0.027344;1.003906;
315234;0.031250;0.031250;1.002930;
315374;0.030273;0.027344;0.992188;
315514;0.027344;0.028320;0.991211;
315654;0.028320;0.027344;0.985352;
315803;0.028320;0.026367;0.988281;
315944;0.027344;0.026367;0.976562;
316079;0.026367;0.028320;0.981445;
316229;0.028320;0.029297;0.971680;
316359;0.027344;0.025391;0.970703;
316509;0.024414;0.025391;0.963867;
316639;0.027344;0.028320;0.965820;
316779;0.025391;0.024414;0.973633;
316919;0.024414;0.027344;0.973633;
317059;0.027344;0.032227;0.986328;
317204;0.027344;0.029297;0.982422;
317354;0.028320;0.030273;0.973633;
317494;0.028320;0.029297;0.978516;
317633;0.026367;0.029297;0.973633;
317783;0.028320;0.026367;0.979492;
317924;0.027344;0.025391;0.974609;
318064;0.028320;0.027344;0.977539;
318203;0.028320;0.029297;0.970703;
318343;0.028320;0.024414;0.971680;
318484;0.025391;0.025391;0.974609;
318624;0.028320;0.028320;0.966797;
318764;0.026367;0.025391;0.966797;
318903;0.024414;0.026367;0.969727;
319044;0.024414;0.028320;0.970703;
319179;0.026367;0.028320;0.982422;
319320;0.025391;0.022461;0.974609;
319453;0.028320;0.025391;0.989258;
319592;0.025391;0.026367;0.993164;
319729;0.030273;0.027344;1.002930;
319859;0.028320;0.025391;1.009766;
320009;0.031250;0.028320;1.032227;
320150;0.030273;0.026367;1.042969;
320300;0.030273;0.027344;1.050781;
320454;0.033203;0.029297;1.060547;
320594;0.033203;0.028320;1.067383;
320734;0.033203;0.023438;1.072266;
320873;0.038086;0.027344;1.075195;
321014;0.035156;0.023438;1.079102;
321154;0.036133;0.025391;1.086914;
321294;0.040039;0.028320;1.092773;
321444;0.035156;0.026367;1.079102;
321583;0.036133;0.025391;1.093750;
321724;0.037109;0.028320;1.094727;
321864;0.035156;0.027344;1.092773;
322004;0.038086;0.024414;1.097656;
322144;0.035156;0.028320;1.106445;
322283;0.036133;0.026367;1.111328;
322419;0.037109;0.024414;1.111328;
322559;0.038086;0.026367;1.105469;
322710;0.036133;0.026367;1.103516;
322849;0.038086;0.026367;1.112305;
322989;0.039062;0.022461;1.112305;
323119;0.037109;0.024414;1.101562;
323263;0.036133;0.021484;1.101562;
323403;0.037109;0.025391;1.094727;
323554;0.035156;0.026367;1.089844;
323704;0.035156;0.026367;1.094727;
323844;0.034180;0.024414;1.081055;
323983;0.032227;0.026367;1.067383;
324124;0.033203;0.022461;1.059570;
324264;0.034180;0.025391;1.057617;
324404;0.035156;0.026367;1.056641;
324544;0.031250;0.024414;1.050781;
324684;0.032227;0.022461;1.053711;
324833;0.033203;0.025391;1.057617;
324974;0.030273;0.022461;1.054688;
325113;0.030273;0.027344;1.051758;
325263;0.031250;0.026367;1.046875;
325399;0.030273;0.032227;1.053711;
325541;0.027344;0.024414;1.042969;
325690;0.028320;0.028320;1.040039;
325833;0.028320;0.028320;1.041992;
325979;0.028320;0.026367;1.029297;
326134;0.033203;0.027344;1.044922;
326269;0.028320;0.029297;1.032227;
326419;0.031250;0.027344;1.038086;
326569;0.033203;0.026367;1.042969;
326724;0.033203;0.028320;1.045898;
326864;0.030273;0.026367;1.041016;
327004;0.034180;0.029297;1.044922;
327143;0.030273;0.026367;1.036133;
327284;0.027344;0.026367;1.030273;
327423;0.029297;0.025391;1.026367;
327563;0.029297;0.027344;1.014648;
327704;0.027344;0.027344;1.007812;
327854;0.025391;0.030273;0.999023;
327994;0.026367;0.027344;0.995117;
328134;0.028320;0.026367;0.982422;
328274;0.024414;0.026367;0.977539;
328414;0.026367;0.031250;0.974609;
328563;0.025391;0.025391;0.969727;
328699;0.023438;0.024414;0.959961;
328839;0.022461;0.028320;0.959961;
328989;0.024414;0.030273;0.964844;
329130;0.025391;0.029297;0.964844;
329269;0.020508;0.025391;0.974609;
329419;0.024414;0.024414;0.973633;
329559;0.025391;0.026367;0.982422;
329703;0.024414;0.026367;0.983398;
329844;0.026367;0.023438;1.004883;
329984;0.030273;0.026367;1.015625;
330124;0.029297;0.024414;1.027344;
330264;0.030273;0.026367;1.040039;
330403;0.033203;0.024414;1.054688;
330544;0.031250;0.024414;1.064453;
330683;0.035156;0.026367;1.077148;
330834;0.036133;0.028320;1.084961;
330974;0.036133;0.026367;1.083984;
331114;0.033203;0.023438;1.085938;
331264;0.032227;0.023438;1.072266;
331404;0.033203;0.026367;1.083008;
331543;0.034180;0.026367;1.068359;
331680;0.033203;0.027344;1.068359;
331829;0.034180;0.022461;1.082031;
331979;0.032227;0.026367;1.064453;
332129;0.033203;0.027344;1.067383;
332279;0.031250;0.029297;1.068359;
332409;0.031250;0.028320;1.068359;
332549;0.033203;0.026367;1.068359;
332699;0.032227;0.030273;1.069336;
332853;0.032227;0.028320;1.071289;
332994;0.030273;0.023438;1.064453;
333134;0.029297;0.027344;1.064453;
333274;0.031250;0.027344;1.062500;
333414;0.029297;0.027344;1.063477;
333555;0.031250;0.025391;1.065430;
333704;0.029297;0.026367;1.062500;
333843;0.031250;0.028320;1.063477;
333984;0.033203;0.029297;1.063477;
334134;0.031250;0.029297;1.068359;
334273;0.035156;0.027344;1.073242;
334414;0.031250;0.029297;1.065430;
334564;0.031250;0.024414;1.059570;
334704;0.030273;0.023438;1.043945;
334839;0.030273;0.024414;1.031250;
334979;0.029297;0.026367;1.025391;
335119;0.026367;0.024414;1.010742;
335269;0.028320;0.024414;1.003906;
335420;0.027344;0.024414;1.009766;
335559;0.025391;0.027344;0.994141;
335694;0.026367;0.025391;1.001953;
335834;0.027344;0.031250;0.994141;
335974;0.025391;0.024414;1.000000;
336114;0.026367;0.026367;0.996094;
336254;0.027344;0.028320;1.006836;
336394;0.025391;0.030273;1.013672;
336533;0.026367;0.026367;1.011719;
336683;0.028320;0.024414;1.027344;
336824;0.026367;0.026367;1.029297;
336963;0.030273;0.030273;1.041992;
337104;0.030273;0.028320;1.041016;
337244;0.029297;0.030273;1.043945;
337383;0.031250;0.026367;1.051758;
337524;0.031250;0.025391;1.056641;
337664;0.034180;0.026367;1.059570;
337800;0.032227;0.024414;1.064453;
337939;0.032227;0.029297;1.067383;
338084;0.031250;0.029297;1.057617;
338229;0.033203;0.028320;1.065430;
338370;0.029297;0.028320;1.047852;
338509;0.029297;0.028320;1.055664;
338659;0.029297;0.028320;1.045898;
338804;0.029297;0.023438;1.046875;
338954;0.031250;0.028320;1.056641;
339103;0.026367;0.027344;1.044922;
339243;0.029297;0.027344;1.042969;
339384;0.028320;0.024414;1.041016;
339533;0.029297;0.028320;1.038086;
339674;0.027344;0.024414;1.034180;
339814;0.028320;0.023438;1.041016;
339954;0.032227;0.028320;1.033203;
340094;0.027344;0.028320;1.043945;
340234;0.029297;0.027344;1.039062;
340373;0.030273;0.026367;1.034180;
340523;0.030273;0.030273;1.048828;
340664;0.027344;0.027344;1.055664;
340799;0.027344;0.026367;1.050781;
340930;0.030273;0.033203;1.056641;
341069;0.030273;0.026367;1.053711;
341219;0.030273;0.029297;1.052734;
341359;0.033203;0.028320;1.063477;
341509;0.030273;0.025391;1.053711;
341639;0.032227;0.023438;1.051758;
341779;0.031250;0.026367;1.058594;
341933;0.032227;0.024414;1.061523;
342073;0.028320;0.028320;1.052734;
342214;0.034180;0.027344;1.059570;
342353;0.029297;0.026367;1.052734;
342494;0.030273;0.027344;1.051758;
342643;0.030273;0.024414;1.052734;
342784;0.030273;0.026367;1.049805;
342924;0.031250;0.026367;1.052734;
343063;0.030273;0.025391;1.041992;
343203;0.030273;0.032227;1.053711;
343344;0.028320;0.027344;1.050781;
343484;0.029297;0.029297;1.051758;
343623;0.027344;0.028320;1.060547;
343763;0.029297;0.025391;1.065430;
343899;0.029297;0.028320;1.070312;
344039;0.030273;0.028320;1.061523;
344189;0.028320;0.031250;1.068359;
344324;0.031250;0.030273;1.066406;
344459;0.034180;0.030273;1.063477;
344601;0.031250;0.033203;1.072266;
344749;0.032227;0.033203;1.073242;
344900;0.032227;0.022461;1.068359;
345040;0.033203;0.028320;1.065430;
345193;0.033203;0.029297;1.067383;
345333;0.032227;0.025391;1.065430;
345474;0.032227;0.026367;1.064453;
345614;0.031250;0.027344;1.059570;
345753;0.032227;0.021484;1.059570;
345894;0.031250;0.024414;1.060547;
346033;0.031250;0.022461;1.060547;
346174;0.030273;0.022461;1.052734;
346314;0.031250;0.025391;1.051758;
346454;0.030273;0.023438;1.054688;
346594;0.031250;0.022461;1.051758;
346743;0.035156;0.020508;1.055664;
346894;0.031250;0.019531;1.051758;
347034;0.029297;0.017578;1.055664;
347160;0.034180;0.025391;1.075195;
347289;0.031250;0.022461;1.073242;
347429;0.032227;0.027344;1.077148;
347579;0.032227;0.023438;1.070312;
347729;0.032227;0.028320;1.074219;
347879;0.031250;0.022461;1.062500;
348009;0.030273;0.024414;1.065430;
348154;0.033203;0.021484;1.067383;
348294;0.035156;0.025391;1.075195;
348434;0.035156;0.024414;1.069336;
348574;0.034180;0.025391;1.075195;
348714;0.033203;0.026367;1.069336;
348853;0.033203;0.020508;1.074219;
348994;0.031250;0.019531;1.070312;
349133;0.033203;0.017578;1.068359;
349274;0.033203;0.025391;1.080078;
349414;0.030273;0.020508;1.071289;
349554;0.033203;0.017578;1.076172;
349694;0.031250;0.019531;1.074219;
349834;0.034180;0.023438;1.078125;
349974;0.033203;0.017578;1.074219;
350109;0.034180;0.020508;1.083984;
350239;0.035156;0.023438;1.087891;
350389;0.037109;0.020508;1.090820;
350529;0.036133;0.023438;1.087891;
350679;0.035156;0.023438;1.090820;
350819;0.034180;0.021484;1.092773;
350961;0.033203;0.020508;1.093750;
351114;0.032227;0.024414;1.083984;
351253;0.034180;0.022461;1.090820;
351394;0.035156;0.019531;1.090820;
351534;0.035156;0.020508;1.085938;
351674;0.036133;0.021484;1.085938;
351824;0.035156;0.021484;1.085938;
351963;0.032227;0.019531;1.075195;
352103;0.034180;0.023438;1.077148;
352254;0.030273;0.020508;1.061523;
352394;0.029297;0.019531;1.051758;
352534;0.028320;0.025391;1.041992;
352674;0.028320;0.022461;1.023438;
352814;0.025391;0.021484;1.013672;
352954;0.022461;0.022461;0.996094;
353089;0.024414;0.019531;0.977539;
353239;0.025391;0.019531;0.978516;
353379;0.022461;0.019531;0.967773;
353529;0.024414;0.020508;0.962891;
353679;0.022461;0.020508;0.951172;
353829;0.022461;0.017578;0.953125;
353964;0.024414;0.019531;0.958984;
354099;0.023438;0.025391;0.969727;
354239;0.024414;0.022461;0.983398;
354383;0.024414;0.023438;0.986328;
354534;0.023438;0.020508;0.996094;
354683;0.026367;0.020508;1.013672;
354823;0.026367;0.019531;1.022461;
354964;0.029297;0.021484;1.023438;
355104;0.030273;0.017578;1.028320;
355243;0.029297;0.017578;1.041016;
355384;0.031250;0.015625;1.041016;
355524;0.031250;0.016602;1.046875;
355664;0.032227;0.015625;1.045898;
355803;0.032227;0.014648;1.051758;
355944;0.029297;0.015625;1.043945;
356084;0.032227;0.017578;1.051758;
356233;0.029297;0.015625;1.049805;
356369;0.031250;0.018555;1.051758;
356519;0.028320;0.015625;1.051758;
356669;0.028320;0.020508;1.041992;
356809;0.028320;0.022461;1.040039;
356959;0.029297;0.023438;1.039062;
357109;0.025391;0.022461;1.020508;
357249;0.029297;0.024414;1.017578;
357403;0.022461;0.022461;1.013672;
357543;0.025391;0.023438;1.007812;
357683;0.022461;0.020508;0.990234;
357824;0.024414;0.022461;0.988281;
357964;0.021484;0.026367;0.983398;
358114;0.021484;0.021484;0.975586;
358254;0.024414;0.021484;0.985352;
358393;0.019531;0.022461;0.975586;
358534;0.025391;0.025391;0.995117;
358674;0.024414;0.020508;0.984375;
358814;0.026367;0.019531;0.986328;
358953;0.024414;0.020508;0.981445;
359093;0.024414;0.016602;0.975586;
359234;0.022461;0.021484;0.976562;
359379;0.023438;0.021484;0.982422;
359529;0.021484;0.023438;0.975586;
