Time;acc_x;acc_y;acc_z;

515165;-0.011719;0.027344;1.115234;
515384;-0.011719;0.029297;1.107422;
515534;-0.006836;0.031250;1.098633;
515674;-0.011719;0.027344;1.076172;
515814;-0.012695;0.031250;1.072266;
515954;-0.009766;0.036133;1.071289;
516094;-0.015625;0.036133;1.062500;
516234;-0.013672;0.034180;1.061523;
516374;-0.016602;0.029297;1.048828;
516514;-0.013672;0.032227;1.052734;
516654;-0.016602;0.029297;1.037109;
516794;-0.013672;0.022461;1.046875;
516934;-0.012695;0.026367;1.057617;
517074;-0.013672;0.026367;1.056641;
517214;-0.009766;0.020508;1.063477;
517354;-0.010742;0.027344;1.056641;
517494;-0.012695;0.019531;1.068359;
517634;-0.007812;0.025391;1.062500;
517770;-0.011719;0.021484;1.060547;
517910;-0.010742;0.018555;1.062500;
518059;-0.008789;0.019531;1.051758;
518210;-0.009766;0.023438;1.044922;
518350;-0.011719;0.021484;1.039062;
518504;-0.011719;0.024414;1.022461;
518644;-0.013672;0.024414;1.011719;
518784;-0.012695;0.024414;1.019531;
518934;-0.013672;0.024414;1.007812;
519094;-0.014648;0.030273;1.019531;
519244;-0.015625;0.026367;1.009766;
519384;-0.015625;0.030273;1.006836;
519524;-0.012695;0.024414;1.002930;
519664;-0.015625;0.019531;1.004883;
519814;-0.013672;0.023438;1.017578;
519954;-0.013672;0.020508;1.018555;
520094;-0.015625;0.020508;1.016602;
520234;-0.015625;0.025391;1.017578;
520374;-0.011719;0.023438;1.024414;
520510;-0.012695;0.025391;1.013672;
520649;-0.009766;0.023438;1.018555;
520791;-0.014648;0.022461;1.017578;
520929;-0.015625;0.025391;1.002930;
521069;-0.012695;0.022461;1.007812;
521210;-0.012695;0.017578;1.003906;
521349;-0.012695;0.018555;1.020508;
521494;-0.016602;0.024414;1.007812;
521634;-0.016602;0.025391;1.010742;
521774;-0.012695;0.027344;1.024414;
521924;-0.015625;0.026367;1.028320;
522064;-0.012695;0.025391;1.043945;
522204;-0.010742;0.024414;1.059570;
522354;-0.011719;0.026367;1.073242;
522494;-0.010742;0.023438;1.081055;
522634;-0.010742;0.026367;1.095703;
522774;-0.010742;0.023438;1.096680;
522914;-0.007812;0.020508;1.097656;
523054;-0.007812;0.021484;1.102539;
523194;-0.008789;0.027344;1.101562;
523334;-0.007812;0.022461;1.099609;
523470;-0.008789;0.015625;1.089844;
523620;-0.006836;0.019531;1.095703;
523770;-0.010742;0.018555;1.098633;
523921;-0.005859;0.014648;1.110352;
524069;-0.008789;0.022461;1.103516;
524224;-0.007812;0.015625;1.111328;
524364;-0.010742;0.025391;1.104492;
524504;-0.007812;0.024414;1.102539;
524644;-0.012695;0.023438;1.096680;
524784;-0.008789;0.022461;1.103516;
524934;-0.006836;0.028320;1.121094;
525074;-0.010742;0.025391;1.102539;
525214;-0.009766;0.021484;1.123047;
525354;-0.008789;0.021484;1.124023;
525494;-0.010742;0.022461;1.117188;
525634;-0.007812;0.018555;1.108398;
525784;-0.009766;0.024414;1.115234;
525924;-0.008789;0.024414;1.119141;
526064;-0.009766;0.031250;1.108398;
526201;-0.005859;0.017578;1.117188;
526340;-0.008789;0.022461;1.106445;
526490;-0.010742;0.021484;1.087891;
526630;-0.010742;0.024414;1.103516;
526779;-0.007812;0.020508;1.092773;
526920;-0.010742;0.021484;1.084961;
527060;-0.007812;0.025391;1.091797;
527194;-0.008789;0.024414;1.083008;
527334;-0.006836;0.033203;1.095703;
527474;-0.007812;0.027344;1.084961;
527614;-0.009766;0.020508;1.082031;
527754;-0.009766;0.021484;1.076172;
527894;-0.007812;0.024414;1.085938;
528044;-0.008789;0.020508;1.084961;
528184;-0.012695;0.023438;1.074219;
528324;-0.010742;0.020508;1.077148;
528474;-0.008789;0.021484;1.087891;
528614;-0.008789;0.024414;1.077148;
528764;-0.006836;0.024414;1.085938;
528904;-0.010742;0.020508;1.051758;
529044;-0.010742;0.025391;1.028320;
529180;-0.013672;0.028320;0.995117;
529319;-0.017578;0.024414;0.936523;
529469;-0.013672;0.027344;0.925781;
529609;-0.017578;0.027344;0.884766;
529740;-0.017578;0.025391;0.868164;
529879;-0.020508;0.021484;0.843750;
530030;-0.018555;0.023438;0.832031;
530184;-0.017578;0.027344;0.844727;
530324;-0.018555;0.026367;0.848633;
530464;-0.017578;0.029297;0.854492;
530604;-0.015625;0.034180;0.880859;
530744;-0.018555;0.024414;0.907227;
530884;-0.015625;0.029297;0.912109;
531024;-0.011719;0.027344;0.953125;
531164;-0.011719;0.023438;0.971680;
531304;-0.014648;0.023438;0.987305;
531444;-0.011719;0.023438;1.005859;
531584;-0.011719;0.023438;1.038086;
531734;-0.009766;0.024414;1.053711;
531874;-0.013672;0.020508;1.040039;
532014;-0.011719;0.021484;1.051758;
532149;-0.009766;0.022461;1.048828;
532299;-0.011719;0.023438;1.034180;
532449;-0.010742;0.024414;1.032227;
532599;-0.011719;0.026367;1.025391;
532739;-0.014648;0.023438;1.011719;
532894;-0.008789;0.023438;1.004883;
533034;-0.011719;0.023438;0.989258;
533174;-0.014648;0.026367;0.983398;
533314;-0.012695;0.025391;0.994141;
533454;-0.014648;0.029297;0.999023;
533594;-0.013672;0.027344;1.007812;
533734;-0.013672;0.023438;1.017578;
533874;-0.010742;0.025391;1.026367;
534014;-0.010742;0.026367;1.032227;
534154;-0.009766;0.024414;1.032227;
534294;-0.006836;0.025391;1.058594;
534434;-0.007812;0.021484;1.047852;
534574;-0.006836;0.024414;1.058594;
534714;-0.009766;0.025391;1.054688;
534850;-0.007812;0.021484;1.064453;
534999;-0.003906;0.026367;1.070312;
535151;-0.006836;0.021484;1.074219;
535289;-0.008789;0.024414;1.073242;
535439;-0.005859;0.019531;1.082031;
535589;-0.006836;0.025391;1.081055;
535724;-0.005859;0.020508;1.076172;
535864;-0.008789;0.025391;1.076172;
535999;-0.008789;0.018555;1.065430;
536154;-0.007812;0.023438;1.044922;
536304;-0.009766;0.021484;1.030273;
536444;-0.010742;0.021484;1.014648;
536584;-0.011719;0.023438;0.999023;
536724;-0.010742;0.023438;0.986328;
536864;-0.014648;0.026367;0.966797;
537004;-0.014648;0.023438;0.960938;
537144;-0.014648;0.027344;0.963867;
537284;-0.017578;0.029297;0.950195;
537424;-0.009766;0.029297;0.958984;
537564;-0.014648;0.028320;0.957031;
537704;-0.012695;0.026367;0.982422;
537844;-0.010742;0.029297;0.989258;
537984;-0.008789;0.024414;1.000000;
538119;-0.008789;0.020508;0.995117;
538259;-0.000977;0.021484;1.010742;
538401;0.000977;0.024414;1.013672;
538542;0.009766;0.022461;1.026367;
538694;0.013672;0.023438;1.023438;
538829;0.012695;0.024414;1.032227;
538980;0.011719;0.027344;1.047852;
539129;0.010742;0.022461;1.047852;
539274;0.011719;0.025391;1.056641;
539414;0.007812;0.025391;1.049805;
539554;0.007812;0.018555;1.046875;
539694;0.004883;0.023438;1.044922;
539834;0.002930;0.024414;1.042969;
539974;0.002930;0.018555;1.025391;
540114;0.002930;0.026367;1.026367;
540254;0.001953;0.027344;1.009766;
540394;0.002930;0.022461;1.013672;
540534;0.001953;0.028320;0.989258;
540674;0.000000;0.032227;0.989258;
540814;0.002930;0.027344;0.972656;
540954;0.000000;0.026367;0.973633;
541094;0.000977;0.028320;0.960938;
541240;0.002930;0.024414;0.970703;
541390;0.000977;0.027344;0.978516;
541540;-0.001953;0.030273;0.976562;
541679;0.001953;0.025391;0.983398;
541830;0.002930;0.022461;0.984375;
541971;0.000977;0.024414;1.000000;
542114;0.005859;0.025391;1.008789;
542254;0.004883;0.021484;1.019531;
542394;0.009766;0.023438;1.040039;
542534;0.009766;0.022461;1.043945;
542674;0.007812;0.022461;1.045898;
542814;0.007812;0.027344;1.062500;
542954;0.008789;0.027344;1.062500;
543104;0.009766;0.023438;1.072266;
543244;0.006836;0.025391;1.069336;
543384;0.008789;0.022461;1.080078;
543524;0.005859;0.026367;1.073242;
543664;0.009766;0.025391;1.080078;
543804;0.007812;0.021484;1.073242;
543944;0.006836;0.024414;1.073242;
544084;0.007812;0.023438;1.068359;
544220;0.005859;0.027344;1.067383;
544350;0.005859;0.029297;1.053711;
544499;0.008789;0.026367;1.047852;
544650;0.005859;0.028320;1.026367;
544800;0.005859;0.026367;1.014648;
544950;0.005859;0.027344;1.009766;
545104;0.002930;0.025391;0.987305;
545254;0.005859;0.023438;0.976562;
545394;0.003906;0.021484;0.964844;
545534;0.004883;0.025391;0.958984;
545684;0.002930;0.025391;0.955078;
545824;-0.000977;0.024414;0.930664;
545964;0.002930;0.022461;0.944336;
546104;-0.000977;0.029297;0.937500;
546244;-0.000977;0.023438;0.935547;
546384;0.000977;0.024414;0.934570;
546534;0.002930;0.027344;0.933594;
546674;0.001953;0.028320;0.948242;
546814;0.000977;0.025391;0.944336;
546954;0.003906;0.027344;0.958984;
547079;0.000977;0.027344;0.952148;
547221;0.001953;0.029297;0.960938;
547359;0.000977;0.026367;0.965820;
547500;0.002930;0.026367;0.963867;
547650;0.003906;0.022461;0.971680;
547799;0.004883;0.025391;0.984375;
547944;0.002930;0.024414;0.982422;
548084;0.006836;0.022461;0.990234;
548224;0.002930;0.023438;0.996094;
548364;0.002930;0.021484;0.985352;
548514;0.005859;0.024414;0.992188;
548654;0.003906;0.018555;0.998047;
548794;0.002930;0.029297;0.998047;
548934;0.006836;0.027344;0.995117;
549074;0.000977;0.025391;0.978516;
549224;0.003906;0.024414;0.999023;
549364;0.002930;0.023438;0.988281;
549504;0.003906;0.026367;0.997070;
549644;0.000977;0.025391;0.991211;
549784;0.000000;0.031250;0.986328;
549920;0.000977;0.028320;0.991211;
550059;0.000977;0.032227;0.988281;
550200;0.003906;0.028320;0.991211;
550330;0.001953;0.028320;0.982422;
550484;0.000977;0.024414;0.983398;
550630;0.001953;0.030273;0.996094;
550779;0.000000;0.028320;0.974609;
550920;0.000977;0.024414;0.984375;
551070;0.003906;0.020508;0.990234;
551214;-0.001953;0.024414;0.989258;
551354;0.001953;0.024414;0.997070;
551494;0.001953;0.024414;0.981445;
551634;0.000000;0.021484;0.981445;
551774;0.001953;0.021484;0.991211;
551914;0.000000;0.020508;0.986328;
552064;0.000000;0.024414;0.986328;
552204;0.001953;0.023438;0.994141;
552344;0.000977;0.025391;0.998047;
552494;0.001953;0.024414;1.010742;
552634;0.000000;0.023438;1.012695;
552774;0.000977;0.024414;1.040039;
552924;0.005859;0.024414;1.052734;
553064;0.002930;0.029297;1.066406;
553204;0.006836;0.024414;1.082031;
553340;0.005859;0.027344;1.094727;
553490;0.000977;0.028320;1.107422;
553640;0.008789;0.022461;1.117188;
553779;0.005859;0.024414;1.113281;
553930;0.003906;0.022461;1.127930;
554080;0.005859;0.024414;1.129883;
554234;0.003906;0.023438;1.116211;
554374;0.005859;0.024414;1.122070;
554524;0.004883;0.021484;1.105469;
554664;0.006836;0.030273;1.116211;
554804;0.006836;0.027344;1.117188;
554944;-0.000977;0.027344;1.104492;
555084;0.000977;0.024414;1.090820;
555224;0.000000;0.024414;1.092773;
555364;-0.003906;0.023438;1.096680;
555504;-0.007812;0.029297;1.076172;
555644;-0.003906;0.026367;1.085938;
555794;-0.002930;0.024414;1.092773;
555934;-0.001953;0.021484;1.102539;
556074;-0.004883;0.020508;1.083008;
556220;-0.005859;0.009766;1.061523;
556350;-0.002930;0.018555;1.056641;
556501;0.000000;0.022461;1.069336;
556641;-0.003906;0.030273;1.068359;
556790;-0.006836;0.027344;1.043945;
556940;-0.002930;0.033203;1.047852;
557079;-0.004883;0.026367;1.044922;
557234;-0.007812;0.033203;1.039062;
557374;-0.001953;0.035156;1.048828;
557514;-0.003906;0.036133;1.038086;
557654;-0.008789;0.031250;1.018555;
557794;-0.007812;0.033203;1.014648;
557934;-0.006836;0.028320;1.015625;
558074;-0.006836;0.033203;1.029297;
558214;-0.005859;0.026367;1.013672;
558354;-0.007812;0.026367;1.018555;
558494;-0.008789;0.016602;1.011719;
558634;-0.006836;0.017578;1.029297;
558774;-0.002930;0.016602;1.038086;
558914;-0.000977;0.016602;1.040039;
559054;-0.004883;0.021484;1.046875;
559190;-0.006836;0.024414;1.036133;
559329;-0.001953;0.025391;1.026367;
559480;-0.004883;0.021484;0.992188;
559619;-0.004883;0.020508;0.966797;
559769;-0.011719;0.019531;0.931641;
559924;-0.010742;0.028320;0.919922;
560064;-0.009766;0.028320;0.906250;
560214;-0.010742;0.029297;0.883789;
560354;-0.013672;0.024414;0.866211;
560494;-0.017578;0.024414;0.854492;
560644;-0.018555;0.024414;0.867188;
560784;-0.010742;0.023438;0.912109;
560924;-0.006836;0.014648;0.954102;
561074;-0.008789;0.025391;0.969727;
561214;-0.008789;0.021484;0.999023;
561354;-0.005859;0.021484;1.024414;
561494;-0.001953;0.020508;1.068359;
561634;-0.003906;0.023438;1.078125;
561774;-0.003906;0.024414;1.109375;
561909;-0.003906;0.022461;1.126953;
562050;0.001953;0.025391;1.172852;
562201;0.003906;0.019531;1.191406;
562350;-0.000977;0.018555;1.184570;
562490;0.000000;0.016602;1.202148;
562639;0.000977;0.021484;1.196289;
562794;-0.004883;0.019531;1.171875;
562934;-0.000977;0.020508;1.147461;
563074;-0.001953;0.024414;1.127930;
563214;-0.010742;0.020508;1.098633;
563354;-0.010742;0.021484;1.083984;
563504;-0.013672;0.018555;1.092773;
563644;-0.016602;0.008789;1.083984;
563784;-0.017578;0.019531;1.101562;
563934;-0.015625;0.015625;1.108398;
564074;-0.013672;0.018555;1.142578;
564214;-0.016602;0.020508;1.162109;
564354;-0.012695;0.023438;1.203125;
564494;-0.009766;0.023438;1.212891;
564634;-0.014648;0.032227;1.221680;
564769;-0.009766;0.027344;1.195312;
564910;-0.012695;0.020508;1.180664;
565060;-0.014648;0.022461;1.156250;
565209;-0.015625;0.017578;1.126953;
565351;-0.016602;0.020508;1.095703;
565490;-0.020508;0.021484;1.070312;
565619;-0.021484;0.023438;1.046875;
565764;-0.019531;0.027344;1.035156;
565904;-0.019531;0.028320;1.009766;
566044;-0.019531;0.025391;1.001953;
566184;-0.020508;0.019531;1.006836;
566324;-0.023438;0.022461;1.005859;
566464;-0.016602;0.018555;1.022461;
566614;-0.019531;0.021484;1.049805;
566754;-0.016602;0.019531;1.061523;
566894;-0.018555;0.018555;1.065430;
567034;-0.017578;0.019531;1.073242;
567174;-0.013672;0.022461;1.094727;
567314;-0.020508;0.022461;1.096680;
567454;-0.014648;0.023438;1.100586;
567604;-0.010742;0.016602;1.093750;
567751;-0.015625;0.027344;1.100586;
567890;-0.016602;0.017578;1.092773;
568039;-0.012695;0.024414;1.089844;
568193;-0.018555;0.026367;1.081055;
568331;-0.012695;0.026367;1.081055;
568470;-0.011719;0.020508;1.069336;
568609;-0.012695;0.027344;1.045898;
568749;-0.009766;0.024414;1.032227;
568894;-0.003906;0.032227;1.030273;
569034;-0.008789;0.029297;1.010742;
569174;-0.006836;0.024414;1.000977;
569314;-0.005859;0.027344;1.002930;
569454;-0.009766;0.030273;0.995117;
569594;-0.007812;0.027344;1.006836;
569734;-0.000977;0.015625;1.023438;
569874;-0.003906;0.021484;1.007812;
570024;-0.008789;0.015625;0.993164;
570164;-0.009766;0.022461;1.016602;
570304;-0.011719;0.023438;1.012695;
570444;-0.002930;0.028320;1.032227;
570584;-0.008789;0.024414;1.027344;
570724;-0.011719;0.030273;1.008789;
570860;-0.014648;0.026367;1.026367;
571009;-0.007812;0.024414;1.039062;
571154;-0.005859;0.022461;1.038086;
571300;-0.006836;0.030273;1.033203;
571429;-0.008789;0.031250;1.037109;
571570;-0.015625;0.026367;1.030273;
571709;-0.010742;0.028320;1.042969;
571854;-0.004883;0.022461;1.070312;
571994;-0.004883;0.026367;1.081055;
572134;-0.005859;0.024414;1.072266;
572274;-0.008789;0.023438;1.077148;
572414;-0.009766;0.012695;1.070312;
572564;-0.007812;0.020508;1.050781;
572704;-0.005859;0.018555;1.034180;
572854;-0.011719;0.024414;1.034180;
572994;-0.007812;0.026367;1.022461;
573134;-0.003906;0.025391;1.008789;
573284;-0.009766;0.026367;1.022461;
573424;-0.009766;0.022461;1.020508;
573564;-0.005859;0.021484;1.025391;
573704;-0.009766;0.028320;1.024414;
573840;-0.013672;0.041016;1.034180;
573970;-0.011719;0.030273;1.036133;
574120;-0.011719;0.026367;1.048828;
574271;-0.008789;0.026367;1.056641;
574409;-0.007812;0.026367;1.056641;
574559;-0.006836;0.023438;1.083008;
574714;-0.009766;0.023438;1.095703;
574854;-0.008789;0.026367;1.089844;
574994;0.000000;0.019531;1.104492;
575134;-0.002930;0.026367;1.102539;
575274;-0.006836;0.024414;1.096680;
575414;-0.002930;0.025391;1.110352;
575554;-0.007812;0.023438;1.093750;
575694;-0.007812;0.030273;1.098633;
575834;-0.003906;0.023438;1.085938;
575974;-0.005859;0.023438;1.065430;
576114;-0.008789;0.030273;1.056641;
576254;-0.009766;0.024414;1.043945;
576394;-0.008789;0.017578;1.049805;
576534;-0.007812;0.024414;1.053711;
576670;-0.006836;0.025391;1.045898;
576820;-0.004883;0.019531;1.025391;
576969;-0.005859;0.022461;1.004883;
577119;-0.008789;0.024414;0.980469;
577269;-0.013672;0.021484;0.940430;
577423;-0.011719;0.023438;0.921875;
577559;-0.012695;0.024414;0.921875;
577699;-0.010742;0.021484;0.909180;
577854;-0.010742;0.026367;0.923828;
577994;-0.010742;0.030273;0.927734;
578134;-0.012695;0.026367;0.923828;
578274;-0.009766;0.023438;0.941406;
578414;-0.006836;0.029297;0.966797;
578564;-0.009766;0.023438;0.986328;
578704;-0.003906;0.019531;1.012695;
578844;0.002930;0.024414;1.034180;
578984;-0.000977;0.018555;1.058594;
579124;0.004883;0.014648;1.081055;
579264;0.006836;0.027344;1.085938;
579404;0.000977;0.024414;1.075195;
579544;0.002930;0.027344;1.086914;
579684;0.001953;0.022461;1.078125;
579819;0.000977;0.028320;1.069336;
579971;-0.002930;0.029297;1.048828;
580120;-0.001953;0.027344;1.006836;
580259;-0.004883;0.027344;0.981445;
580409;-0.004883;0.024414;0.975586;
580549;-0.000977;0.022461;0.956055;
580694;-0.004883;0.027344;0.944336;
580829;-0.000977;0.023438;0.955078;
580964;-0.002930;0.027344;0.943359;
581102;-0.002930;0.030273;0.967773;
581239;0.000000;0.029297;0.986328;
581394;-0.001953;0.025391;0.984375;
581534;-0.000977;0.027344;1.009766;
581674;0.003906;0.023438;1.035156;
581814;-0.002930;0.022461;1.043945;
581954;0.000977;0.022461;1.052734;
582094;0.001953;0.026367;1.062500;
582234;0.001953;0.029297;1.077148;
582374;0.000977;0.031250;1.070312;
582514;0.000977;0.022461;1.070312;
582664;-0.001953;0.017578;1.060547;
582804;-0.000977;0.021484;1.071289;
582944;0.002930;0.021484;1.060547;
583084;0.000977;0.021484;1.045898;
583224;-0.001953;0.027344;1.039062;
583360;0.001953;0.027344;1.044922;
583501;-0.002930;0.025391;1.028320;
583639;-0.005859;0.029297;1.028320;
583780;-0.000977;0.027344;1.022461;
583920;0.000977;0.025391;1.016602;
584060;-0.005859;0.025391;0.999023;
584201;-0.002930;0.030273;1.004883;
584340;-0.001953;0.030273;1.003906;
584480;-0.007812;0.033203;0.989258;
584624;-0.004883;0.029297;0.982422;
584774;-0.002930;0.025391;0.998047;
584914;-0.004883;0.027344;1.004883;
585054;-0.001953;0.030273;1.004883;
585204;0.005859;0.026367;1.013672;
585344;0.006836;0.024414;1.008789;
585484;0.009766;0.023438;1.022461;
585624;0.017578;0.019531;1.020508;
585764;0.015625;0.017578;1.023438;
585904;0.020508;0.023438;1.036133;
586044;0.019531;0.019531;1.035156;
586184;0.016602;0.021484;1.041992;
586324;0.015625;0.019531;1.036133;
586464;0.016602;0.023438;1.027344;
586599;0.014648;0.018555;1.027344;
586730;0.014648;0.022461;1.029297;
586880;0.018555;0.020508;1.003906;
587019;0.011719;0.023438;0.996094;
587159;0.013672;0.025391;0.978516;
587304;0.010742;0.028320;0.971680;
587440;0.010742;0.029297;0.966797;
587572;0.011719;0.029297;0.961914;
587710;0.008789;0.031250;0.967773;
587844;0.012695;0.024414;0.984375;
587984;0.008789;0.033203;1.000977;
588124;0.013672;0.030273;1.017578;
588264;0.011719;0.024414;1.017578;
588404;0.013672;0.026367;1.049805;
588544;0.014648;0.027344;1.053711;
588684;0.014648;0.025391;1.067383;
588826;0.013672;0.030273;1.070312;
588974;0.014648;0.028320;1.072266;
589114;0.015625;0.028320;1.069336;
589254;0.012695;0.023438;1.066406;
589394;0.014648;0.023438;1.062500;
589534;0.010742;0.019531;1.045898;
589674;0.014648;0.021484;1.037109;
589810;0.011719;0.023438;1.027344;
589939;0.013672;0.026367;1.028320;
590069;0.010742;0.023438;1.015625;
590199;0.010742;0.024414;1.026367;
590334;0.007812;0.024414;1.015625;
590461;0.008789;0.025391;1.016602;
590600;0.007812;0.024414;1.034180;
590741;0.006836;0.024414;1.026367;
590889;0.004883;0.023438;1.037109;
591020;0.001953;0.025391;1.036133;
591164;0.001953;0.022461;1.021484;
591304;0.001953;0.027344;1.015625;
591454;0.000977;0.025391;1.000000;
591594;0.000977;0.026367;0.993164;
591734;0.000977;0.024414;0.973633;
591884;0.002930;0.022461;0.960938;
592024;0.000977;0.018555;0.939453;
592164;0.001953;0.022461;0.932617;
592304;0.003906;0.015625;0.935547;
592444;0.000000;0.020508;0.923828;
592584;-0.000977;0.020508;0.938477;
592724;-0.001953;0.028320;0.925781;
592864;-0.000977;0.027344;0.931641;
593014;-0.000977;0.027344;0.948242;
593149;-0.001953;0.029297;0.958008;
593289;-0.000977;0.024414;0.969727;
593430;-0.000977;0.026367;0.959961;
593570;0.000977;0.024414;0.977539;
593719;-0.000977;0.022461;0.992188;
593859;0.001953;0.026367;0.995117;
594000;0.001953;0.020508;0.991211;
594144;0.001953;0.027344;1.001953;
594284;0.002930;0.020508;0.991211;
594424;0.000977;0.026367;1.004883;
594564;0.000000;0.024414;0.994141;
594714;-0.001953;0.027344;0.993164;
594854;-0.000977;0.025391;0.993164;
594994;0.002930;0.023438;1.008789;
595134;0.000000;0.026367;0.993164;
595274;-0.000977;0.025391;1.001953;
595424;0.002930;0.022461;0.999023;
595564;-0.002930;0.026367;1.004883;
595704;0.001953;0.031250;1.015625;
595844;0.001953;0.021484;1.013672;
595984;0.002930;0.021484;1.038086;
596119;0.003906;0.025391;1.054688;
596270;0.001953;0.020508;1.052734;
596409;0.001953;0.013672;1.066406;
596550;0.004883;0.020508;1.069336;
596699;0.001953;0.018555;1.057617;
596834;0.004883;0.018555;1.081055;
596969;0.003906;0.016602;1.066406;
597124;0.002930;0.020508;1.088867;
597264;0.007812;0.018555;1.107422;
597404;0.004883;0.021484;1.115234;
597544;0.006836;0.023438;1.148438;
597684;0.010742;0.021484;1.172852;
597824;0.006836;0.025391;1.183594;
597964;0.012695;0.022461;1.193359;
598104;0.009766;0.021484;1.186523;
598244;0.005859;0.025391;1.178711;
598384;0.006836;0.021484;1.161133;
598524;0.001953;0.031250;1.144531;
598664;0.000000;0.025391;1.112305;
598804;0.000000;0.027344;1.104492;
598944;-0.005859;0.020508;1.061523;
599080;-0.009766;0.023438;1.041016;
599219;-0.013672;0.020508;1.013672;
599371;-0.016602;0.023438;1.011719;
599499;-0.013672;0.026367;1.007812;
599644;-0.014648;0.026367;0.991211;
599780;-0.013672;0.029297;0.995117;
599909;-0.009766;0.028320;1.006836;
600040;-0.010742;0.030273;1.011719;
600180;-0.008789;0.032227;1.024414;
600320;-0.007812;0.021484;1.035156;
600474;-0.009766;0.023438;1.032227;
600614;-0.010742;0.028320;1.037109;
600754;-0.008789;0.028320;1.047852;
600894;-0.008789;0.027344;1.056641;
601044;-0.008789;0.028320;1.068359;
601184;-0.003906;0.025391;1.073242;
601324;-0.004883;0.019531;1.077148;
601464;-0.005859;0.024414;1.068359;
601604;-0.007812;0.023438;1.066406;
601744;-0.006836;0.028320;1.084961;
601884;-0.005859;0.027344;1.073242;
602034;-0.006836;0.025391;1.063477;
602174;-0.009766;0.022461;1.062500;
602314;-0.007812;0.024414;1.063477;
602440;-0.007812;0.025391;1.039062;
602580;-0.009766;0.026367;1.035156;
602719;-0.007812;0.021484;1.020508;
602870;-0.009766;0.022461;1.032227;
603009;-0.003906;0.019531;1.025391;
603140;-0.009766;0.027344;1.037109;
603280;-0.008789;0.024414;1.032227;
603424;-0.006836;0.029297;1.028320;
603564;-0.013672;0.028320;1.026367;
603704;-0.013672;0.027344;1.027344;
603844;-0.011719;0.024414;1.021484;
603984;-0.009766;0.023438;1.025391;
604134;-0.012695;0.021484;1.005859;
604274;-0.009766;0.025391;1.007812;
604414;-0.010742;0.022461;1.003906;
604554;-0.013672;0.024414;1.008789;
604694;-0.011719;0.027344;1.009766;
604834;-0.006836;0.023438;1.021484;
604974;-0.008789;0.026367;1.022461;
605114;-0.009766;0.020508;1.012695;
605254;-0.009766;0.021484;1.017578;
605389;-0.011719;0.026367;1.015625;
605519;-0.009766;0.021484;1.027344;
605650;-0.009766;0.022461;1.034180;
605789;-0.008789;0.021484;1.035156;
605919;-0.009766;0.022461;1.041992;
606050;-0.009766;0.029297;1.043945;
606190;-0.010742;0.029297;1.026367;
606334;-0.010742;0.026367;1.030273;
606484;-0.013672;0.031250;1.002930;
606624;-0.007812;0.023438;1.003906;
606764;-0.010742;0.025391;1.003906;
606904;-0.009766;0.025391;0.985352;
607044;-0.008789;0.026367;0.969727;
607184;-0.013672;0.022461;0.958008;
607324;-0.015625;0.023438;0.953125;
607464;-0.012695;0.026367;0.959961;
607604;-0.014648;0.022461;0.959961;
607754;-0.010742;0.026367;0.970703;
607894;-0.010742;0.024414;0.983398;
608034;-0.013672;0.017578;0.984375;
608174;-0.013672;0.022461;0.984375;
608309;-0.011719;0.017578;1.011719;
608450;-0.009766;0.014648;1.014648;
608589;-0.012695;0.021484;1.038086;
608740;-0.008789;0.022461;1.056641;
608869;-0.008789;0.019531;1.060547;
609011;-0.005859;0.019531;1.065430;
609139;-0.005859;0.022461;1.072266;
609289;-0.005859;0.027344;1.086914;
609434;-0.006836;0.021484;1.076172;
609574;-0.007812;0.022461;1.082031;
609714;-0.006836;0.022461;1.072266;
609854;-0.005859;0.022461;1.074219;
609994;-0.007812;0.018555;1.052734;
610144;-0.008789;0.018555;1.036133;
610284;-0.013672;0.022461;1.040039;
610424;-0.013672;0.023438;1.019531;
610564;-0.009766;0.023438;1.017578;
610704;-0.012695;0.022461;1.006836;
610844;-0.010742;0.021484;0.997070;
610984;-0.008789;0.022461;0.989258;
611134;-0.009766;0.027344;0.998047;
611274;-0.011719;0.021484;0.975586;
611409;-0.015625;0.026367;0.985352;
611541;-0.013672;0.028320;0.986328;
611689;-0.013672;0.025391;0.986328;
611834;-0.010742;0.019531;0.986328;
611971;-0.015625;0.025391;0.985352;
612119;-0.012695;0.021484;0.971680;
612260;-0.011719;0.026367;0.981445;
612410;-0.015625;0.018555;0.967773;
612560;-0.012695;0.021484;0.969727;
612704;-0.009766;0.023438;0.977539;
612854;-0.011719;0.029297;0.977539;
612994;-0.013672;0.021484;0.974609;
613134;-0.009766;0.030273;0.983398;
613284;-0.010742;0.021484;0.973633;
613424;-0.011719;0.025391;0.976562;
613564;-0.013672;0.023438;0.970703;
613704;-0.012695;0.024414;0.968750;
613844;-0.013672;0.021484;0.968750;
613994;-0.012695;0.029297;0.989258;
614134;-0.012695;0.029297;0.991211;
614274;-0.010742;0.026367;0.985352;
614414;-0.009766;0.021484;0.983398;
614554;-0.010742;0.020508;0.989258;
614690;-0.009766;0.021484;0.992188;
614830;-0.013672;0.026367;1.007812;
614971;-0.010742;0.024414;1.000000;
615119;-0.010742;0.022461;1.007812;
615270;-0.013672;0.024414;1.012695;
615422;-0.007812;0.026367;1.025391;
615564;-0.010742;0.021484;1.029297;
615699;-0.008789;0.022461;1.028320;
615840;-0.011719;0.025391;1.031250;
615971;-0.007812;0.027344;1.046875;
616119;-0.006836;0.022461;1.049805;
616264;-0.011719;0.023438;1.052734;
616414;-0.008789;0.022461;1.064453;
616554;-0.003906;0.025391;1.072266;
616694;-0.007812;0.018555;1.071289;
616834;-0.006836;0.023438;1.068359;
616974;-0.007812;0.026367;1.094727;
617114;-0.007812;0.026367;1.081055;
617254;-0.004883;0.021484;1.090820;
617394;-0.006836;0.027344;1.104492;
617534;-0.008789;0.023438;1.100586;
617674;-0.005859;0.022461;1.092773;
617814;-0.005859;0.024414;1.100586;
617954;-0.008789;0.028320;1.099609;
618094;-0.009766;0.021484;1.087891;
618230;-0.004883;0.030273;1.093750;
618370;-0.007812;0.028320;1.074219;
618514;-0.008789;0.026367;1.065430;
618650;-0.008789;0.021484;1.039062;
618789;-0.010742;0.022461;1.017578;
618934;-0.011719;0.023438;1.006836;
619069;-0.009766;0.027344;0.991211;
619200;-0.011719;0.025391;0.990234;
619329;-0.010742;0.027344;0.972656;
619479;-0.012695;0.031250;0.958984;
619619;-0.016602;0.030273;0.964844;
619759;-0.016602;0.027344;0.974609;
619904;-0.010742;0.024414;0.987305;
620044;-0.010742;0.028320;1.021484;
620184;-0.010742;0.027344;1.026367;
620324;-0.006836;0.029297;1.059570;
620464;-0.008789;0.021484;1.062500;
620604;-0.008789;0.022461;1.085938;
620744;-0.006836;0.021484;1.095703;
620884;-0.007812;0.019531;1.097656;
621024;-0.007812;0.024414;1.118164;
621164;-0.004883;0.025391;1.116211;
621314;-0.006836;0.023438;1.113281;
621454;-0.006836;0.024414;1.105469;
621594;-0.007812;0.018555;1.096680;
621744;-0.006836;0.022461;1.069336;
621879;-0.008789;0.023438;1.053711;
622030;-0.010742;0.023438;1.037109;
622170;-0.009766;0.026367;1.035156;
622310;-0.008789;0.025391;1.032227;
622459;-0.007812;0.024414;1.022461;
622590;-0.008789;0.025391;1.014648;
622744;-0.009766;0.022461;1.002930;
622884;-0.015625;0.026367;0.984375;
623024;-0.009766;0.027344;0.991211;
623164;-0.010742;0.024414;0.977539;
623304;-0.009766;0.025391;0.989258;
623444;-0.005859;0.028320;1.012695;
623584;-0.010742;0.020508;1.007812;
623724;-0.011719;0.026367;1.018555;
623864;-0.007812;0.024414;1.028320;
624004;-0.011719;0.026367;1.041992;
624144;-0.009766;0.028320;1.046875;
624294;-0.005859;0.024414;1.060547;
624434;-0.008789;0.024414;1.074219;
624574;-0.008789;0.028320;1.072266;
624710;-0.009766;0.026367;1.063477;
624850;-0.008789;0.024414;1.058594;
624990;-0.010742;0.027344;1.052734;
625140;-0.009766;0.028320;1.049805;
625294;-0.007812;0.024414;1.045898;
625434;-0.008789;0.024414;1.064453;
625574;-0.009766;0.021484;1.060547;
625714;-0.007812;0.025391;1.053711;
625854;-0.008789;0.025391;1.067383;
625989;-0.011719;0.024414;1.055664;
626130;-0.006836;0.023438;1.072266;
626279;-0.006836;0.021484;1.076172;
626420;-0.009766;0.021484;1.080078;
626574;-0.002930;0.021484;1.079102;
626714;-0.006836;0.025391;1.091797;
626854;-0.005859;0.025391;1.091797;
626994;-0.005859;0.020508;1.080078;
627134;-0.009766;0.022461;1.090820;
627274;-0.006836;0.025391;1.094727;
627414;-0.006836;0.021484;1.093750;
627564;-0.007812;0.024414;1.093750;
627704;-0.003906;0.026367;1.097656;
627844;-0.004883;0.026367;1.100586;
627984;-0.006836;0.022461;1.078125;
628124;-0.007812;0.024414;1.073242;
628264;-0.010742;0.024414;1.056641;
628404;-0.009766;0.027344;1.047852;
628540;-0.007812;0.025391;1.051758;
628680;-0.007812;0.023438;1.032227;
628820;-0.010742;0.022461;1.015625;
628960;-0.009766;0.021484;1.011719;
629103;-0.010742;0.018555;0.992188;
629239;-0.013672;0.020508;0.995117;
629389;-0.008789;0.022461;1.000977;
629530;-0.011719;0.025391;0.996094;
629679;-0.010742;0.025391;0.998047;
629834;-0.009766;0.023438;0.995117;
629974;-0.008789;0.025391;1.000977;
630114;-0.009766;0.027344;1.003906;
630254;-0.013672;0.028320;0.997070;
630394;-0.012695;0.023438;0.988281;
630534;-0.010742;0.029297;0.995117;
630674;-0.013672;0.027344;0.987305;
630814;-0.010742;0.026367;0.989258;
630954;-0.010742;0.026367;0.988281;
631094;-0.009766;0.027344;1.001953;
631234;-0.010742;0.024414;0.982422;
631374;-0.011719;0.027344;0.994141;
631514;-0.010742;0.021484;1.000977;
631654;-0.009766;0.028320;0.992188;
631791;-0.011719;0.022461;0.999023;
631929;-0.010742;0.023438;1.000000;
632079;-0.010742;0.025391;0.998047;
632220;-0.011719;0.022461;0.989258;
632370;-0.012695;0.020508;0.977539;
632501;-0.011719;0.022461;0.974609;
632634;-0.011719;0.019531;0.988281;
632774;-0.007812;0.026367;0.995117;
632914;-0.011719;0.023438;0.988281;
633054;-0.010742;0.024414;0.991211;
633194;-0.010742;0.022461;0.990234;
633334;-0.010742;0.019531;0.992188;
633484;-0.011719;0.023438;0.994141;
633624;-0.009766;0.021484;1.000977;
633764;-0.007812;0.025391;1.009766;
633904;-0.009766;0.024414;0.999023;
634044;-0.008789;0.024414;1.005859;
634184;-0.012695;0.023438;1.002930;
634324;-0.012695;0.025391;1.006836;
634464;-0.010742;0.022461;1.019531;
634600;-0.009766;0.024414;1.024414;
634751;-0.007812;0.023438;1.023438;
634889;-0.007812;0.020508;1.019531;
635040;-0.010742;0.021484;1.024414;
635190;-0.008789;0.021484;1.022461;
635324;-0.012695;0.023438;1.013672;
635459;-0.010742;0.024414;1.023438;
635604;-0.010742;0.023438;1.035156;
635740;-0.006836;0.021484;1.048828;
635874;-0.005859;0.025391;1.072266;
636014;-0.008789;0.021484;1.077148;
636154;-0.006836;0.024414;1.088867;
636294;-0.006836;0.028320;1.099609;
636434;-0.003906;0.024414;1.134766;
636574;-0.001953;0.026367;1.141602;
636714;-0.003906;0.023438;1.125977;
636854;-0.004883;0.020508;1.109375;
636994;-0.002930;0.020508;1.069336;
637144;-0.008789;0.019531;1.023438;
637284;-0.012695;0.024414;0.992188;
637424;-0.011719;0.018555;0.969727;
637574;-0.011719;0.018555;0.972656;
637714;-0.010742;0.019531;0.972656;
637850;-0.008789;0.021484;0.969727;
637989;-0.008789;0.021484;0.964844;
638140;-0.009766;0.022461;0.955078;
638280;-0.008789;0.021484;0.967773;
638420;-0.010742;0.026367;0.975586;
638560;-0.006836;0.022461;0.991211;
638702;-0.007812;0.020508;1.002930;
638849;-0.008789;0.019531;1.007812;
638979;-0.006836;0.023438;1.013672;
639109;-0.009766;0.023438;1.033203;
639254;-0.009766;0.024414;1.049805;
639394;-0.006836;0.020508;1.058594;
639534;-0.006836;0.021484;1.051758;
639674;-0.005859;0.021484;1.048828;
639814;-0.006836;0.018555;1.041016;
639954;-0.008789;0.025391;1.028320;
640094;-0.007812;0.022461;1.022461;
640234;-0.005859;0.017578;1.018555;
640374;-0.005859;0.020508;1.005859;
640524;-0.008789;0.020508;0.990234;
640664;-0.010742;0.022461;0.971680;
640804;-0.013672;0.023438;0.958984;
640944;-0.012695;0.023438;0.962891;
641084;-0.009766;0.026367;0.959961;
641224;-0.012695;0.022461;0.950195;
641359;-0.011719;0.026367;0.956055;
641491;-0.009766;0.025391;0.955078;
641630;-0.010742;0.026367;0.954102;
641760;-0.008789;0.024414;0.969727;
641909;-0.009766;0.026367;0.978516;
642059;-0.009766;0.023438;0.982422;
642199;-0.006836;0.026367;0.986328;
642350;-0.008789;0.025391;1.000000;
642500;-0.008789;0.020508;1.000000;
642654;-0.002930;0.022461;1.000000;
642794;-0.004883;0.023438;0.996094;
642934;-0.004883;0.021484;0.997070;
643074;-0.002930;0.023438;1.004883;
643214;-0.001953;0.019531;1.006836;
643354;-0.003906;0.024414;1.003906;
643504;-0.004883;0.022461;0.991211;
643644;-0.006836;0.019531;0.999023;
643784;-0.008789;0.027344;0.999023;
643924;-0.004883;0.023438;1.007812;
644064;-0.000977;0.023438;1.007812;
644214;-0.001953;0.024414;1.009766;
644354;0.003906;0.028320;1.003906;
644494;0.009766;0.025391;1.008789;
644640;0.012695;0.026367;1.006836;
644780;0.015625;0.023438;1.012695;
644920;0.016602;0.021484;1.008789;
645060;0.017578;0.021484;1.006836;
645200;0.017578;0.019531;1.018555;
645330;0.018555;0.020508;1.023438;
645470;0.019531;0.019531;1.027344;
645604;0.018555;0.021484;1.035156;
645744;0.023438;0.023438;1.044922;
645884;0.024414;0.022461;1.041992;
646024;0.029297;0.024414;1.050781;
646164;0.030273;0.025391;1.056641;
646304;0.032227;0.020508;1.053711;
646444;0.039062;0.020508;1.055664;
646584;0.040039;0.023438;1.045898;
646724;0.043945;0.020508;1.071289;
646874;0.043945;0.020508;1.067383;
647014;0.046875;0.015625;1.077148;
647154;0.043945;0.020508;1.083008;
647294;0.045898;0.019531;1.085938;
647434;0.047852;0.020508;1.089844;
647570;0.048828;0.021484;1.097656;
647710;0.044922;0.021484;1.097656;
647850;0.050781;0.013672;1.086914;
647994;0.044922;0.019531;1.083984;
648141;0.047852;0.016602;1.080078;
648281;0.047852;0.020508;1.085938;
648430;0.045898;0.024414;1.086914;
648569;0.045898;0.025391;1.093750;
648699;0.049805;0.027344;1.096680;
648854;0.047852;0.030273;1.099609;
648994;0.048828;0.033203;1.092773;
649134;0.053711;0.022461;1.103516;
649274;0.048828;0.026367;1.090820;
649414;0.049805;0.018555;1.101562;
649554;0.046875;0.019531;1.063477;
649694;0.050781;0.016602;1.050781;
649834;0.045898;0.018555;1.029297;
649974;0.046875;0.010742;1.033203;
650114;0.041992;0.016602;1.000977;
650254;0.044922;0.017578;1.014648;
650394;0.041016;0.019531;0.998047;
650544;0.044922;0.022461;0.990234;
650684;0.041016;0.025391;1.006836;
650820;0.044922;0.026367;1.033203;
650949;0.047852;0.025391;1.041016;
651089;0.044922;0.028320;1.048828;
651232;0.046875;0.024414;1.046875;
651381;0.047852;0.026367;1.057617;
651530;0.049805;0.029297;1.050781;
651670;0.043945;0.028320;1.046875;
651824;0.048828;0.023438;1.059570;
651964;0.046875;0.022461;1.063477;
652104;0.049805;0.027344;1.050781;
652254;0.046875;0.019531;1.041992;
652394;0.049805;0.018555;1.010742;
652534;0.044922;0.023438;1.000977;
652684;0.043945;0.019531;0.997070;
652824;0.045898;0.023438;0.980469;
652964;0.044922;0.020508;0.960938;
653114;0.047852;0.022461;0.953125;
653254;0.049805;0.025391;0.951172;
653394;0.050781;0.027344;0.952148;
653534;0.048828;0.023438;0.956055;
653674;0.050781;0.022461;0.954102;
653810;0.052734;0.026367;0.954102;
653961;0.051758;0.026367;0.959961;
654109;0.053711;0.027344;0.962891;
654249;0.052734;0.023438;0.963867;
654389;0.057617;0.027344;0.987305;
654529;0.054688;0.022461;0.977539;
654674;0.054688;0.024414;0.978516;
654824;0.054688;0.028320;0.982422;
654964;0.054688;0.027344;0.984375;
655104;0.055664;0.028320;0.975586;
655244;0.054688;0.020508;0.956055;
655384;0.056641;0.021484;0.960938;
655524;0.058594;0.022461;0.941406;
655674;0.056641;0.023438;0.963867;
655814;0.057617;0.023438;0.991211;
655954;0.061523;0.023438;1.011719;
656104;0.060547;0.023438;1.068359;
656244;0.065430;0.023438;1.104492;
656384;0.070312;0.020508;1.149414;
656524;0.071289;0.027344;1.178711;
656659;0.072266;0.026367;1.201172;
656809;0.080078;0.021484;1.228516;
656950;0.078125;0.020508;1.254883;
657100;0.080078;0.019531;1.250977;
657250;0.078125;0.027344;1.246094;
657390;0.075195;0.025391;1.240234;
657530;0.076172;0.028320;1.229492;
657674;0.074219;0.030273;1.208984;
657814;0.075195;0.030273;1.201172;
657954;0.075195;0.030273;1.189453;
658094;0.076172;0.028320;1.172852;
658234;0.071289;0.026367;1.163086;
658374;0.077148;0.027344;1.150391;
658514;0.073242;0.027344;1.147461;
658654;0.074219;0.022461;1.141602;
658804;0.071289;0.022461;1.133789;
658944;0.073242;0.020508;1.138672;
659094;0.071289;0.021484;1.122070;
659234;0.072266;0.026367;1.129883;
659374;0.074219;0.022461;1.105469;
659524;0.074219;0.029297;1.096680;
659669;0.072266;0.021484;1.077148;
659809;0.073242;0.016602;1.059570;
659961;0.073242;0.018555;1.056641;
660099;0.069336;0.020508;1.034180;
660230;0.070312;0.020508;1.027344;
660360;0.066406;0.022461;1.011719;
660514;0.065430;0.025391;1.001953;
660654;0.067383;0.023438;0.976562;
660804;0.063477;0.022461;0.959961;
660944;0.064453;0.018555;0.927734;
661084;0.064453;0.021484;0.930664;
661224;0.062500;0.016602;0.914062;
661364;0.061523;0.024414;0.902344;
661504;0.062500;0.016602;0.897461;
661644;0.064453;0.022461;0.892578;
661784;0.062500;0.018555;0.875000;
661924;0.060547;0.019531;0.888672;
662064;0.062500;0.017578;0.883789;
662204;0.060547;0.024414;0.897461;
662344;0.064453;0.024414;0.891602;
662481;0.060547;0.023438;0.885742;
662630;0.064453;0.024414;0.900391;
662779;0.062500;0.024414;0.914062;
662920;0.062500;0.024414;0.917969;
663070;0.062500;0.023438;0.910156;
663199;0.067383;0.026367;0.924805;
663330;0.060547;0.033203;0.905273;
663459;0.063477;0.040039;0.936523;
663591;0.059570;0.035156;0.915039;
663734;0.063477;0.035156;0.916992;
663874;0.061523;0.038086;0.916016;
664014;0.064453;0.036133;0.920898;
664154;0.063477;0.036133;0.924805;
664294;0.064453;0.028320;0.931641;
664434;0.066406;0.033203;0.924805;
664574;0.064453;0.025391;0.914062;
664714;0.065430;0.019531;0.938477;
664854;0.069336;0.018555;0.934570;
664994;0.062500;0.018555;0.941406;
665134;0.069336;0.020508;0.949219;
665274;0.066406;0.020508;0.935547;
665414;0.068359;0.011719;0.940430;
665564;0.069336;0.013672;0.947266;
665699;0.070312;0.008789;0.969727;
665839;0.070312;0.014648;0.965820;
665984;0.070312;0.012695;0.969727;
666124;0.070312;0.013672;0.988281;
666259;0.071289;0.019531;1.003906;
666390;0.069336;0.018555;1.041016;
666521;0.077148;0.018555;1.122070;
666670;0.078125;0.017578;1.161133;
666810;0.079102;0.016602;1.265625;
666964;0.083984;0.015625;1.378906;
667104;0.093750;0.021484;1.449219;
667244;0.097656;0.016602;1.539062;
667384;0.105469;0.018555;1.630859;
667524;0.105469;0.014648;1.695312;
667664;0.112305;0.020508;1.745117;
667804;0.115234;0.019531;1.815430;
667944;0.117188;0.012695;1.837891;
668084;0.124023;0.013672;1.848633;
668234;0.125000;0.013672;1.857422;
668374;0.123047;0.010742;1.874023;
668514;0.121094;0.016602;1.874023;
668654;0.126953;0.013672;1.845703;
668794;0.125977;0.009766;1.843750;
668944;0.125000;0.010742;1.858398;
669079;0.122070;0.008789;1.856445;
669230;0.124023;0.008789;1.866211;
669370;0.125977;0.015625;1.861328;
669509;0.119141;0.022461;1.854492;
669659;0.120117;0.022461;1.859375;
669799;0.119141;0.024414;1.834961;
669954;0.125000;0.021484;1.838867;
670094;0.119141;0.012695;1.834961;
670234;0.122070;0.016602;1.819336;
670374;0.122070;0.019531;1.836914;
670514;0.120117;0.018555;1.843750;
670664;0.121094;0.020508;1.853516;
670804;0.122070;0.013672;1.834961;
670944;0.123047;0.015625;1.862305;
671094;0.125977;0.016602;1.878906;
671234;0.126953;0.017578;1.883789;
671374;0.124023;0.014648;1.869141;
671524;0.125000;0.015625;1.888672;
671664;0.126953;0.018555;1.892578;
671804;0.127930;0.008789;1.895508;
671941;0.124023;0.005859;1.879883;
672090;0.130859;0.004883;1.875000;
672220;0.125000;0.011719;1.875000;
672361;0.128906;0.018555;1.874023;
672510;0.127930;0.020508;1.862305;
672660;0.125000;0.017578;1.862305;
672809;0.125977;0.014648;1.853516;
672954;0.129883;0.007812;1.844727;
673089;0.125977;0.010742;1.853516;
673240;0.122070;0.014648;1.845703;
673384;0.125977;0.006836;1.839844;
673524;0.125000;0.000977;1.839844;
673674;0.127930;0.005859;1.842773;
673814;0.126953;0.009766;1.839844;
673954;0.124023;0.003906;1.852539;
674094;0.129883;0.011719;1.840820;
674234;0.129883;0.019531;1.835938;
674384;0.124023;0.015625;1.830078;
674524;0.126953;0.021484;1.842773;
674664;0.130859;0.026367;1.855469;
674804;0.131836;0.022461;1.862305;
674944;0.130859;0.017578;1.859375;
675084;0.131836;0.020508;1.863281;
675234;0.129883;0.021484;1.861328;
675369;0.131836;0.014648;1.866211;
675499;0.135742;0.016602;1.862305;
675630;0.134766;0.014648;1.857422;
675764;0.134766;0.014648;1.861328;
675889;0.133789;0.007812;1.845703;
676042;0.136719;0.012695;1.852539;
676191;0.135742;0.013672;1.837891;
676329;0.139648;0.009766;1.827148;
676470;0.136719;0.012695;1.838867;
676624;0.134766;0.014648;1.824219;
676774;0.135742;0.007812;1.820312;
676914;0.138672;0.003906;1.813477;
677064;0.132812;0.004883;1.799805;
677204;0.132812;0.005859;1.775391;
677344;0.131836;0.010742;1.764648;
677484;0.134766;0.019531;1.793945;
677624;0.135742;0.022461;1.795898;
677764;0.134766;0.020508;1.787109;
677904;0.135742;0.014648;1.784180;
678044;0.139648;0.012695;1.791016;
678184;0.140625;0.010742;1.805664;
678324;0.142578;0.016602;1.814453;
678464;0.142578;0.014648;1.829102;
678601;0.143555;0.017578;1.824219;
678730;0.147461;0.012695;1.814453;
678871;0.144531;0.011719;1.810547;
679010;0.150391;0.013672;1.812500;
679150;0.152344;0.011719;1.824219;
679280;0.145508;0.008789;1.825195;
679410;0.151367;0.011719;1.833984;
679539;0.152344;0.009766;1.828125;
679694;0.152344;0.012695;1.823242;
679834;0.154297;0.019531;1.821289;
679974;0.152344;0.017578;1.818359;
680114;0.154297;0.017578;1.819336;
680254;0.153320;0.019531;1.816406;
680394;0.157227;0.021484;1.822266;
680534;0.157227;0.018555;1.833008;
680674;0.158203;0.023438;1.812500;
680814;0.160156;0.023438;1.814453;
680954;0.161133;0.022461;1.819336;
681094;0.162109;0.028320;1.811523;
681234;0.166016;0.021484;1.813477;
681374;0.161133;0.014648;1.808594;
681514;0.166016;0.017578;1.816406;
681660;0.164062;0.013672;1.810547;
681799;0.167969;0.007812;1.797852;
681939;0.166992;0.004883;1.801758;
682073;0.167969;0.003906;1.786133;
682221;0.168945;0.005859;1.812500;
682364;0.171875;0.003906;1.808594;
682509;0.173828;-0.000977;1.815430;
682659;0.175781;-0.000977;1.820312;
682789;0.174805;0.009766;1.824219;
682944;0.181641;0.000000;1.847656;
683084;0.178711;0.004883;1.834961;
683224;0.180664;0.012695;1.842773;
683364;0.183594;0.035156;1.852539;
683504;0.181641;0.034180;1.875977;
683654;0.181641;0.051758;1.865234;
683794;0.186523;0.059570;1.866211;
683934;0.184570;0.049805;1.859375;
684074;0.182617;0.046875;1.817383;
684214;0.183594;0.041016;1.778320;
684354;0.183594;0.031250;1.744141;
684494;0.184570;0.016602;1.745117;
684634;0.187500;0.012695;1.730469;
684774;0.187500;0.007812;1.701172;
684910;0.189453;0.005859;1.707031;
685049;0.191406;0.010742;1.722656;
685204;0.191406;0.012695;1.720703;
685344;0.195312;0.006836;1.731445;
685489;0.199219;0.005859;1.752930;
685639;0.199219;0.003906;1.751953;
685779;0.203125;0.004883;1.770508;
685929;0.205078;0.002930;1.779297;
686074;0.206055;0.010742;1.809570;
686214;0.211914;0.002930;1.809570;
686354;0.208984;-0.000977;1.832031;
686494;0.208008;0.004883;1.812500;
686644;0.199219;0.015625;1.774414;
686784;0.194336;0.014648;1.749023;
686924;0.184570;0.027344;1.728516;
687064;0.181641;0.040039;1.739258;
687204;0.174805;0.025391;1.704102;
687354;0.164062;0.027344;1.679688;
687494;0.159180;0.026367;1.665039;
687634;0.150391;0.017578;1.640625;
687774;0.146484;0.024414;1.627930;
687914;0.138672;0.026367;1.590820;
688049;0.128906;0.020508;1.541992;
688199;0.116211;0.017578;1.433594;
688340;0.105469;0.019531;1.364258;
688479;0.086914;0.009766;1.232422;
688629;0.071289;0.005859;1.114258;
688770;0.060547;0.004883;1.031250;
688900;0.044922;0.006836;0.912109;
689030;0.032227;0.007812;0.760742;
689170;0.018555;0.010742;0.644531;
689314;0.009766;0.014648;0.509766;
689464;0.004883;0.016602;0.411133;
689604;0.000977;0.013672;0.328125;
689744;0.004883;0.015625;0.265625;
689894;0.003906;0.017578;0.211914;
690034;-0.000977;0.017578;0.144531;
690174;-0.006836;0.020508;0.101562;
690314;0.001953;0.021484;0.098633;
690454;-0.003906;0.025391;0.070312;
690594;-0.005859;0.025391;0.056641;
690734;-0.002930;0.027344;0.042969;
690874;-0.003906;0.030273;0.047852;
691014;-0.005859;0.030273;0.042969;
691164;-0.008789;0.034180;0.039062;
691300;-0.004883;0.034180;0.033203;
691450;-0.007812;0.035156;0.033203;
691600;-0.005859;0.034180;0.032227;
691741;-0.007812;0.034180;0.027344;
691889;-0.010742;0.037109;0.022461;
692041;-0.008789;0.037109;0.010742;
692173;-0.006836;0.033203;0.003906;
692309;-0.010742;0.034180;-0.004883;
692449;-0.007812;0.039062;-0.006836;
692589;-0.007812;0.036133;-0.020508;
692744;-0.012695;0.034180;-0.028320;
692884;-0.011719;0.033203;-0.021484;
693034;-0.005859;0.033203;-0.019531;
693169;-0.010742;0.034180;-0.030273;
693324;-0.010742;0.035156;-0.019531;
693474;-0.011719;0.036133;-0.026367;
693614;-0.011719;0.033203;-0.033203;
693756;-0.009766;0.037109;-0.028320;
693894;-0.012695;0.035156;-0.025391;
694034;-0.011719;0.036133;-0.019531;
694174;-0.011719;0.034180;-0.019531;
694316;-0.013672;0.037109;-0.014648;
694464;-0.011719;0.035156;-0.007812;
694604;-0.013672;0.034180;0.008789;
694741;-0.013672;0.037109;0.002930;
694869;-0.009766;0.035156;0.020508;
695009;-0.011719;0.034180;0.018555;
695159;-0.014648;0.036133;0.013672;
695299;-0.013672;0.032227;0.024414;
695430;-0.012695;0.035156;0.031250;
695570;-0.015625;0.034180;0.023438;
695709;-0.012695;0.034180;0.036133;
695850;-0.012695;0.036133;0.039062;
695989;-0.012695;0.030273;0.047852;
696144;-0.016602;0.035156;0.025391;
696284;-0.013672;0.031250;0.041016;
696424;-0.017578;0.035156;0.029297;
696574;-0.014648;0.030273;0.031250;
696714;-0.014648;0.031250;0.033203;
696854;-0.016602;0.026367;0.026367;
696994;-0.017578;0.030273;0.021484;
697134;-0.016602;0.031250;0.016602;
697284;-0.014648;0.023438;0.027344;
697424;-0.017578;0.025391;0.016602;
697574;-0.012695;0.026367;0.016602;
697714;-0.012695;0.030273;0.012695;
697854;-0.013672;0.030273;0.003906;
697994;-0.015625;0.031250;0.003906;
698129;-0.014648;0.030273;0.006836;
698269;-0.013672;0.026367;0.003906;
698410;-0.014648;0.025391;0.013672;
698559;-0.014648;0.031250;0.008789;
698714;-0.014648;0.027344;0.010742;
698844;-0.013672;0.030273;0.015625;
698980;-0.012695;0.027344;0.013672;
699109;-0.014648;0.027344;0.013672;
699260;-0.014648;0.030273;0.017578;
699410;-0.012695;0.028320;0.017578;
699560;-0.014648;0.029297;0.016602;
699714;-0.013672;0.028320;0.017578;
699854;-0.014648;0.028320;0.011719;
700004;-0.016602;0.029297;0.011719;
700149;-0.015625;0.028320;0.023438;
700290;-0.016602;0.026367;0.016602;
700434;-0.015625;0.028320;0.017578;
700574;-0.017578;0.022461;0.020508;
700714;-0.015625;0.024414;0.017578;
700864;-0.016602;0.023438;0.018555;
701014;-0.017578;0.025391;0.025391;
701154;-0.014648;0.025391;0.021484;
701294;-0.017578;0.024414;0.020508;
701430;-0.015625;0.025391;0.017578;
701569;-0.015625;0.027344;0.025391;
701720;-0.015625;0.026367;0.024414;
701860;-0.016602;0.024414;0.030273;
702002;-0.017578;0.025391;0.024414;
702150;-0.014648;0.025391;0.024414;
702299;-0.015625;0.026367;0.030273;
702449;-0.017578;0.024414;0.028320;
702589;-0.019531;0.026367;0.022461;
702744;-0.015625;0.025391;0.015625;
702884;-0.016602;0.024414;0.015625;
703024;-0.019531;0.023438;0.013672;
703174;-0.016602;0.022461;0.011719;
703314;-0.017578;0.025391;0.008789;
703450;-0.018555;0.024414;-0.004883;
703594;-0.017578;0.023438;0.004883;
703734;-0.017578;0.024414;0.006836;
703884;-0.018555;0.026367;0.006836;
704024;-0.018555;0.025391;0.011719;
704174;-0.019531;0.025391;-0.000977;
704314;-0.018555;0.027344;-0.006836;
704454;-0.019531;0.025391;0.006836;
704594;-0.021484;0.027344;-0.003906;
704739;-0.018555;0.024414;0.014648;
704881;-0.021484;0.021484;0.014648;
705030;-0.019531;0.022461;0.005859;
705169;-0.020508;0.023438;0.019531;
705321;-0.018555;0.022461;0.014648;
705471;-0.018555;0.023438;0.024414;
705601;-0.020508;0.022461;0.010742;
705754;-0.021484;0.024414;0.014648;
705894;-0.020508;0.025391;0.014648;
706034;-0.022461;0.020508;0.010742;
706174;-0.020508;0.024414;0.012695;
706324;-0.022461;0.021484;0.010742;
706464;-0.021484;0.023438;0.013672;
706604;-0.021484;0.020508;0.007812;
706754;-0.021484;0.023438;0.016602;
706894;-0.022461;0.023438;0.015625;
707044;-0.023438;0.024414;0.015625;
707184;-0.023438;0.023438;0.014648;
707324;-0.024414;0.026367;0.012695;
707474;-0.023438;0.021484;0.019531;
707614;-0.026367;0.025391;0.017578;
707749;-0.027344;0.024414;0.014648;
707889;-0.025391;0.023438;0.023438;
708020;-0.025391;0.026367;0.015625;
708169;-0.026367;0.023438;0.017578;
708310;-0.025391;0.025391;0.016602;
708459;-0.025391;0.022461;0.010742;
708600;-0.024414;0.019531;0.016602;
708739;-0.024414;0.021484;0.009766;
708879;-0.027344;0.020508;0.008789;
709029;-0.027344;0.016602;0.005859;
709174;-0.029297;0.019531;0.002930;
709314;-0.026367;0.016602;0.005859;
709454;-0.027344;0.015625;0.001953;
709594;-0.027344;0.017578;0.002930;
709734;-0.029297;0.016602;0.003906;
709875;-0.028320;0.015625;-0.008789;
710010;-0.028320;0.016602;-0.010742;
710154;-0.028320;0.017578;-0.010742;
710304;-0.030273;0.017578;-0.002930;
710444;-0.034180;0.014648;-0.017578;
710584;-0.032227;0.014648;-0.024414;
710720;-0.030273;0.017578;-0.016602;
710864;-0.033203;0.016602;-0.013672;
711004;-0.031250;0.021484;-0.014648;
711139;-0.035156;0.015625;-0.019531;
711291;-0.035156;0.025391;-0.021484;
711440;-0.034180;0.019531;-0.016602;
711581;-0.036133;0.022461;-0.015625;
711730;-0.036133;0.020508;-0.016602;
711869;-0.035156;0.021484;-0.006836;
712000;-0.036133;0.023438;-0.002930;
712140;-0.036133;0.018555;0.011719;
712281;-0.038086;0.015625;0.010742;
712420;-0.037109;0.013672;0.028320;
712574;-0.039062;0.017578;0.021484;
712714;-0.041016;0.019531;0.032227;
712854;-0.044922;0.021484;0.052734;
712994;-0.046875;0.023438;0.068359;
713134;-0.048828;0.019531;0.137695;
713274;-0.048828;0.021484;0.187500;
713414;-0.041992;0.020508;0.299805;
713554;-0.038086;0.026367;0.381836;
713694;-0.040039;0.028320;0.510742;
713834;-0.036133;0.027344;0.544922;
713984;-0.009766;0.028320;0.706055;
714124;-0.017578;0.023438;0.790039;
714264;-0.006836;0.021484;0.929688;
714404;0.004883;0.017578;1.000977;
714540;0.019531;0.037109;1.176758;
714684;-0.000977;0.025391;1.164062;
714811;0.026367;0.030273;1.211914;
714950;0.027344;0.030273;1.308594;
