Time;acc_x;acc_y;acc_z;

2217;-0.035156;0.038086;1.035156;
2363;-0.033203;0.039062;1.036133;
2503;-0.033203;0.039062;1.036133;
2643;-0.033203;0.036133;1.035156;
2783;-0.034180;0.038086;1.039062;
2923;-0.034180;0.037109;1.037109;
3063;-0.033203;0.038086;1.030273;
3204;-0.034180;0.036133;1.036133;
3344;-0.035156;0.039062;1.038086;
3484;-0.033203;0.038086;1.036133;
3624;-0.035156;0.037109;1.038086;
3763;-0.034180;0.038086;1.039062;
3903;-0.034180;0.037109;1.037109;
4044;-0.033203;0.037109;1.037109;
4183;-0.032227;0.038086;1.036133;
4323;-0.034180;0.038086;1.035156;
4464;-0.036133;0.036133;1.037109;
4604;-0.034180;0.037109;1.035156;
4739;-0.033203;0.037109;1.037109;
4879;-0.033203;0.037109;1.038086;
5019;-0.033203;0.039062;1.036133;
5169;-0.035156;0.038086;1.036133;
5309;-0.034180;0.038086;1.036133;
5440;-0.034180;0.039062;1.037109;
5569;-0.034180;0.039062;1.037109;
5719;-0.033203;0.037109;1.036133;
5850;-0.033203;0.039062;1.038086;
5999;-0.033203;0.039062;1.037109;
6154;-0.034180;0.036133;1.037109;
6294;-0.033203;0.038086;1.037109;
6444;-0.034180;0.037109;1.036133;
6584;-0.033203;0.036133;1.036133;
6724;-0.034180;0.038086;1.035156;
6873;-0.035156;0.038086;1.037109;
7013;-0.034180;0.038086;1.038086;
7153;-0.032227;0.038086;1.036133;
7294;-0.033203;0.038086;1.038086;
7434;-0.034180;0.038086;1.037109;
7584;-0.033203;0.040039;1.039062;
7724;-0.035156;0.036133;1.036133;
7864;-0.034180;0.037109;1.036133;
8003;-0.034180;0.037109;1.037109;
8139;-0.034180;0.037109;1.036133;
8283;-0.035156;0.037109;1.037109;
8419;-0.035156;0.037109;1.037109;
8552;-0.033203;0.037109;1.037109;
8690;-0.033203;0.038086;1.037109;
8819;-0.034180;0.038086;1.038086;
8949;-0.033203;0.037109;1.037109;
9089;-0.034180;0.039062;1.037109;
9229;-0.033203;0.038086;1.037109;
9374;-0.035156;0.038086;1.037109;
9514;-0.034180;0.037109;1.038086;
9663;-0.034180;0.038086;1.037109;
9803;-0.033203;0.037109;1.037109;
9944;-0.034180;0.038086;1.038086;
10093;-0.034180;0.039062;1.036133;
10234;-0.035156;0.038086;1.037109;
10374;-0.034180;0.037109;1.037109;
10524;-0.033203;0.037109;1.037109;
10663;-0.035156;0.038086;1.036133;
10804;-0.034180;0.038086;1.038086;
10943;-0.032227;0.038086;1.038086;
11083;-0.034180;0.039062;1.037109;
11224;-0.034180;0.037109;1.037109;
11359;-0.033203;0.037109;1.036133;
11499;-0.035156;0.036133;1.037109;
11639;-0.033203;0.038086;1.037109;
11779;-0.034180;0.039062;1.036133;
11909;-0.033203;0.037109;1.037109;
12041;-0.033203;0.039062;1.037109;
12169;-0.034180;0.037109;1.036133;
12319;-0.034180;0.036133;1.037109;
12459;-0.035156;0.037109;1.036133;
12609;-0.033203;0.039062;1.037109;
12763;-0.034180;0.038086;1.038086;
12904;-0.033203;0.040039;1.037109;
13044;-0.035156;0.036133;1.037109;
13184;-0.035156;0.037109;1.036133;
13324;-0.035156;0.037109;1.037109;
13473;-0.035156;0.038086;1.037109;
13614;-0.034180;0.038086;1.036133;
13753;-0.034180;0.039062;1.037109;
13903;-0.034180;0.040039;1.036133;
14043;-0.033203;0.037109;1.037109;
14184;-0.034180;0.039062;1.037109;
14323;-0.033203;0.036133;1.036133;
14463;-0.035156;0.037109;1.036133;
14604;-0.035156;0.038086;1.037109;
14730;-0.034180;0.037109;1.036133;
14859;-0.033203;0.038086;1.036133;
14999;-0.034180;0.037109;1.037109;
15139;-0.034180;0.037109;1.036133;
15279;-0.034180;0.037109;1.035156;
15419;-0.034180;0.036133;1.036133;
15564;-0.035156;0.036133;1.036133;
15699;-0.033203;0.037109;1.037109;
15840;-0.032227;0.037109;1.036133;
15989;-0.035156;0.037109;1.036133;
16144;-0.034180;0.038086;1.037109;
16293;-0.033203;0.038086;1.037109;
16434;-0.034180;0.036133;1.036133;
16573;-0.033203;0.039062;1.038086;
16714;-0.033203;0.040039;1.036133;
16853;-0.033203;0.040039;1.037109;
16994;-0.035156;0.038086;1.037109;
17134;-0.033203;0.039062;1.037109;
17274;-0.034180;0.038086;1.036133;
17414;-0.033203;0.038086;1.038086;
17554;-0.035156;0.037109;1.037109;
17694;-0.033203;0.039062;1.037109;
17833;-0.033203;0.039062;1.037109;
17974;-0.034180;0.039062;1.037109;
18119;-0.035156;0.039062;1.037109;
18249;-0.034180;0.038086;1.038086;
18389;-0.033203;0.039062;1.037109;
18529;-0.034180;0.037109;1.036133;
18669;-0.035156;0.038086;1.036133;
18809;-0.034180;0.038086;1.036133;
18953;-0.033203;0.037109;1.036133;
19079;-0.034180;0.038086;1.036133;
19220;-0.034180;0.039062;1.037109;
19361;-0.034180;0.039062;1.037109;
19509;-0.034180;0.039062;1.038086;
19659;-0.035156;0.038086;1.035156;
19803;-0.035156;0.038086;1.036133;
19943;-0.034180;0.038086;1.036133;
20084;-0.033203;0.037109;1.035156;
20223;-0.034180;0.037109;1.038086;
20364;-0.034180;0.037109;1.036133;
20513;-0.035156;0.038086;1.036133;
20654;-0.035156;0.039062;1.037109;
20794;-0.035156;0.036133;1.035156;
20943;-0.033203;0.037109;1.036133;
21083;-0.035156;0.038086;1.036133;
21224;-0.034180;0.038086;1.037109;
21364;-0.034180;0.038086;1.036133;
21503;-0.033203;0.037109;1.038086;
21643;-0.035156;0.038086;1.038086;
21779;-0.035156;0.038086;1.036133;
21933;-0.033203;0.039062;1.039062;
22072;-0.035156;0.038086;1.036133;
22209;-0.034180;0.038086;1.037109;
22349;-0.034180;0.038086;1.038086;
22493;-0.034180;0.038086;1.036133;
22629;-0.035156;0.038086;1.036133;
22779;-0.035156;0.037109;1.037109;
22909;-0.034180;0.037109;1.037109;
23051;-0.033203;0.037109;1.037109;
23179;-0.034180;0.038086;1.037109;
23329;-0.033203;0.038086;1.037109;
23473;-0.033203;0.037109;1.036133;
23614;-0.034180;0.039062;1.039062;
23753;-0.035156;0.038086;1.037109;
23894;-0.032227;0.039062;1.036133;
24043;-0.034180;0.037109;1.038086;
24183;-0.035156;0.038086;1.036133;
24324;-0.034180;0.038086;1.037109;
24464;-0.034180;0.037109;1.036133;
24603;-0.034180;0.037109;1.035156;
24744;-0.034180;0.037109;1.037109;
24893;-0.035156;0.038086;1.036133;
25033;-0.035156;0.038086;1.038086;
25174;-0.033203;0.038086;1.037109;
25324;-0.034180;0.036133;1.037109;
25449;-0.034180;0.038086;1.037109;
25589;-0.034180;0.037109;1.038086;
25720;-0.033203;0.040039;1.038086;
25869;-0.035156;0.037109;1.036133;
26019;-0.034180;0.037109;1.036133;
26169;-0.033203;0.038086;1.038086;
26299;-0.034180;0.038086;1.038086;
26434;-0.033203;0.036133;1.038086;
26574;-0.035156;0.037109;1.037109;
26723;-0.033203;0.038086;1.036133;
26863;-0.034180;0.037109;1.037109;
27004;-0.033203;0.040039;1.038086;
27144;-0.033203;0.037109;1.037109;
27284;-0.033203;0.039062;1.037109;
27424;-0.033203;0.038086;1.037109;
27564;-0.034180;0.039062;1.037109;
27703;-0.034180;0.038086;1.036133;
27844;-0.035156;0.037109;1.036133;
27993;-0.034180;0.038086;1.036133;
28133;-0.034180;0.038086;1.037109;
28273;-0.033203;0.035156;1.036133;
28409;-0.033203;0.039062;1.037109;
28539;-0.033203;0.038086;1.037109;
28679;-0.034180;0.038086;1.039062;
28829;-0.033203;0.038086;1.036133;
28963;-0.034180;0.039062;1.036133;
29103;-0.034180;0.037109;1.037109;
29239;-0.033203;0.040039;1.036133;
29379;-0.033203;0.039062;1.037109;
29514;-0.035156;0.038086;1.037109;
29649;-0.034180;0.039062;1.037109;
29789;-0.034180;0.037109;1.037109;
29939;-0.034180;0.038086;1.038086;
30073;-0.033203;0.039062;1.036133;
30214;-0.033203;0.039062;1.036133;
30354;-0.034180;0.038086;1.038086;
30494;-0.033203;0.039062;1.036133;
30633;-0.034180;0.037109;1.036133;
30773;-0.034180;0.037109;1.036133;
30914;-0.034180;0.038086;1.037109;
31054;-0.035156;0.038086;1.038086;
31194;-0.034180;0.038086;1.037109;
31334;-0.034180;0.038086;1.038086;
31474;-0.035156;0.038086;1.037109;
31614;-0.033203;0.037109;1.038086;
31763;-0.034180;0.038086;1.037109;
31903;-0.034180;0.037109;1.037109;
32039;-0.035156;0.038086;1.038086;
32169;-0.033203;0.039062;1.037109;
32299;-0.034180;0.037109;1.037109;
32444;-0.033203;0.037109;1.036133;
32579;-0.033203;0.039062;1.037109;
32720;-0.034180;0.039062;1.037109;
32859;-0.034180;0.038086;1.036133;
32989;-0.034180;0.038086;1.036133;
33123;-0.034180;0.038086;1.037109;
33264;-0.034180;0.037109;1.037109;
33399;-0.034180;0.037109;1.035156;
33539;-0.035156;0.036133;1.036133;
33680;-0.035156;0.038086;1.036133;
33829;-0.033203;0.038086;1.037109;
33973;-0.034180;0.038086;1.038086;
34114;-0.032227;0.039062;1.037109;
34253;-0.034180;0.037109;1.036133;
34394;-0.033203;0.037109;1.036133;
34534;-0.034180;0.037109;1.037109;
34674;-0.035156;0.038086;1.037109;
34814;-0.033203;0.038086;1.037109;
34954;-0.041016;0.041016;0.999023;
35089;-0.034180;0.037109;1.036133;
35234;-0.035156;0.037109;1.040039;
35373;-0.034180;0.038086;1.036133;
35514;-0.033203;0.038086;1.037109;
35654;-0.033203;0.039062;1.036133;
35794;-0.034180;0.039062;1.037109;
35944;-0.033203;0.039062;1.037109;
36079;-0.034180;0.037109;1.035156;
36219;-0.033203;0.036133;1.037109;
36359;-0.033203;0.037109;1.037109;
36509;-0.034180;0.038086;1.036133;
36649;-0.034180;0.036133;1.037109;
36779;-0.034180;0.037109;1.036133;
36919;-0.035156;0.036133;1.037109;
37064;-0.033203;0.036133;1.036133;
37202;-0.034180;0.038086;1.037109;
37334;-0.033203;0.039062;1.037109;
37474;-0.033203;0.038086;1.039062;
37614;-0.033203;0.039062;1.038086;
37764;-0.034180;0.038086;1.037109;
37904;-0.034180;0.038086;1.038086;
38044;-0.034180;0.038086;1.037109;
38184;-0.034180;0.037109;1.037109;
38323;-0.034180;0.038086;1.037109;
38464;-0.035156;0.036133;1.037109;
38604;-0.035156;0.037109;1.036133;
38743;-0.034180;0.037109;1.037109;
38884;-0.034180;0.037109;1.037109;
39024;-0.033203;0.038086;1.036133;
39159;-0.035156;0.039062;1.038086;
39299;-0.033203;0.039062;1.051758;
39440;-0.029297;0.032227;1.061523;
39579;-0.027344;0.036133;1.070312;
39729;-0.029297;0.041992;1.081055;
39879;-0.031250;0.041992;1.014648;
40019;-0.035156;0.038086;1.038086;
40160;-0.033203;0.038086;1.037109;
40309;-0.033203;0.038086;1.036133;
40454;-0.034180;0.036133;1.036133;
40603;-0.035156;0.037109;1.037109;
40739;-0.035156;0.038086;1.038086;
40874;-0.034180;0.037109;1.037109;
41014;-0.034180;0.037109;1.036133;
41154;-0.033203;0.036133;1.035156;
41304;-0.033203;0.037109;1.036133;
41444;-0.033203;0.038086;1.037109;
41584;-0.033203;0.039062;1.038086;
41723;-0.034180;0.038086;1.037109;
41863;-0.034180;0.037109;1.036133;
41994;-0.034180;0.037109;1.037109;
42134;-0.035156;0.038086;1.036133;
42274;-0.033203;0.038086;1.036133;
42414;-0.036133;0.038086;1.044922;
42544;-0.034180;0.037109;1.037109;
42683;-0.034180;0.038086;1.034180;
42829;-0.034180;0.039062;1.036133;
42969;-0.033203;0.037109;1.037109;
43110;-0.034180;0.037109;1.034180;
43259;-0.035156;0.037109;1.037109;
43399;-0.034180;0.037109;1.037109;
43545;-0.033203;0.038086;1.036133;
43694;-0.033203;0.038086;1.038086;
43832;-0.035156;0.037109;1.032227;
43979;-0.036133;0.037109;1.029297;
44110;-0.035156;0.037109;1.037109;
44249;-0.035156;0.038086;1.031250;
44379;-0.033203;0.038086;1.050781;
44529;-0.034180;0.038086;1.049805;
44669;-0.033203;0.038086;1.022461;
44801;-0.034180;0.035156;1.033203;
44930;-0.036133;0.038086;1.041016;
45064;-0.036133;0.035156;1.035156;
45204;-0.026367;0.034180;1.068359;
45344;-0.036133;0.037109;1.027344;
45493;-0.035156;0.040039;1.033203;
45634;-0.033203;0.038086;1.045898;
45773;-0.032227;0.034180;1.039062;
45914;-0.035156;0.040039;1.031250;
46054;-0.033203;0.038086;1.031250;
46194;-0.037109;0.037109;1.035156;
46334;-0.036133;0.038086;1.047852;
46474;-0.034180;0.037109;1.037109;
46614;-0.033203;0.039062;1.040039;
46754;-0.044922;0.037109;1.007812;
46889;-0.025391;0.037109;1.010742;
47039;-0.035156;0.037109;1.023438;
47179;-0.034180;0.039062;1.033203;
47319;-0.034180;0.038086;1.038086;
47459;-0.033203;0.038086;1.038086;
47599;-0.033203;0.038086;1.038086;
47733;-0.034180;0.037109;1.036133;
47860;-0.034180;0.035156;1.035156;
47992;-0.034180;0.038086;1.036133;
48129;-0.034180;0.037109;1.037109;
48279;-0.033203;0.039062;1.037109;
48419;-0.033203;0.037109;1.037109;
48564;-0.034180;0.038086;1.036133;
48703;-0.035156;0.037109;1.036133;
48844;-0.033203;0.038086;1.037109;
48994;-0.034180;0.038086;1.036133;
49144;-0.033203;0.040039;1.037109;
49284;-0.035156;0.037109;1.038086;
49434;-0.033203;0.038086;1.037109;
49584;-0.034180;0.038086;1.037109;
49724;-0.034180;0.039062;1.037109;
49864;-0.035156;0.037109;1.037109;
50014;-0.035156;0.037109;1.038086;
50154;-0.034180;0.038086;1.038086;
50294;-0.034180;0.039062;1.038086;
50434;-0.034180;0.038086;1.036133;
50574;-0.035156;0.038086;1.037109;
50709;-0.033203;0.038086;1.036133;
50849;-0.034180;0.038086;1.039062;
50989;-0.033203;0.037109;1.036133;
51119;-0.035156;0.037109;1.039062;
51249;-0.036133;0.038086;1.038086;
51389;-0.034180;0.038086;1.036133;
51539;-0.034180;0.038086;1.034180;
51689;-0.033203;0.036133;1.040039;
51829;-0.037109;0.039062;1.032227;
51979;-0.032227;0.038086;1.042969;
52133;-0.037109;0.039062;1.026367;
52274;-0.036133;0.038086;1.031250;
52414;-0.032227;0.037109;1.036133;
52554;-0.034180;0.038086;1.036133;
52693;-0.036133;0.039062;1.027344;
52844;-0.033203;0.041016;1.040039;
52964;-0.034180;0.040039;1.041016;
53174;-0.033203;0.038086;1.038086;
53394;-0.032227;0.039062;1.042969;
53614;-0.035156;0.037109;1.043945;
53834;-0.032227;0.037109;1.037109;
54045;-0.033203;0.037109;1.038086;
54274;-0.038086;0.037109;1.028320;
54494;-0.034180;0.037109;1.039062;
54709;-0.035156;0.038086;1.036133;
54934;-0.034180;0.039062;1.037109;
55154;-0.034180;0.037109;1.036133;
55369;-0.034180;0.037109;1.036133;
55591;-0.033203;0.037109;1.038086;
55799;-0.034180;0.038086;1.037109;
56019;-0.034180;0.037109;1.035156;
56239;-0.034180;0.037109;1.037109;
56469;-0.033203;0.039062;1.038086;
56684;-0.033203;0.036133;1.038086;
56904;-0.034180;0.037109;1.037109;
57124;-0.033203;0.038086;1.038086;
57344;-0.033203;0.037109;1.036133;
57564;-0.034180;0.036133;1.035156;
57784;-0.033203;0.040039;1.042969;
58004;-0.033203;0.040039;1.040039;
58223;-0.035156;0.037109;1.035156;
58444;-0.034180;0.037109;1.036133;
58664;-0.033203;0.037109;1.039062;
58884;-0.033203;0.038086;1.037109;
59103;-0.034180;0.038086;1.034180;
59324;-0.035156;0.036133;1.038086;
59545;-0.036133;0.039062;1.032227;
59759;-0.035156;0.038086;1.039062;
59969;-0.036133;0.037109;1.041992;
60190;-0.032227;0.037109;1.046875;
60419;-0.033203;0.037109;1.046875;
60634;-0.035156;0.037109;1.039062;
60854;-0.036133;0.039062;1.005859;
61073;-0.039062;0.035156;1.033203;
61294;-0.033203;0.038086;1.035156;
61513;-0.036133;0.041992;1.055664;
61734;-0.034180;0.039062;1.033203;
61954;-0.034180;0.039062;1.038086;
62174;-0.034180;0.038086;1.037109;
62394;-0.034180;0.037109;1.036133;
62613;-0.033203;0.036133;1.036133;
62833;-0.033203;0.037109;1.036133;
63053;-0.033203;0.037109;1.038086;
63274;-0.032227;0.040039;1.037109;
63493;-0.034180;0.037109;1.036133;
63709;-0.034180;0.038086;1.036133;
63921;-0.034180;0.039062;1.038086;
64129;-0.034180;0.038086;1.037109;
64339;-0.034180;0.038086;1.037109;
64549;-0.034180;0.038086;1.038086;
64769;-0.035156;0.038086;1.037109;
64983;-0.033203;0.037109;1.038086;
65203;-0.034180;0.036133;1.037109;
65424;-0.034180;0.037109;1.036133;
65643;-0.033203;0.038086;1.036133;
65864;-0.034180;0.038086;1.038086;
66084;-0.033203;0.037109;1.039062;
66303;-0.034180;0.036133;1.039062;
66523;-0.033203;0.038086;1.037109;
66743;-0.033203;0.038086;1.040039;
66964;-0.033203;0.038086;1.034180;
67184;-0.033203;0.037109;1.033203;
67404;-0.034180;0.038086;1.037109;
67619;-0.045898;0.034180;0.989258;
67839;-0.036133;0.035156;1.039062;
68049;-0.036133;0.037109;1.037109;
68259;-0.033203;0.039062;1.047852;
68469;-0.034180;0.036133;1.046875;
68684;-0.038086;0.035156;1.046875;
68903;-0.043945;0.043945;1.015625;
69124;-0.034180;0.037109;1.036133;
69344;-0.033203;0.037109;1.036133;
69564;-0.034180;0.036133;1.037109;
69784;-0.034180;0.037109;1.037109;
70003;-0.033203;0.036133;1.037109;
70224;-0.033203;0.039062;1.036133;
70443;-0.035156;0.036133;1.038086;
70664;-0.031250;0.036133;1.012695;
70883;-0.032227;0.033203;1.043945;
71103;-0.033203;0.038086;1.037109;
71324;-0.034180;0.037109;1.037109;
71544;-0.033203;0.038086;1.036133;
71769;-0.033203;0.038086;1.039062;
72019;-0.034180;0.038086;1.038086;
72239;-0.034180;0.038086;1.036133;
72469;-0.033203;0.040039;1.038086;
72699;-0.034180;0.038086;1.037109;
72934;-0.034180;0.037109;1.036133;
73154;-0.034180;0.037109;1.036133;
73364;-0.034180;0.039062;1.037109;
73583;-0.033203;0.037109;1.036133;
73804;-0.034180;0.038086;1.037109;
74024;-0.035156;0.037109;1.036133;
74243;-0.033203;0.038086;1.036133;
74464;-0.034180;0.037109;1.039062;
74683;-0.034180;0.038086;1.037109;
74903;-0.033203;0.038086;1.040039;
75123;-0.033203;0.039062;1.037109;
75344;-0.035156;0.037109;1.041992;
75563;-0.034180;0.038086;1.038086;
75779;-0.033203;0.037109;1.038086;
75999;-0.035156;0.037109;1.037109;
76214;-0.034180;0.037109;1.043945;
76434;-0.034180;0.040039;1.037109;
76649;-0.032227;0.040039;1.052734;
76869;-0.031250;0.035156;1.037109;
77089;-0.034180;0.038086;1.040039;
77304;-0.031250;0.038086;1.036133;
77523;-0.036133;0.039062;1.036133;
77743;-0.031250;0.038086;1.045898;
77964;-0.035156;0.036133;1.036133;
78184;-0.041016;0.041992;1.026367;
78404;-0.025391;0.040039;1.074219;
78624;-0.034180;0.038086;1.035156;
78844;-0.033203;0.038086;1.036133;
79064;-0.033203;0.039062;1.037109;
79284;-0.033203;0.038086;1.036133;
79504;-0.033203;0.037109;1.038086;
79724;-0.033203;0.037109;1.037109;
79944;-0.034180;0.038086;1.039062;
80165;-0.033203;0.038086;1.037109;
80379;-0.033203;0.038086;1.039062;
80589;-0.034180;0.037109;1.035156;
80799;-0.033203;0.038086;1.037109;
81019;-0.035156;0.038086;1.035156;
81234;-0.034180;0.038086;1.038086;
81449;-0.033203;0.038086;1.036133;
81684;-0.034180;0.038086;1.037109;
81903;-0.034180;0.037109;1.036133;
82123;-0.034180;0.037109;1.037109;
82344;-0.033203;0.039062;1.039062;
82564;-0.033203;0.038086;1.037109;
82783;-0.034180;0.039062;1.036133;
83004;-0.033203;0.037109;1.037109;
83219;-0.033203;0.038086;1.037109;
83443;-0.034180;0.038086;1.042969;
83664;-0.034180;0.038086;1.041016;
83884;-0.045898;0.045898;0.959961;
84103;-0.029297;0.038086;1.036133;
84324;-0.032227;0.041992;1.036133;
84543;-0.032227;0.036133;1.046875;
84760;-0.033203;0.040039;1.039062;
84989;-0.033203;0.025391;0.950195;
85212;-0.034180;0.038086;1.034180;
85419;-0.033203;0.036133;1.035156;
85649;-0.033203;0.039062;1.038086;
85869;-0.034180;0.038086;1.036133;
86094;-0.034180;0.038086;1.038086;
86313;-0.034180;0.037109;1.038086;
86534;-0.034180;0.037109;1.037109;
86753;-0.033203;0.038086;1.036133;
86971;-0.033203;0.028320;0.998047;
87193;-0.034180;0.038086;1.036133;
87413;-0.035156;0.037109;1.035156;
87633;-0.033203;0.039062;1.037109;
87853;-0.033203;0.037109;1.036133;
88074;-0.033203;0.037109;1.038086;
88294;-0.033203;0.037109;1.037109;
88514;-0.033203;0.037109;1.038086;
88733;-0.034180;0.037109;1.036133;
88959;-0.032227;0.039062;1.037109;
89179;-0.032227;0.037109;1.036133;
89389;-0.033203;0.036133;1.036133;
89609;-0.033203;0.039062;1.038086;
89820;-0.035156;0.037109;1.037109;
90039;-0.033203;0.037109;1.036133;
90264;-0.033203;0.037109;1.036133;
90484;-0.034180;0.038086;1.039062;
90694;-0.035156;0.038086;1.037109;
90914;-0.032227;0.038086;1.040039;
91134;-0.033203;0.039062;1.040039;
91354;-0.033203;0.038086;1.038086;
91574;-0.032227;0.039062;1.037109;
91784;-0.032227;0.038086;1.034180;
92004;-0.034180;0.039062;1.036133;
92224;-0.035156;0.039062;1.028320;
92444;-0.035156;0.038086;1.035156;
92659;-0.033203;0.038086;1.041016;
92894;-0.033203;0.035156;1.023438;
93109;-0.036133;0.039062;1.041016;
93329;-0.034180;0.034180;1.044922;
93539;-0.037109;0.037109;1.023438;
93759;-0.037109;0.039062;1.041992;
93979;-0.030273;0.031250;1.087891;
94189;-0.033203;0.038086;1.040039;
94414;-0.034180;0.038086;1.037109;
94634;-0.034180;0.039062;1.038086;
94853;-0.034180;0.038086;1.038086;
95074;-0.033203;0.038086;1.038086;
95294;-0.035156;0.038086;1.036133;
95514;-0.033203;0.039062;1.037109;
95729;-0.031250;0.036133;1.041016;
95953;-0.040039;0.032227;1.005859;
96173;-0.035156;0.038086;1.035156;
96393;-0.033203;0.038086;1.038086;
96614;-0.034180;0.038086;1.037109;
96834;-0.034180;0.038086;1.038086;
97053;-0.034180;0.037109;1.038086;
97274;-0.035156;0.036133;1.038086;
97489;-0.034180;0.038086;1.037109;
97699;-0.034180;0.038086;1.036133;
97909;-0.034180;0.037109;1.038086;
98119;-0.033203;0.039062;1.039062;
98329;-0.033203;0.037109;1.036133;
98560;-0.034180;0.039062;1.039062;
98784;-0.034180;0.039062;1.034180;
99004;-0.033203;0.037109;1.036133;
99223;-0.036133;0.038086;1.037109;
99444;-0.034180;0.036133;1.035156;
99664;-0.034180;0.038086;1.035156;
99883;-0.035156;0.037109;1.039062;
100104;-0.032227;0.038086;1.038086;
100324;-0.034180;0.038086;1.035156;
100543;-0.033203;0.037109;1.033203;
100764;-0.032227;0.039062;1.039062;
100984;-0.034180;0.037109;1.037109;
101204;-0.033203;0.036133;1.046875;
101419;-0.033203;0.038086;1.041992;
101643;-0.035156;0.038086;1.039062;
101849;-0.031250;0.041992;1.036133;
102069;-0.036133;0.039062;1.041016;
102280;-0.035156;0.039062;1.041992;
102504;-0.039062;0.036133;1.034180;
102719;-0.034180;0.040039;1.039062;
102929;-0.032227;0.041016;1.041992;
103154;-0.034180;0.038086;1.030273;
103374;-0.033203;0.037109;1.036133;
103593;-0.033203;0.039062;1.037109;
103814;-0.034180;0.037109;1.036133;
104034;-0.035156;0.037109;1.038086;
104254;-0.034180;0.038086;1.036133;
104473;-0.033203;0.039062;1.038086;
104694;-0.034180;0.038086;1.036133;
104914;-0.040039;0.036133;1.023438;
105133;-0.031250;0.037109;1.037109;
105353;-0.034180;0.039062;1.038086;
105574;-0.034180;0.037109;1.037109;
105794;-0.034180;0.038086;1.036133;
106014;-0.035156;0.039062;1.037109;
106229;-0.033203;0.039062;1.038086;
106449;-0.034180;0.037109;1.037109;
106669;-0.033203;0.037109;1.037109;
106889;-0.033203;0.039062;1.038086;
107109;-0.034180;0.039062;1.036133;
107334;-0.034180;0.038086;1.037109;
107553;-0.034180;0.037109;1.038086;
107774;-0.033203;0.040039;1.037109;
107994;-0.034180;0.037109;1.037109;
108214;-0.033203;0.038086;1.038086;
108433;-0.033203;0.037109;1.036133;
108654;-0.035156;0.037109;1.038086;
108874;-0.034180;0.038086;1.037109;
109094;-0.033203;0.037109;1.036133;
109314;-0.033203;0.040039;1.036133;
109533;-0.033203;0.039062;1.041992;
109749;-0.034180;0.038086;1.033203;
109963;-0.034180;0.037109;1.034180;
110184;-0.033203;0.039062;1.037109;
110389;-0.033203;0.036133;1.038086;
110609;-0.032227;0.038086;1.045898;
110829;-0.033203;0.038086;1.045898;
111064;-0.035156;0.040039;1.036133;
111279;-0.032227;0.037109;1.036133;
111499;-0.034180;0.035156;1.047852;
111709;-0.033203;0.037109;1.036133;
111923;-0.034180;0.040039;1.029297;
112144;-0.061523;0.048828;0.971680;
112363;-0.034180;0.039062;1.040039;
112584;-0.034180;0.038086;1.037109;
112804;-0.034180;0.037109;1.036133;
113024;-0.034180;0.037109;1.038086;
113244;-0.033203;0.038086;1.038086;
113464;-0.036133;0.037109;1.037109;
113683;-0.034180;0.039062;1.038086;
113903;-0.034180;0.037109;1.039062;
114124;-0.030273;0.039062;1.043945;
114344;-0.039062;0.036133;1.025391;
114564;-0.033203;0.037109;1.040039;
114783;-0.033203;0.038086;1.039062;
114989;-0.033203;0.039062;1.036133;
115209;-0.034180;0.039062;1.038086;
115431;-0.032227;0.037109;1.036133;
115644;-0.033203;0.039062;1.038086;
115859;-0.034180;0.038086;1.037109;
116079;-0.033203;0.037109;1.037109;
116313;-0.032227;0.037109;1.038086;
116534;-0.034180;0.038086;1.036133;
116754;-0.034180;0.038086;1.038086;
116974;-0.033203;0.037109;1.038086;
117194;-0.034180;0.037109;1.038086;
117414;-0.034180;0.038086;1.035156;
117633;-0.033203;0.038086;1.038086;
117854;-0.034180;0.038086;1.038086;
118071;-0.034180;0.038086;1.033203;
118294;-0.034180;0.037109;1.034180;
118514;-0.034180;0.039062;1.041992;
118734;-0.035156;0.036133;1.033203;
118954;-0.033203;0.038086;1.037109;
119169;-0.032227;0.038086;1.042969;
119379;-0.032227;0.039062;1.043945;
119589;-0.035156;0.037109;1.036133;
119809;-0.049805;0.034180;0.994141;
120019;-0.033203;0.033203;1.035156;
120229;-0.032227;0.040039;1.043945;
120453;-0.029297;0.037109;1.041016;
120674;-0.028320;0.039062;1.043945;
120894;-0.037109;0.036133;1.042969;
121113;-0.033203;0.039062;1.041016;
121333;-0.037109;0.040039;1.045898;
121554;-0.033203;0.039062;1.041016;
121773;-0.033203;0.037109;1.038086;
121994;-0.034180;0.038086;1.038086;
122214;-0.034180;0.037109;1.038086;
122434;-0.034180;0.037109;1.038086;
122653;-0.034180;0.038086;1.038086;
122874;-0.035156;0.037109;1.039062;
123093;-0.033203;0.038086;1.038086;
123314;-0.034180;0.038086;1.038086;
123531;-0.033203;0.038086;1.039062;
123759;-0.034180;0.037109;1.039062;
123979;-0.034180;0.039062;1.038086;
124189;-0.033203;0.037109;1.037109;
124399;-0.034180;0.037109;1.037109;
124610;-0.034180;0.037109;1.038086;
124815;-0.033203;0.038086;1.037109;
125043;-0.033203;0.039062;1.037109;
125264;-0.033203;0.038086;1.036133;
125484;-0.034180;0.038086;1.038086;
125703;-0.033203;0.038086;1.037109;
125924;-0.034180;0.035156;1.041016;
126144;-0.033203;0.038086;1.038086;
126364;-0.035156;0.038086;1.032227;
126584;-0.034180;0.037109;1.039062;
126803;-0.035156;0.029297;1.032227;
127024;-0.030273;0.039062;1.050781;
127244;-0.033203;0.039062;1.036133;
127464;-0.034180;0.039062;1.028320;
127679;-0.033203;0.039062;1.039062;
127889;-0.064453;0.038086;0.992188;
128100;-0.034180;0.036133;1.033203;
128319;-0.033203;0.037109;1.036133;
128539;-0.034180;0.037109;1.038086;
128759;-0.034180;0.036133;1.038086;
128974;-0.033203;0.039062;1.038086;
129194;-0.033203;0.038086;1.037109;
129413;-0.033203;0.038086;1.038086;
129633;-0.033203;0.039062;1.038086;
129854;-0.034180;0.037109;1.039062;
130069;-0.031250;0.041016;1.095703;
130294;-0.033203;0.037109;1.041016;
130513;-0.034180;0.039062;1.037109;
130734;-0.034180;0.037109;1.039062;
130953;-0.034180;0.039062;1.038086;
131174;-0.034180;0.038086;1.038086;
131394;-0.033203;0.036133;1.035156;
131614;-0.034180;0.040039;1.038086;
131833;-0.034180;0.039062;1.037109;
132039;-0.035156;0.038086;1.039062;
132249;-0.034180;0.037109;1.036133;
132469;-0.034180;0.039062;1.039062;
132679;-0.033203;0.038086;1.039062;
132889;-0.033203;0.038086;1.038086;
133109;-0.034180;0.038086;1.038086;
133333;-0.033203;0.036133;1.034180;
133554;-0.035156;0.038086;1.036133;
133774;-0.034180;0.037109;1.034180;
133994;-0.034180;0.038086;1.036133;
134204;-0.034180;0.039062;1.039062;
134423;-0.035156;0.037109;1.034180;
134639;-0.034180;0.037109;1.042969;
134864;-0.034180;0.038086;1.039062;
135083;-0.034180;0.036133;1.047852;
135304;-0.035156;0.038086;1.034180;
135523;-0.034180;0.037109;1.034180;
135739;-0.036133;0.036133;1.042969;
135964;-0.032227;0.039062;1.045898;
136182;-0.035156;0.037109;1.037109;
136399;-0.035156;0.035156;1.038086;
136613;-0.032227;0.041016;1.031250;
136819;-0.036133;0.041016;1.036133;
137031;-0.034180;0.038086;1.039062;
137239;-0.033203;0.035156;1.036133;
137449;-0.033203;0.041016;1.040039;
137683;-0.034180;0.038086;1.039062;
137904;-0.035156;0.036133;1.038086;
138124;-0.033203;0.038086;1.036133;
138344;-0.033203;0.038086;1.036133;
138564;-0.033203;0.038086;1.038086;
138784;-0.033203;0.038086;1.039062;
139003;-0.033203;0.039062;1.038086;
139224;-0.034180;0.039062;1.039062;
139439;-0.033203;0.038086;1.037109;
139664;-0.035156;0.038086;1.036133;
139883;-0.034180;0.038086;1.038086;
140104;-0.034180;0.037109;1.037109;
140324;-0.033203;0.039062;1.040039;
140541;-0.033203;0.037109;1.039062;
140764;-0.034180;0.037109;1.037109;
140979;-0.035156;0.039062;1.040039;
141180;-0.033203;0.038086;1.036133;
141399;-0.034180;0.037109;1.040039;
141620;-0.034180;0.037109;1.035156;
141839;-0.034180;0.038086;1.036133;
142049;-0.034180;0.039062;1.035156;
142274;-0.033203;0.039062;1.038086;
142494;-0.035156;0.038086;1.039062;
142709;-0.034180;0.036133;1.041992;
142934;-0.033203;0.037109;1.039062;
143153;-0.034180;0.037109;1.037109;
143374;-0.038086;0.032227;1.037109;
143593;-0.035156;0.033203;1.042969;
143813;-0.034180;0.036133;1.034180;
144034;-0.034180;0.040039;1.028320;
144255;-0.024414;0.038086;1.048828;
144474;-0.042969;0.038086;1.162109;
144694;-0.034180;0.040039;1.040039;
144913;-0.034180;0.036133;1.037109;
145134;-0.034180;0.037109;1.038086;
145349;-0.034180;0.037109;1.038086;
145559;-0.033203;0.037109;1.037109;
145789;-0.033203;0.038086;1.038086;
146001;-0.033203;0.039062;1.038086;
146219;-0.034180;0.038086;1.038086;
146429;-0.033203;0.038086;1.039062;
146649;-0.036133;0.038086;1.038086;
146869;-0.033203;0.037109;1.036133;
147104;-0.032227;0.040039;1.038086;
147324;-0.035156;0.037109;1.038086;
147543;-0.034180;0.038086;1.037109;
147764;-0.033203;0.039062;1.038086;
147983;-0.033203;0.037109;1.036133;
148203;-0.033203;0.037109;1.039062;
148424;-0.033203;0.039062;1.039062;
148643;-0.034180;0.039062;1.040039;
148864;-0.033203;0.038086;1.039062;
149084;-0.034180;0.039062;1.038086;
149304;-0.033203;0.038086;1.036133;
149524;-0.033203;0.040039;1.039062;
149744;-0.033203;0.038086;1.038086;
149959;-0.035156;0.039062;1.038086;
150170;-0.034180;0.038086;1.037109;
150399;-0.033203;0.040039;1.039062;
150619;-0.033203;0.038086;1.038086;
150839;-0.033203;0.038086;1.038086;
151049;-0.034180;0.036133;1.039062;
151274;-0.034180;0.038086;1.039062;
151493;-0.033203;0.038086;1.038086;
151714;-0.033203;0.040039;1.039062;
151934;-0.033203;0.038086;1.038086;
152154;-0.033203;0.037109;1.038086;
152374;-0.034180;0.037109;1.038086;
152593;-0.033203;0.037109;1.038086;
152814;-0.033203;0.039062;1.039062;
153033;-0.033203;0.039062;1.039062;
153254;-0.033203;0.037109;1.036133;
153474;-0.035156;0.037109;1.038086;
153694;-0.034180;0.040039;1.039062;
153914;-0.032227;0.039062;1.040039;
154133;-0.032227;0.038086;1.038086;
154349;-0.035156;0.039062;1.039062;
154569;-0.034180;0.038086;1.039062;
154784;-0.033203;0.038086;1.040039;
154989;-0.033203;0.038086;1.039062;
155199;-0.036133;0.038086;1.037109;
155421;-0.033203;0.039062;1.038086;
155629;-0.035156;0.037109;1.038086;
155853;-0.034180;0.039062;1.041016;
156074;-0.035156;0.037109;1.039062;
156294;-0.034180;0.038086;1.038086;
156514;-0.033203;0.038086;1.038086;
156734;-0.034180;0.038086;1.038086;
156953;-0.033203;0.039062;1.037109;
157174;-0.034180;0.037109;1.039062;
157394;-0.034180;0.039062;1.039062;
157614;-0.033203;0.038086;1.038086;
157834;-0.033203;0.040039;1.037109;
158053;-0.034180;0.039062;1.038086;
158274;-0.034180;0.038086;1.039062;
158493;-0.032227;0.039062;1.038086;
158709;-0.032227;0.037109;1.038086;
158919;-0.034180;0.039062;1.039062;
159129;-0.034180;0.037109;1.039062;
159349;-0.034180;0.036133;1.038086;
159569;-0.033203;0.037109;1.039062;
159794;-0.033203;0.039062;1.039062;
160013;-0.035156;0.037109;1.039062;
160244;-0.033203;0.038086;1.038086;
160464;-0.034180;0.039062;1.038086;
160683;-0.034180;0.037109;1.038086;
160903;-0.034180;0.036133;1.037109;
161123;-0.034180;0.037109;1.038086;
161344;-0.034180;0.038086;1.039062;
161564;-0.033203;0.038086;1.039062;
161783;-0.033203;0.038086;1.037109;
162004;-0.033203;0.037109;1.039062;
162224;-0.035156;0.037109;1.038086;
162444;-0.033203;0.040039;1.038086;
162664;-0.033203;0.038086;1.040039;
162883;-0.034180;0.037109;1.039062;
163104;-0.033203;0.038086;1.039062;
163309;-0.034180;0.037109;1.038086;
163519;-0.035156;0.038086;1.039062;
163739;-0.033203;0.038086;1.039062;
163959;-0.032227;0.038086;1.038086;
164159;-0.033203;0.038086;1.037109;
164373;-0.035156;0.038086;1.039062;
164594;-0.034180;0.038086;1.039062;
164814;-0.033203;0.038086;1.037109;
165034;-0.033203;0.039062;1.039062;
165253;-0.035156;0.037109;1.038086;
165474;-0.034180;0.037109;1.038086;
165694;-0.033203;0.037109;1.038086;
165914;-0.034180;0.037109;1.039062;
166134;-0.034180;0.038086;1.039062;
166354;-0.034180;0.037109;1.039062;
166574;-0.034180;0.036133;1.039062;
166793;-0.034180;0.037109;1.040039;
167014;-0.033203;0.038086;1.039062;
167233;-0.034180;0.038086;1.039062;
167449;-0.033203;0.037109;1.040039;
167660;-0.034180;0.039062;1.039062;
167879;-0.034180;0.037109;1.038086;
168103;-0.032227;0.038086;1.040039;
168319;-0.032227;0.038086;1.039062;
168539;-0.033203;0.038086;1.038086;
168749;-0.034180;0.036133;1.039062;
168963;-0.033203;0.036133;1.039062;
169184;-0.034180;0.038086;1.038086;
169404;-0.033203;0.038086;1.039062;
169624;-0.032227;0.039062;1.039062;
169844;-0.034180;0.039062;1.039062;
170063;-0.034180;0.037109;1.039062;
170284;-0.034180;0.036133;1.038086;
170504;-0.033203;0.038086;1.037109;
170724;-0.033203;0.039062;1.038086;
170944;-0.034180;0.037109;1.039062;
171164;-0.033203;0.037109;1.039062;
171384;-0.034180;0.038086;1.037109;
171604;-0.033203;0.037109;1.038086;
171825;-0.032227;0.037109;1.038086;
172039;-0.033203;0.034180;1.038086;
172249;-0.034180;0.038086;1.039062;
172480;-0.034180;0.037109;1.039062;
172689;-0.033203;0.038086;1.039062;
172899;-0.033203;0.037109;1.039062;
173123;-0.033203;0.038086;1.039062;
173344;-0.034180;0.039062;1.039062;
173563;-0.033203;0.037109;1.038086;
173784;-0.032227;0.038086;1.039062;
174004;-0.033203;0.038086;1.038086;
174224;-0.033203;0.037109;1.039062;
174444;-0.033203;0.037109;1.039062;
174664;-0.033203;0.039062;1.038086;
174884;-0.034180;0.037109;1.039062;
175103;-0.033203;0.039062;1.038086;
175324;-0.035156;0.037109;1.038086;
175544;-0.034180;0.038086;1.039062;
175764;-0.033203;0.037109;1.040039;
175983;-0.034180;0.037109;1.038086;
176209;-0.032227;0.040039;1.039062;
176419;-0.034180;0.038086;1.039062;
176634;-0.033203;0.038086;1.037109;
176850;-0.032227;0.038086;1.039062;
177069;-0.033203;0.037109;1.039062;
177293;-0.035156;0.036133;1.039062;
177514;-0.034180;0.037109;1.038086;
177733;-0.033203;0.038086;1.039062;
177954;-0.034180;0.039062;1.039062;
178174;-0.033203;0.038086;1.039062;
178394;-0.034180;0.039062;1.040039;
178614;-0.035156;0.037109;1.038086;
178834;-0.033203;0.037109;1.040039;
179054;-0.032227;0.039062;1.040039;
179274;-0.033203;0.036133;1.040039;
179494;-0.033203;0.037109;1.038086;
179714;-0.032227;0.039062;1.038086;
179934;-0.034180;0.039062;1.039062;
180149;-0.034180;0.037109;1.037109;
180360;-0.034180;0.038086;1.039062;
180579;-0.034180;0.037109;1.039062;
180799;-0.034180;0.037109;1.038086;
181030;-0.032227;0.037109;1.039062;
181254;-0.032227;0.040039;1.039062;
181463;-0.033203;0.037109;1.039062;
181684;-0.033203;0.037109;1.038086;
181904;-0.033203;0.038086;1.038086;
182123;-0.034180;0.038086;1.040039;
182344;-0.034180;0.037109;1.038086;
182563;-0.034180;0.038086;1.038086;
182784;-0.033203;0.039062;1.039062;
183004;-0.032227;0.037109;1.038086;
183223;-0.033203;0.038086;1.039062;
183443;-0.033203;0.037109;1.037109;
183663;-0.032227;0.037109;1.039062;
183884;-0.032227;0.038086;1.039062;
184103;-0.033203;0.037109;1.039062;
184324;-0.033203;0.040039;1.040039;
184529;-0.033203;0.039062;1.038086;
184739;-0.034180;0.037109;1.039062;
184959;-0.035156;0.038086;1.038086;
185169;-0.034180;0.037109;1.039062;
185394;-0.033203;0.039062;1.039062;
185614;-0.032227;0.038086;1.039062;
185834;-0.033203;0.037109;1.038086;
186054;-0.033203;0.038086;1.038086;
186274;-0.032227;0.039062;1.040039;
186494;-0.033203;0.037109;1.039062;
186714;-0.032227;0.039062;1.039062;
186934;-0.034180;0.039062;1.040039;
187154;-0.034180;0.036133;1.040039;
187374;-0.033203;0.037109;1.040039;
187594;-0.033203;0.038086;1.039062;
187814;-0.032227;0.038086;1.039062;
188034;-0.034180;0.038086;1.039062;
188254;-0.033203;0.038086;1.038086;
188471;-0.034180;0.038086;1.039062;
188699;-0.033203;0.039062;1.039062;
188909;-0.033203;0.039062;1.040039;
189141;-0.033203;0.037109;1.039062;
189363;-0.033203;0.038086;1.040039;
189584;-0.034180;0.037109;1.039062;
189804;-0.034180;0.039062;1.039062;
190024;-0.034180;0.038086;1.039062;
190243;-0.033203;0.037109;1.037109;
190464;-0.032227;0.038086;1.039062;
190684;-0.033203;0.038086;1.038086;
190903;-0.032227;0.039062;1.038086;
191124;-0.032227;0.039062;1.038086;
191343;-0.034180;0.037109;1.039062;
191564;-0.035156;0.038086;1.039062;
191783;-0.034180;0.038086;1.038086;
192004;-0.032227;0.038086;1.038086;
192224;-0.032227;0.039062;1.039062;
192440;-0.033203;0.039062;1.038086;
192651;-0.034180;0.038086;1.040039;
192879;-0.033203;0.037109;1.038086;
193091;-0.033203;0.037109;1.037109;
193309;-0.034180;0.038086;1.038086;
193534;-0.033203;0.038086;1.038086;
193754;-0.034180;0.039062;1.039062;
193973;-0.034180;0.037109;1.038086;
194193;-0.032227;0.038086;1.038086;
194414;-0.033203;0.038086;1.039062;
194633;-0.033203;0.039062;1.039062;
194854;-0.034180;0.038086;1.039062;
195073;-0.034180;0.039062;1.038086;
195294;-0.032227;0.038086;1.038086;
195514;-0.033203;0.037109;1.040039;
195733;-0.033203;0.038086;1.040039;
195953;-0.034180;0.038086;1.039062;
196174;-0.033203;0.038086;1.039062;
196394;-0.032227;0.039062;1.040039;
196609;-0.033203;0.036133;1.038086;
196819;-0.032227;0.038086;1.039062;
197029;-0.033203;0.037109;1.038086;
197249;-0.033203;0.038086;1.038086;
197462;-0.034180;0.038086;1.038086;
197669;-0.033203;0.039062;1.039062;
197883;-0.033203;0.036133;1.039062;
198104;-0.033203;0.038086;1.040039;
198324;-0.034180;0.036133;1.039062;
198543;-0.032227;0.039062;1.040039;
198764;-0.033203;0.038086;1.039062;
198984;-0.032227;0.040039;1.039062;
199204;-0.034180;0.040039;1.039062;
199424;-0.033203;0.037109;1.038086;
199643;-0.034180;0.037109;1.039062;
199864;-0.033203;0.037109;1.037109;
200084;-0.032227;0.038086;1.038086;
200304;-0.033203;0.037109;1.038086;
200524;-0.033203;0.038086;1.039062;
200739;-0.032227;0.037109;1.039062;
200959;-0.034180;0.038086;1.040039;
201169;-0.033203;0.041016;1.040039;
201380;-0.033203;0.039062;1.038086;
201593;-0.032227;0.039062;1.039062;
201809;-0.033203;0.038086;1.039062;
202030;-0.034180;0.034180;1.039062;
202253;-0.034180;0.038086;1.039062;
202474;-0.034180;0.038086;1.037109;
202694;-0.033203;0.039062;1.039062;
202914;-0.033203;0.038086;1.039062;
203134;-0.034180;0.038086;1.039062;
203354;-0.033203;0.038086;1.038086;
203574;-0.033203;0.039062;1.039062;
203794;-0.034180;0.037109;1.038086;
204014;-0.033203;0.037109;1.038086;
204234;-0.032227;0.038086;1.037109;
204453;-0.033203;0.037109;1.040039;
204673;-0.033203;0.039062;1.039062;
204893;-0.033203;0.038086;1.039062;
205113;-0.035156;0.037109;1.038086;
205333;-0.033203;0.038086;1.041016;
205549;-0.032227;0.040039;1.041016;
205769;-0.034180;0.038086;1.039062;
205979;-0.033203;0.038086;1.038086;
206209;-0.035156;0.036133;1.039062;
206424;-0.033203;0.039062;1.039062;
206644;-0.034180;0.038086;1.039062;
206864;-0.034180;0.037109;1.038086;
207084;-0.034180;0.036133;1.041016;
207303;-0.033203;0.038086;1.038086;
207524;-0.032227;0.038086;1.039062;
207744;-0.033203;0.036133;1.039062;
207964;-0.032227;0.038086;1.038086;
208183;-0.033203;0.038086;1.039062;
208404;-0.033203;0.039062;1.039062;
208624;-0.033203;0.038086;1.040039;
208844;-0.033203;0.038086;1.039062;
209064;-0.033203;0.038086;1.040039;
209283;-0.033203;0.038086;1.038086;
209489;-0.033203;0.037109;1.039062;
209700;-0.033203;0.039062;1.038086;
209919;-0.034180;0.038086;1.039062;
210139;-0.032227;0.037109;1.038086;
210339;-0.033203;0.037109;1.039062;
210564;-0.034180;0.038086;1.039062;
210784;-0.033203;0.038086;1.037109;
211003;-0.033203;0.038086;1.039062;
211224;-0.034180;0.037109;1.037109;
211444;-0.032227;0.037109;1.040039;
211663;-0.032227;0.037109;1.037109;
211884;-0.033203;0.039062;1.039062;
212103;-0.032227;0.039062;1.038086;
212324;-0.032227;0.037109;1.039062;
212544;-0.032227;0.039062;1.039062;
212764;-0.033203;0.038086;1.038086;
212983;-0.034180;0.038086;1.039062;
213203;-0.031250;0.039062;1.039062;
213424;-0.033203;0.039062;1.038086;
213639;-0.034180;0.037109;1.039062;
213861;-0.032227;0.039062;1.038086;
214069;-0.033203;0.038086;1.039062;
214290;-0.034180;0.038086;1.037109;
214499;-0.033203;0.038086;1.037109;
214709;-0.034180;0.038086;1.038086;
214934;-0.032227;0.038086;1.038086;
215154;-0.031250;0.038086;1.038086;
215374;-0.034180;0.037109;1.039062;
215594;-0.033203;0.039062;1.038086;
215813;-0.034180;0.038086;1.038086;
216033;-0.033203;0.038086;1.039062;
216254;-0.034180;0.038086;1.038086;
216474;-0.034180;0.038086;1.038086;
216694;-0.033203;0.038086;1.038086;
216913;-0.034180;0.039062;1.041016;
217134;-0.034180;0.035156;1.040039;
217354;-0.033203;0.037109;1.039062;
217574;-0.032227;0.038086;1.040039;
217794;-0.034180;0.040039;1.041016;
218009;-0.033203;0.038086;1.039062;
218219;-0.032227;0.039062;1.040039;
218429;-0.033203;0.039062;1.038086;
218649;-0.032227;0.037109;1.039062;
218859;-0.033203;0.039062;1.040039;
219069;-0.033203;0.038086;1.037109;
219293;-0.032227;0.039062;1.038086;
219514;-0.033203;0.038086;1.040039;
219734;-0.032227;0.038086;1.039062;
219954;-0.034180;0.038086;1.040039;
220174;-0.033203;0.038086;1.038086;
220393;-0.032227;0.039062;1.039062;
220614;-0.034180;0.039062;1.040039;
220833;-0.034180;0.038086;1.040039;
221054;-0.032227;0.039062;1.039062;
221273;-0.033203;0.037109;1.039062;
221494;-0.034180;0.037109;1.039062;
221714;-0.034180;0.039062;1.039062;
221934;-0.033203;0.038086;1.038086;
222155;-0.032227;0.038086;1.038086;
222380;-0.034180;0.036133;1.040039;
222599;-0.034180;0.038086;1.037109;
222819;-0.034180;0.039062;1.039062;
223019;-0.033203;0.037109;1.040039;
223229;-0.031250;0.036133;1.041016;
223444;-0.033203;0.039062;1.039062;
223664;-0.031250;0.039062;1.040039;
223884;-0.032227;0.039062;1.039062;
224104;-0.032227;0.038086;1.039062;
224323;-0.034180;0.038086;1.039062;
224544;-0.032227;0.039062;1.038086;
224764;-0.033203;0.038086;1.039062;
224984;-0.032227;0.038086;1.040039;
225204;-0.032227;0.038086;1.038086;
225424;-0.034180;0.036133;1.040039;
225644;-0.033203;0.037109;1.040039;
225863;-0.032227;0.039062;1.039062;
226084;-0.034180;0.038086;1.039062;
226305;-0.033203;0.038086;1.039062;
226519;-0.033203;0.036133;1.040039;
226729;-0.033203;0.039062;1.038086;
226939;-0.034180;0.038086;1.040039;
227171;-0.034180;0.040039;1.039062;
227379;-0.033203;0.038086;1.040039;
227593;-0.034180;0.038086;1.039062;
227814;-0.034180;0.037109;1.039062;
228033;-0.033203;0.038086;1.039062;
228254;-0.034180;0.037109;1.041016;
228473;-0.033203;0.037109;1.040039;
228693;-0.034180;0.037109;1.038086;
228914;-0.033203;0.039062;1.039062;
229133;-0.033203;0.037109;1.039062;
229354;-0.033203;0.039062;1.040039;
229574;-0.034180;0.038086;1.039062;
229793;-0.033203;0.037109;1.040039;
230014;-0.034180;0.038086;1.040039;
230234;-0.032227;0.039062;1.039062;
230454;-0.033203;0.038086;1.040039;
230659;-0.033203;0.036133;1.039062;
230861;-0.034180;0.037109;1.040039;
231079;-0.033203;0.037109;1.039062;
231299;-0.033203;0.039062;1.040039;
231519;-0.032227;0.039062;1.039062;
231744;-0.033203;0.036133;1.038086;
231964;-0.033203;0.038086;1.039062;
232184;-0.032227;0.038086;1.040039;
232404;-0.034180;0.039062;1.039062;
232624;-0.032227;0.039062;1.039062;
232844;-0.033203;0.037109;1.039062;
233064;-0.033203;0.038086;1.040039;
233284;-0.033203;0.038086;1.039062;
233503;-0.032227;0.039062;1.039062;
233724;-0.034180;0.039062;1.037109;
233944;-0.034180;0.037109;1.040039;
234164;-0.035156;0.038086;1.039062;
234383;-0.034180;0.037109;1.039062;
234604;-0.034180;0.038086;1.039062;
234809;-0.033203;0.039062;1.040039;
235040;-0.033203;0.038086;1.039062;
235259;-0.034180;0.037109;1.041016;
235479;-0.033203;0.039062;1.040039;
235694;-0.032227;0.038086;1.040039;
235914;-0.033203;0.038086;1.039062;
236133;-0.033203;0.038086;1.040039;
236354;-0.033203;0.038086;1.039062;
236574;-0.033203;0.039062;1.040039;
236793;-0.033203;0.037109;1.039062;
237014;-0.033203;0.038086;1.039062;
237233;-0.032227;0.040039;1.040039;
237454;-0.034180;0.037109;1.040039;
237674;-0.035156;0.037109;1.041016;
237893;-0.032227;0.039062;1.040039;
238113;-0.033203;0.038086;1.040039;
238334;-0.034180;0.038086;1.039062;
238554;-0.033203;0.038086;1.039062;
238759;-0.033203;0.039062;1.039062;
238969;-0.033203;0.038086;1.039062;
239179;-0.033203;0.037109;1.038086;
239389;-0.034180;0.037109;1.039062;
239609;-0.032227;0.038086;1.041016;
239819;-0.033203;0.038086;1.041016;
240044;-0.032227;0.038086;1.040039;
240263;-0.032227;0.039062;1.040039;
240483;-0.033203;0.037109;1.041016;
240704;-0.034180;0.039062;1.038086;
240924;-0.033203;0.037109;1.038086;
241144;-0.033203;0.037109;1.039062;
241364;-0.033203;0.037109;1.038086;
241584;-0.033203;0.038086;1.038086;
241803;-0.034180;0.039062;1.039062;
242024;-0.033203;0.038086;1.040039;
242244;-0.034180;0.037109;1.039062;
242464;-0.034180;0.038086;1.039062;
242683;-0.033203;0.039062;1.040039;
242903;-0.033203;0.037109;1.038086;
243119;-0.033203;0.039062;1.039062;
243329;-0.032227;0.039062;1.039062;
243540;-0.033203;0.038086;1.039062;
243749;-0.033203;0.039062;1.038086;
243959;-0.034180;0.036133;1.040039;
244179;-0.033203;0.037109;1.040039;
244393;-0.032227;0.040039;1.040039;
244613;-0.033203;0.039062;1.040039;
244834;-0.033203;0.039062;1.040039;
245054;-0.034180;0.039062;1.039062;
245274;-0.033203;0.037109;1.039062;
245494;-0.032227;0.040039;1.040039;
245713;-0.032227;0.039062;1.038086;
245934;-0.033203;0.038086;1.039062;
246154;-0.033203;0.038086;1.039062;
246374;-0.033203;0.037109;1.039062;
246594;-0.034180;0.037109;1.039062;
246813;-0.033203;0.040039;1.039062;
247033;-0.034180;0.038086;1.040039;
247254;-0.034180;0.038086;1.040039;
247459;-0.033203;0.037109;1.040039;
247679;-0.033203;0.038086;1.040039;
247889;-0.034180;0.036133;1.040039;
248099;-0.034180;0.037109;1.039062;
248334;-0.034180;0.039062;1.040039;
248554;-0.034180;0.039062;1.040039;
248774;-0.033203;0.036133;1.038086;
248993;-0.033203;0.039062;1.039062;
249214;-0.033203;0.038086;1.039062;
249434;-0.034180;0.036133;1.040039;
249654;-0.034180;0.038086;1.039062;
249874;-0.033203;0.038086;1.041016;
250093;-0.032227;0.039062;1.039062;
250314;-0.033203;0.036133;1.039062;
250533;-0.033203;0.040039;1.040039;
250754;-0.032227;0.040039;1.041016;
250973;-0.033203;0.037109;1.041016;
251193;-0.034180;0.038086;1.041016;
251410;-0.033203;0.038086;1.039062;
251639;-0.032227;0.039062;1.038086;
251869;-0.033203;0.039062;1.039062;
252079;-0.034180;0.039062;1.041016;
252289;-0.034180;0.037109;1.040039;
252499;-0.033203;0.037109;1.040039;
252723;-0.033203;0.039062;1.040039;
252944;-0.033203;0.038086;1.039062;
253164;-0.033203;0.037109;1.039062;
253384;-0.032227;0.040039;1.038086;
253604;-0.033203;0.038086;1.039062;
253823;-0.033203;0.037109;1.039062;
254044;-0.033203;0.039062;1.038086;
254264;-0.033203;0.038086;1.039062;
254484;-0.033203;0.038086;1.039062;
254704;-0.033203;0.038086;1.038086;
254923;-0.032227;0.039062;1.038086;
255144;-0.033203;0.039062;1.039062;
255363;-0.033203;0.038086;1.038086;
255584;-0.031250;0.038086;1.038086;
255799;-0.034180;0.038086;1.039062;
256020;-0.031250;0.038086;1.038086;
256249;-0.033203;0.039062;1.040039;
256479;-0.032227;0.039062;1.038086;
256709;-0.034180;0.039062;1.039062;
256934;-0.035156;0.038086;1.041016;
257154;-0.034180;0.038086;1.040039;
257374;-0.033203;0.039062;1.040039;
257593;-0.034180;0.039062;1.040039;
257814;-0.034180;0.037109;1.040039;
258033;-0.034180;0.037109;1.039062;
258254;-0.032227;0.038086;1.039062;
258474;-0.032227;0.039062;1.039062;
258694;-0.034180;0.038086;1.039062;
258914;-0.033203;0.039062;1.041016;
259133;-0.033203;0.036133;1.039062;
259354;-0.033203;0.038086;1.040039;
259573;-0.034180;0.037109;1.040039;
259793;-0.032227;0.039062;1.041016;
260000;-0.032227;0.037109;1.039062;
260209;-0.033203;0.039062;1.038086;
260419;-0.033203;0.039062;1.038086;
260634;-0.033203;0.039062;1.041016;
260849;-0.034180;0.038086;1.039062;
261069;-0.034180;0.038086;1.039062;
261294;-0.032227;0.039062;1.038086;
261513;-0.031250;0.038086;1.038086;
261734;-0.034180;0.037109;1.039062;
261954;-0.034180;0.037109;1.040039;
262174;-0.033203;0.037109;1.039062;
262394;-0.033203;0.039062;1.040039;
262613;-0.034180;0.039062;1.039062;
262834;-0.033203;0.039062;1.041016;
263054;-0.032227;0.039062;1.040039;
263274;-0.032227;0.037109;1.039062;
263494;-0.028320;0.039062;1.083008;
263713;-0.033203;0.034180;1.087891;
263934;-0.033203;0.038086;1.043945;
264153;-0.033203;0.039062;1.039062;
264369;-0.033203;0.038086;1.040039;
264579;-0.032227;0.038086;1.038086;
264789;-0.032227;0.038086;1.039062;
265009;-0.033203;0.038086;1.038086;
265229;-0.033203;0.038086;1.040039;
265444;-0.032227;0.040039;1.040039;
265654;-0.033203;0.038086;1.041016;
265873;-0.033203;0.038086;1.038086;
266094;-0.033203;0.037109;1.041016;
266314;-0.033203;0.039062;1.039062;
266533;-0.033203;0.038086;1.038086;
266754;-0.034180;0.038086;1.041992;
266974;-0.034180;0.037109;1.036133;
267195;-0.034180;0.036133;1.039062;
267423;-0.034180;0.036133;1.035156;
267644;-0.032227;0.039062;1.039062;
267864;-0.033203;0.038086;1.049805;
268084;-0.033203;0.037109;1.034180;
268304;-0.035156;0.037109;1.035156;
268519;-0.035156;0.040039;1.032227;
268749;-0.033203;0.040039;1.039062;
268969;-0.033203;0.036133;1.037109;
269179;-0.032227;0.040039;1.041016;
269389;-0.031250;0.037109;1.052734;
269610;-0.031250;0.040039;1.034180;
269809;-0.034180;0.037109;1.041016;
270024;-0.035156;0.039062;1.048828;
270244;-0.033203;0.038086;1.041992;
270464;-0.034180;0.038086;1.039062;
270684;-0.022461;0.034180;1.063477;
270904;-0.030273;0.039062;1.054688;
271124;-0.033203;0.039062;1.038086;
271344;-0.034180;0.037109;1.039062;
271564;-0.032227;0.039062;1.039062;
271783;-0.033203;0.037109;1.038086;
272004;-0.033203;0.038086;1.039062;
272224;-0.034180;0.039062;1.040039;
272444;-0.032227;0.038086;1.039062;
272664;-0.033203;0.039062;1.041016;
272885;-0.033203;0.039062;1.036133;
273109;-0.032227;0.039062;1.039062;
273339;-0.033203;0.039062;1.040039;
273559;-0.033203;0.039062;1.039062;
273770;-0.033203;0.037109;1.038086;
273979;-0.033203;0.038086;1.039062;
274199;-0.034180;0.039062;1.039062;
274413;-0.034180;0.038086;1.041992;
274634;-0.035156;0.036133;1.034180;
274855;-0.032227;0.037109;1.041016;
275074;-0.031250;0.039062;1.037109;
275294;-0.032227;0.038086;1.038086;
275514;-0.034180;0.039062;1.041016;
275734;-0.031250;0.037109;1.055664;
275954;-0.033203;0.037109;1.044922;
276173;-0.032227;0.029297;1.018555;
276394;-0.035156;0.035156;1.044922;
276604;-0.033203;0.034180;1.049805;
276823;-0.031250;0.041016;1.034180;
277044;-0.032227;0.037109;1.028320;
277265;-0.033203;0.036133;1.035156;
277479;-0.033203;0.040039;1.043945;
277683;-0.034180;0.041016;1.058594;
277904;-0.026367;0.039062;1.062500;
278119;-0.042969;0.038086;0.964844;
278330;-0.033203;0.038086;1.036133;
278549;-0.033203;0.036133;1.039062;
278759;-0.033203;0.038086;1.039062;
278979;-0.034180;0.039062;1.039062;
279204;-0.032227;0.038086;1.037109;
279424;-0.032227;0.039062;1.041016;
279644;-0.033203;0.039062;1.040039;
279864;-0.033203;0.037109;1.040039;
280084;-0.033203;0.039062;1.040039;
280304;-0.033203;0.038086;1.040039;
280524;-0.033203;0.039062;1.040039;
280743;-0.034180;0.038086;1.039062;
280959;-0.033203;0.039062;1.038086;
281184;-0.033203;0.039062;1.037109;
281404;-0.035156;0.036133;1.038086;
281624;-0.033203;0.036133;1.036133;
281843;-0.033203;0.039062;1.040039;
282059;-0.034180;0.036133;1.039062;
282269;-0.033203;0.036133;1.041016;
282489;-0.033203;0.040039;1.039062;
282699;-0.033203;0.039062;1.041016;
282909;-0.032227;0.037109;1.047852;
283123;-0.032227;0.038086;1.041016;
283344;-0.027344;0.029297;1.117188;
283564;-0.029297;0.039062;1.043945;
283769;-0.031250;0.038086;1.051758;
283984;-0.032227;0.037109;1.046875;
284204;-0.036133;0.038086;1.044922;
284424;-0.026367;0.032227;1.105469;
284643;-0.033203;0.039062;1.039062;
284864;-0.034180;0.034180;1.029297;
285083;-0.037109;0.030273;1.078125;
285293;-0.035156;0.040039;1.025391;
285514;-0.033203;0.039062;1.037109;
285733;-0.033203;0.039062;1.037109;
285954;-0.033203;0.038086;1.040039;
286173;-0.032227;0.038086;1.041016;
286394;-0.033203;0.037109;1.040039;
286614;-0.032227;0.039062;1.039062;
286835;-0.034180;0.039062;1.041016;
287059;-0.034180;0.038086;1.038086;
287279;-0.033203;0.038086;1.040039;
287509;-0.033203;0.037109;1.041016;
287719;-0.033203;0.039062;1.039062;
287929;-0.034180;0.039062;1.033203;
288144;-0.033203;0.038086;1.037109;
288354;-0.032227;0.036133;1.039062;
288573;-0.032227;0.039062;1.039062;
288789;-0.034180;0.039062;1.041992;
289013;-0.032227;0.040039;1.043945;
289234;-0.033203;0.039062;1.039062;
289454;-0.031250;0.040039;1.043945;
289674;-0.033203;0.039062;1.044922;
289894;-0.035156;0.038086;1.041016;
290113;-0.035156;0.039062;1.033203;
290335;-0.035156;0.039062;1.026367;
290563;-0.032227;0.038086;1.041016;
290784;-0.035156;0.040039;1.026367;
291004;-0.033203;0.038086;1.043945;
291209;-0.034180;0.040039;1.043945;
291429;-0.040039;0.036133;1.037109;
291639;-0.040039;0.035156;1.026367;
291849;-0.023438;0.038086;1.057617;
292069;-0.034180;0.038086;1.039062;
292293;-0.032227;0.038086;1.040039;
292514;-0.033203;0.038086;1.039062;
292734;-0.032227;0.038086;1.040039;
292953;-0.034180;0.037109;1.039062;
293174;-0.032227;0.038086;1.040039;
293394;-0.033203;0.038086;1.040039;
293614;-0.033203;0.037109;1.039062;
293834;-0.033203;0.039062;1.040039;
294053;-0.034180;0.039062;1.041016;
294274;-0.033203;0.038086;1.039062;
294489;-0.032227;0.037109;1.039062;
294714;-0.033203;0.036133;1.039062;
294934;-0.033203;0.040039;1.040039;
295150;-0.032227;0.038086;1.039062;
295379;-0.033203;0.037109;1.039062;
295589;-0.033203;0.037109;1.040039;
295810;-0.033203;0.038086;1.040039;
296029;-0.033203;0.038086;1.040039;
296239;-0.032227;0.038086;1.038086;
296449;-0.032227;0.038086;1.039062;
296659;-0.034180;0.038086;1.040039;
296884;-0.034180;0.038086;1.039062;
297103;-0.034180;0.038086;1.039062;
297324;-0.034180;0.038086;1.039062;
297544;-0.034180;0.038086;1.039062;
297763;-0.033203;0.038086;1.038086;
297984;-0.034180;0.037109;1.039062;
298203;-0.034180;0.039062;1.040039;
298424;-0.033203;0.037109;1.039062;
298644;-0.032227;0.037109;1.039062;
298863;-0.034180;0.037109;1.040039;
299084;-0.033203;0.038086;1.040039;
299303;-0.033203;0.038086;1.039062;
299524;-0.034180;0.037109;1.039062;
299744;-0.034180;0.038086;1.039062;
299959;-0.032227;0.036133;1.039062;
300169;-0.034180;0.038086;1.038086;
300389;-0.034180;0.039062;1.041016;
300599;-0.032227;0.039062;1.040039;
300819;-0.032227;0.039062;1.040039;
301029;-0.032227;0.037109;1.039062;
301243;-0.034180;0.039062;1.040039;
301463;-0.034180;0.039062;1.040039;
301684;-0.032227;0.040039;1.040039;
301904;-0.033203;0.039062;1.040039;
302124;-0.033203;0.039062;1.040039;
302344;-0.032227;0.039062;1.039062;
302564;-0.033203;0.037109;1.040039;
302784;-0.034180;0.038086;1.039062;
303004;-0.032227;0.039062;1.040039;
303223;-0.034180;0.038086;1.040039;
303444;-0.033203;0.039062;1.040039;
303663;-0.033203;0.040039;1.040039;
303884;-0.034180;0.037109;1.039062;
304104;-0.033203;0.038086;1.039062;
304320;-0.032227;0.040039;1.040039;
304529;-0.032227;0.038086;1.039062;
304749;-0.033203;0.039062;1.040039;
304969;-0.034180;0.037109;1.040039;
305179;-0.033203;0.038086;1.039062;
305394;-0.034180;0.037109;1.039062;
305614;-0.033203;0.038086;1.040039;
305834;-0.033203;0.038086;1.040039;
306053;-0.033203;0.038086;1.039062;
306274;-0.032227;0.038086;1.038086;
306493;-0.033203;0.038086;1.039062;
306714;-0.033203;0.037109;1.039062;
306933;-0.033203;0.039062;1.040039;
307153;-0.033203;0.039062;1.040039;
307374;-0.033203;0.037109;1.040039;
307594;-0.032227;0.039062;1.040039;
307814;-0.034180;0.038086;1.040039;
308033;-0.031250;0.039062;1.040039;
308254;-0.033203;0.038086;1.040039;
308469;-0.034180;0.036133;1.038086;
308689;-0.033203;0.037109;1.040039;
308909;-0.034180;0.037109;1.040039;
309119;-0.033203;0.039062;1.040039;
309339;-0.033203;0.039062;1.041016;
309563;-0.033203;0.040039;1.040039;
309784;-0.034180;0.038086;1.041016;
310004;-0.033203;0.037109;1.040039;
310224;-0.033203;0.038086;1.040039;
310444;-0.033203;0.039062;1.040039;
310664;-0.033203;0.040039;1.040039;
310884;-0.033203;0.037109;1.038086;
311104;-0.033203;0.037109;1.040039;
311324;-0.033203;0.037109;1.040039;
311544;-0.032227;0.038086;1.040039;
311764;-0.033203;0.039062;1.040039;
311984;-0.033203;0.038086;1.040039;
312204;-0.033203;0.039062;1.040039;
312424;-0.033203;0.039062;1.040039;
312639;-0.034180;0.038086;1.040039;
312849;-0.034180;0.038086;1.040039;
313064;-0.033203;0.037109;1.039062;
313279;-0.034180;0.039062;1.040039;
313489;-0.032227;0.038086;1.040039;
313723;-0.033203;0.038086;1.039062;
313943;-0.033203;0.038086;1.039062;
314164;-0.033203;0.038086;1.039062;
314384;-0.032227;0.039062;1.040039;
314604;-0.033203;0.037109;1.040039;
314823;-0.033203;0.038086;1.041016;
315044;-0.032227;0.038086;1.039062;
315264;-0.032227;0.039062;1.041016;
315484;-0.032227;0.039062;1.039062;
315704;-0.034180;0.037109;1.040039;
315923;-0.033203;0.038086;1.039062;
316144;-0.033203;0.038086;1.039062;
316363;-0.033203;0.038086;1.040039;
316583;-0.034180;0.037109;1.040039;
316799;-0.034180;0.038086;1.038086;
317019;-0.032227;0.038086;1.039062;
317229;-0.034180;0.038086;1.040039;
317449;-0.033203;0.037109;1.039062;
317659;-0.033203;0.039062;1.040039;
317891;-0.033203;0.037109;1.040039;
318114;-0.034180;0.039062;1.040039;
318334;-0.033203;0.038086;1.039062;
318553;-0.033203;0.038086;1.040039;
318774;-0.032227;0.038086;1.040039;
318993;-0.033203;0.037109;1.039062;
319213;-0.033203;0.038086;1.039062;
319433;-0.033203;0.039062;1.041016;
319653;-0.032227;0.038086;1.039062;
319874;-0.032227;0.038086;1.039062;
320094;-0.033203;0.037109;1.040039;
320314;-0.032227;0.039062;1.041016;
320534;-0.033203;0.039062;1.041016;
320754;-0.034180;0.037109;1.040039;
320974;-0.033203;0.038086;1.039062;
321189;-0.033203;0.037109;1.041016;
321404;-0.034180;0.038086;1.039062;
321619;-0.033203;0.039062;1.040039;
321829;-0.034180;0.038086;1.040039;
322049;-0.033203;0.038086;1.039062;
322279;-0.034180;0.038086;1.039062;
322504;-0.033203;0.039062;1.039062;
322724;-0.034180;0.038086;1.040039;
322944;-0.035156;0.038086;1.038086;
323164;-0.034180;0.038086;1.039062;
323384;-0.032227;0.038086;1.039062;
323604;-0.034180;0.038086;1.040039;
323823;-0.034180;0.039062;1.040039;
324043;-0.033203;0.039062;1.040039;
324264;-0.033203;0.039062;1.040039;
324483;-0.034180;0.038086;1.039062;
324704;-0.034180;0.038086;1.041016;
324923;-0.033203;0.038086;1.039062;
325143;-0.032227;0.039062;1.040039;
325363;-0.032227;0.039062;1.039062;
325569;-0.033203;0.039062;1.038086;
325793;-0.033203;0.038086;1.040039;
326009;-0.034180;0.037109;1.039062;
326229;-0.032227;0.039062;1.039062;
326449;-0.032227;0.039062;1.040039;
326669;-0.032227;0.040039;1.041016;
326903;-0.033203;0.038086;1.040039;
327124;-0.034180;0.039062;1.040039;
327343;-0.033203;0.037109;1.039062;
327564;-0.034180;0.039062;1.039062;
327783;-0.034180;0.038086;1.038086;
328004;-0.032227;0.038086;1.040039;
328224;-0.032227;0.038086;1.039062;
328444;-0.034180;0.038086;1.039062;
328664;-0.033203;0.038086;1.040039;
328883;-0.034180;0.038086;1.040039;
329104;-0.033203;0.038086;1.040039;
329323;-0.034180;0.038086;1.040039;
329544;-0.034180;0.037109;1.040039;
329764;-0.033203;0.038086;1.038086;
329979;-0.032227;0.039062;1.040039;
330199;-0.033203;0.039062;1.040039;
330409;-0.033203;0.037109;1.037109;
330629;-0.034180;0.037109;1.040039;
330853;-0.033203;0.039062;1.040039;
331074;-0.033203;0.038086;1.041016;
331294;-0.033203;0.038086;1.039062;
331513;-0.034180;0.038086;1.040039;
331734;-0.034180;0.037109;1.041016;
331954;-0.034180;0.039062;1.039062;
332174;-0.033203;0.040039;1.040039;
332394;-0.033203;0.039062;1.040039;
332614;-0.032227;0.037109;1.039062;
332833;-0.033203;0.038086;1.040039;
333053;-0.032227;0.040039;1.041016;
333273;-0.033203;0.037109;1.039062;
333493;-0.034180;0.038086;1.040039;
333714;-0.033203;0.036133;1.040039;
333929;-0.033203;0.038086;1.039062;
334139;-0.033203;0.038086;1.039062;
334359;-0.032227;0.039062;1.039062;
334579;-0.033203;0.039062;1.041016;
334789;-0.033203;0.038086;1.040039;
334993;-0.033203;0.037109;1.040039;
335204;-0.032227;0.038086;1.039062;
335423;-0.032227;0.039062;1.039062;
335644;-0.034180;0.038086;1.040039;
335864;-0.034180;0.038086;1.039062;
336083;-0.033203;0.039062;1.040039;
336304;-0.033203;0.039062;1.040039;
336524;-0.033203;0.038086;1.040039;
336744;-0.032227;0.037109;1.040039;
336964;-0.033203;0.039062;1.040039;
337184;-0.033203;0.040039;1.040039;
337404;-0.033203;0.038086;1.040039;
337623;-0.034180;0.039062;1.040039;
337843;-0.033203;0.038086;1.039062;
338063;-0.033203;0.038086;1.039062;
338279;-0.032227;0.039062;1.040039;
338509;-0.034180;0.038086;1.039062;
338729;-0.033203;0.038086;1.040039;
338939;-0.034180;0.037109;1.041016;
339149;-0.033203;0.038086;1.038086;
339364;-0.032227;0.040039;1.040039;
339584;-0.033203;0.037109;1.041016;
339803;-0.033203;0.038086;1.040039;
340024;-0.033203;0.039062;1.039062;
340243;-0.033203;0.037109;1.039062;
340464;-0.034180;0.039062;1.039062;
340684;-0.032227;0.039062;1.038086;
340903;-0.033203;0.039062;1.039062;
341124;-0.034180;0.038086;1.040039;
341344;-0.032227;0.039062;1.039062;
341563;-0.033203;0.038086;1.040039;
341784;-0.032227;0.039062;1.041016;
342003;-0.033203;0.039062;1.041016;
342225;-0.033203;0.039062;1.041016;
342430;-0.033203;0.038086;1.040039;
342631;-0.033203;0.038086;1.040039;
342849;-0.034180;0.038086;1.038086;
343059;-0.034180;0.037109;1.040039;
343279;-0.033203;0.038086;1.039062;
343493;-0.032227;0.038086;1.039062;
343713;-0.035156;0.038086;1.038086;
343934;-0.033203;0.038086;1.040039;
344154;-0.032227;0.038086;1.039062;
344374;-0.032227;0.039062;1.040039;
344593;-0.033203;0.039062;1.041016;
344814;-0.032227;0.038086;1.040039;
345034;-0.033203;0.039062;1.040039;
345254;-0.034180;0.038086;1.037109;
345473;-0.034180;0.038086;1.040039;
345694;-0.034180;0.038086;1.039062;
345914;-0.033203;0.039062;1.040039;
346134;-0.033203;0.040039;1.040039;
346354;-0.033203;0.040039;1.039062;
346569;-0.034180;0.038086;1.040039;
346781;-0.033203;0.039062;1.040039;
346999;-0.032227;0.038086;1.040039;
347214;-0.033203;0.038086;1.040039;
347420;-0.033203;0.037109;1.040039;
347630;-0.033203;0.039062;1.040039;
347853;-0.034180;0.039062;1.039062;
348074;-0.033203;0.040039;1.039062;
348294;-0.033203;0.039062;1.040039;
348514;-0.034180;0.039062;1.039062;
348733;-0.033203;0.038086;1.040039;
348954;-0.033203;0.038086;1.038086;
349173;-0.034180;0.039062;1.039062;
349394;-0.034180;0.039062;1.040039;
349614;-0.033203;0.040039;1.040039;
349834;-0.034180;0.036133;1.039062;
350054;-0.034180;0.038086;1.041016;
350274;-0.033203;0.038086;1.039062;
350493;-0.034180;0.038086;1.038086;
350709;-0.033203;0.041016;1.039062;
350919;-0.031250;0.039062;1.043945;
351143;-0.034180;0.038086;1.039062;
351350;-0.033203;0.038086;1.038086;
351559;-0.033203;0.038086;1.041016;
351769;-0.034180;0.039062;1.041016;
351989;-0.031250;0.041992;1.039062;
352204;-0.033203;0.039062;1.038086;
352424;-0.032227;0.039062;1.040039;
352643;-0.033203;0.038086;1.040039;
352864;-0.033203;0.036133;1.041016;
353079;-0.033203;0.036133;1.040039;
353304;-0.032227;0.039062;1.040039;
353524;-0.034180;0.037109;1.039062;
353740;-0.035156;0.037109;1.040039;
353959;-0.033203;0.040039;1.040039;
354183;-0.033203;0.039062;1.039062;
354404;-0.032227;0.039062;1.040039;
354624;-0.034180;0.039062;1.041016;
354839;-0.034180;0.037109;1.040039;
355039;-0.033203;0.038086;1.040039;
355259;-0.033203;0.038086;1.039062;
355479;-0.033203;0.039062;1.039062;
355689;-0.033203;0.039062;1.040039;
355919;-0.033203;0.038086;1.040039;
356139;-0.033203;0.037109;1.040039;
356349;-0.034180;0.038086;1.038086;
356559;-0.033203;0.038086;1.040039;
356769;-0.034180;0.038086;1.040039;
356989;-0.034180;0.039062;1.040039;
357204;-0.033203;0.039062;1.039062;
357423;-0.034180;0.039062;1.039062;
357639;-0.032227;0.040039;1.039062;
357874;-0.033203;0.038086;1.040039;
358093;-0.033203;0.039062;1.040039;
358309;-0.033203;0.038086;1.039062;
358534;-0.034180;0.038086;1.040039;
358749;-0.034180;0.039062;1.040039;
358962;-0.034180;0.038086;1.039062;
359169;-0.033203;0.040039;1.041016;
359384;-0.033203;0.038086;1.041016;
359603;-0.033203;0.038086;1.040039;
359820;-0.031250;0.038086;1.038086;
360029;-0.034180;0.038086;1.041992;
360264;-0.032227;0.039062;1.040039;
360469;-0.034180;0.038086;1.040039;
360679;-0.032227;0.039062;1.041016;
360909;-0.032227;0.039062;1.040039;
361139;-0.033203;0.037109;1.039062;
361349;-0.032227;0.039062;1.041016;
361559;-0.033203;0.037109;1.040039;
361779;-0.033203;0.038086;1.040039;
361989;-0.033203;0.039062;1.039062;
362209;-0.031250;0.039062;1.040039;
362419;-0.033203;0.038086;1.039062;
362639;-0.034180;0.038086;1.039062;
362849;-0.033203;0.038086;1.039062;
363073;-0.034180;0.039062;1.041016;
363294;-0.033203;0.038086;1.039062;
363515;-0.033203;0.037109;1.040039;
363729;-0.034180;0.039062;1.040039;
363954;-0.034180;0.037109;1.039062;
364174;-0.034180;0.038086;1.040039;
364394;-0.034180;0.038086;1.041016;
364609;-0.034180;0.037109;1.039062;
364819;-0.033203;0.038086;1.040039;
365034;-0.034180;0.039062;1.040039;
365253;-0.034180;0.037109;1.039062;
365469;-0.032227;0.039062;1.040039;
365679;-0.032227;0.038086;1.040039;
365914;-0.034180;0.037109;1.041016;
366134;-0.034180;0.040039;1.041016;
366349;-0.033203;0.039062;1.041016;
366579;-0.033203;0.038086;1.040039;
366799;-0.033203;0.039062;1.041016;
367019;-0.033203;0.038086;1.039062;
367229;-0.033203;0.038086;1.039062;
367459;-0.032227;0.039062;1.040039;
367679;-0.034180;0.039062;1.041016;
367899;-0.032227;0.038086;1.039062;
368109;-0.032227;0.039062;1.039062;
368339;-0.034180;0.038086;1.040039;
368549;-0.033203;0.039062;1.041016;
368769;-0.034180;0.037109;1.040039;
368989;-0.032227;0.039062;1.040039;
369213;-0.034180;0.038086;1.039062;
369434;-0.033203;0.038086;1.040039;
369650;-0.033203;0.038086;1.040039;
369859;-0.033203;0.037109;1.039062;
370070;-0.034180;0.038086;1.040039;
370274;-0.033203;0.040039;1.041016;
370479;-0.032227;0.040039;1.040039;
370693;-0.033203;0.039062;1.040039;
370913;-0.033203;0.039062;1.040039;
371129;-0.033203;0.039062;1.038086;
371349;-0.031250;0.039062;1.040039;
371574;-0.033203;0.038086;1.039062;
371789;-0.034180;0.038086;1.040039;
371999;-0.033203;0.040039;1.040039;
372209;-0.033203;0.040039;1.041016;
372410;-0.034180;0.038086;1.040039;
372621;-0.034180;0.038086;1.039062;
372829;-0.035156;0.038086;1.040039;
373049;-0.032227;0.037109;1.039062;
373269;-0.034180;0.038086;1.040039;
373480;-0.034180;0.037109;1.041016;
373699;-0.033203;0.041016;1.040039;
373919;-0.035156;0.038086;1.041016;
374149;-0.033203;0.038086;1.038086;
374379;-0.032227;0.038086;1.040039;
374599;-0.033203;0.041016;1.041016;
374819;-0.033203;0.038086;1.040039;
375044;-0.035156;0.037109;1.040039;
375263;-0.033203;0.037109;1.038086;
375481;-0.032227;0.040039;1.040039;
375699;-0.034180;0.039062;1.038086;
375919;-0.033203;0.039062;1.040039;
376134;-0.034180;0.039062;1.037109;
376354;-0.032227;0.038086;1.041016;
376573;-0.033203;0.040039;1.037109;
376779;-0.033203;0.040039;1.039062;
376994;-0.032227;0.039062;1.040039;
377214;-0.033203;0.038086;1.039062;
377429;-0.034180;0.038086;1.038086;
377651;-0.033203;0.039062;1.041016;
377860;-0.034180;0.039062;1.039062;
378079;-0.035156;0.037109;1.041016;
378291;-0.032227;0.040039;1.040039;
378501;-0.032227;0.038086;1.041016;
378709;-0.034180;0.040039;1.040039;
378919;-0.033203;0.037109;1.038086;
379149;-0.033203;0.038086;1.039062;
379361;-0.033203;0.037109;1.038086;
379579;-0.033203;0.039062;1.039062;
379789;-0.032227;0.040039;1.038086;
380000;-0.033203;0.038086;1.041992;
380219;-0.033203;0.038086;1.041016;
380439;-0.033203;0.039062;1.040039;
380660;-0.032227;0.039062;1.039062;
380870;-0.033203;0.039062;1.040039;
381094;-0.034180;0.038086;1.039062;
381299;-0.034180;0.036133;1.041992;
381523;-0.033203;0.039062;1.039062;
381744;-0.033203;0.038086;1.040039;
381959;-0.033203;0.037109;1.040039;
382179;-0.032227;0.038086;1.039062;
382392;-0.033203;0.038086;1.040039;
382619;-0.034180;0.037109;1.040039;
382829;-0.033203;0.039062;1.041016;
383054;-0.034180;0.039062;1.040039;
383273;-0.033203;0.039062;1.039062;
383489;-0.033203;0.041016;1.039062;
383699;-0.033203;0.039062;1.041016;
383919;-0.032227;0.037109;1.039062;
384130;-0.032227;0.039062;1.043945;
384349;-0.033203;0.037109;1.038086;
384569;-0.032227;0.039062;1.038086;
384780;-0.033203;0.038086;1.039062;
384989;-0.033203;0.039062;1.039062;
385199;-0.032227;0.038086;1.040039;
385424;-0.034180;0.038086;1.041016;
385643;-0.033203;0.037109;1.040039;
385864;-0.033203;0.038086;1.040039;
386083;-0.034180;0.037109;1.038086;
386304;-0.032227;0.038086;1.041016;
386524;-0.033203;0.037109;1.040039;
386743;-0.033203;0.040039;1.040039;
386963;-0.034180;0.039062;1.040039;
387183;-0.034180;0.038086;1.040039;
387404;-0.034180;0.038086;1.043945;
387614;-0.033203;0.039062;1.041016;
387834;-0.033203;0.039062;1.039062;
388054;-0.033203;0.038086;1.039062;
388273;-0.033203;0.039062;1.041016;
388479;-0.033203;0.039062;1.040039;
388689;-0.033203;0.040039;1.039062;
388899;-0.033203;0.038086;1.041016;
389114;-0.032227;0.038086;1.039062;
389329;-0.034180;0.038086;1.038086;
389549;-0.033203;0.039062;1.040039;
389769;-0.034180;0.039062;1.040039;
389994;-0.034180;0.038086;1.040039;
390213;-0.033203;0.038086;1.040039;
390433;-0.032227;0.038086;1.039062;
390654;-0.032227;0.039062;1.039062;
390874;-0.032227;0.040039;1.039062;
391094;-0.034180;0.038086;1.041016;
391313;-0.033203;0.039062;1.039062;
391533;-0.033203;0.038086;1.041016;
391753;-0.034180;0.038086;1.040039;
391973;-0.033203;0.039062;1.039062;
392194;-0.034180;0.039062;1.038086;
392414;-0.034180;0.038086;1.039062;
392634;-0.034180;0.038086;1.038086;
392854;-0.033203;0.039062;1.038086;
393069;-0.034180;0.041992;1.039062;
393292;-0.033203;0.040039;1.041016;
393509;-0.034180;0.039062;1.040039;
393709;-0.034180;0.036133;1.040039;
393929;-0.033203;0.039062;1.040039;
394139;-0.033203;0.037109;1.040039;
394353;-0.034180;0.038086;1.040039;
394574;-0.034180;0.039062;1.039062;
394794;-0.034180;0.038086;1.040039;
395013;-0.034180;0.038086;1.040039;
395234;-0.033203;0.038086;1.038086;
395454;-0.033203;0.040039;1.038086;
395673;-0.033203;0.039062;1.041016;
395894;-0.034180;0.039062;1.040039;
396114;-0.034180;0.039062;1.038086;
396334;-0.032227;0.040039;1.039062;
396553;-0.033203;0.039062;1.039062;
396774;-0.033203;0.040039;1.038086;
396994;-0.034180;0.038086;1.039062;
397214;-0.033203;0.037109;1.041016;
397419;-0.033203;0.039062;1.039062;
397629;-0.033203;0.039062;1.039062;
397840;-0.032227;0.039062;1.041016;
398059;-0.033203;0.039062;1.040039;
398289;-0.032227;0.039062;1.041016;
398514;-0.035156;0.038086;1.039062;
398734;-0.033203;0.038086;1.038086;
398954;-0.033203;0.038086;1.038086;
399174;-0.034180;0.038086;1.040039;
399393;-0.035156;0.037109;1.040039;
399614;-0.033203;0.039062;1.038086;
399834;-0.034180;0.037109;1.040039;
400054;-0.032227;0.039062;1.040039;
400273;-0.033203;0.039062;1.039062;
400493;-0.034180;0.039062;1.040039;
400714;-0.033203;0.039062;1.040039;
400933;-0.032227;0.040039;1.039062;
401154;-0.034180;0.039062;1.041016;
401373;-0.033203;0.038086;1.040039;
401589;-0.033203;0.037109;1.039062;
401809;-0.033203;0.038086;1.041016;
402029;-0.033203;0.039062;1.039062;
402239;-0.034180;0.039062;1.041016;
402459;-0.032227;0.039062;1.039062;
402674;-0.033203;0.040039;1.040039;
402894;-0.034180;0.037109;1.038086;
403113;-0.034180;0.039062;1.038086;
403334;-0.032227;0.038086;1.039062;
403553;-0.033203;0.040039;1.040039;
403774;-0.034180;0.038086;1.039062;
403994;-0.034180;0.038086;1.040039;
404214;-0.033203;0.041016;1.040039;
404434;-0.034180;0.039062;1.039062;
404654;-0.033203;0.039062;1.040039;
404873;-0.032227;0.038086;1.040039;
405094;-0.034180;0.038086;1.040039;
405314;-0.033203;0.039062;1.041016;
405535;-0.033203;0.039062;1.038086;
405749;-0.034180;0.039062;1.039062;
405969;-0.033203;0.039062;1.037109;
406199;-0.033203;0.037109;1.040039;
406410;-0.033203;0.039062;1.040039;
406629;-0.034180;0.037109;1.039062;
406844;-0.034180;0.038086;1.039062;
407063;-0.033203;0.039062;1.040039;
407284;-0.032227;0.039062;1.039062;
407504;-0.033203;0.039062;1.039062;
407724;-0.035156;0.038086;1.040039;
407944;-0.035156;0.039062;1.039062;
408163;-0.033203;0.039062;1.041016;
408383;-0.033203;0.038086;1.041992;
408603;-0.032227;0.039062;1.040039;
408823;-0.033203;0.038086;1.039062;
409044;-0.034180;0.039062;1.040039;
409263;-0.033203;0.039062;1.041016;
409484;-0.033203;0.040039;1.038086;
409705;-0.032227;0.039062;1.041016;
409909;-0.033203;0.038086;1.038086;
410129;-0.034180;0.038086;1.039062;
410354;-0.035156;0.038086;1.040039;
410569;-0.034180;0.038086;1.039062;
410779;-0.032227;0.037109;1.038086;
410994;-0.033203;0.040039;1.041016;
411213;-0.032227;0.040039;1.041016;
411433;-0.033203;0.038086;1.039062;
411654;-0.033203;0.038086;1.041016;
411873;-0.032227;0.039062;1.040039;
412094;-0.035156;0.037109;1.041016;
412314;-0.033203;0.038086;1.039062;
412534;-0.032227;0.039062;1.041016;
412754;-0.033203;0.041016;1.040039;
412973;-0.033203;0.038086;1.040039;
413194;-0.032227;0.039062;1.040039;
413413;-0.034180;0.038086;1.039062;
413634;-0.033203;0.040039;1.040039;
413854;-0.033203;0.039062;1.040039;
414059;-0.034180;0.037109;1.040039;
414270;-0.034180;0.038086;1.038086;
414489;-0.033203;0.037109;1.041016;
414709;-0.034180;0.040039;1.041016;
414929;-0.033203;0.040039;1.040039;
415154;-0.035156;0.038086;1.039062;
415374;-0.033203;0.038086;1.039062;
415594;-0.035156;0.037109;1.040039;
415813;-0.033203;0.039062;1.041016;
416034;-0.033203;0.038086;1.041016;
416253;-0.033203;0.039062;1.041016;
416474;-0.032227;0.038086;1.039062;
416693;-0.032227;0.038086;1.041016;
416913;-0.033203;0.038086;1.039062;
417134;-0.033203;0.039062;1.040039;
417353;-0.034180;0.038086;1.040039;
417574;-0.034180;0.038086;1.039062;
417794;-0.033203;0.039062;1.039062;
418009;-0.030273;0.037109;1.061523;
418219;-0.034180;0.038086;1.040039;
418440;-0.033203;0.040039;1.041016;
418660;-0.032227;0.040039;1.040039;
418879;-0.034180;0.038086;1.040039;
419089;-0.033203;0.040039;1.041992;
419314;-0.033203;0.040039;1.039062;
419534;-0.033203;0.039062;1.041016;
419754;-0.032227;0.039062;1.040039;
419974;-0.033203;0.040039;1.040039;
420184;-0.033203;0.038086;1.039062;
420404;-0.032227;0.037109;1.038086;
420619;-0.033203;0.039062;1.041016;
420844;-0.034180;0.037109;1.038086;
421063;-0.031250;0.040039;1.045898;
421284;-0.033203;0.039062;1.041992;
421504;-0.032227;0.039062;1.038086;
421724;-0.033203;0.039062;1.041016;
421944;-0.033203;0.040039;1.041016;
422163;-0.032227;0.039062;1.041992;
422369;-0.033203;0.037109;1.039062;
422594;-0.034180;0.037109;1.045898;
422813;-0.034180;0.038086;1.038086;
423029;-0.034180;0.040039;1.042969;
423249;-0.035156;0.039062;1.023438;
423479;-0.034180;0.037109;1.036133;
423703;-0.039062;0.035156;1.020508;
423923;-0.047852;0.040039;1.021484;
424144;-0.040039;0.051758;0.968750;
424364;-0.019531;0.047852;1.057617;
424584;-0.052734;0.044922;0.985352;
424804;-0.016602;0.041992;1.036133;
425024;-0.021484;0.041992;1.043945;
425244;-0.039062;0.034180;1.034180;
425463;-0.033203;0.042969;1.029297;
425684;-0.036133;0.040039;1.037109;
425904;-0.034180;0.037109;1.035156;
426124;-0.035156;0.041992;1.040039;
426344;-0.039062;0.040039;1.004883;
426563;-0.031250;0.038086;1.043945;
426784;-0.035156;0.039062;1.032227;
427001;-0.030273;0.041992;1.035156;
427209;-0.034180;0.038086;1.041016;
427419;-0.033203;0.038086;1.038086;
427639;-0.034180;0.039062;1.040039;
427859;-0.032227;0.038086;1.039062;
428091;-0.033203;0.039062;1.040039;
428304;-0.034180;0.036133;1.040039;
428524;-0.032227;0.040039;1.038086;
428743;-0.032227;0.040039;1.039062;
428963;-0.033203;0.039062;1.040039;
429184;-0.032227;0.039062;1.038086;
429404;-0.033203;0.039062;1.041016;
429624;-0.033203;0.039062;1.039062;
429844;-0.035156;0.038086;1.039062;
430064;-0.035156;0.038086;1.039062;
430283;-0.032227;0.039062;1.037109;
430504;-0.033203;0.039062;1.041992;
430724;-0.032227;0.040039;1.040039;
430939;-0.034180;0.037109;1.038086;
431154;-0.035156;0.038086;1.036133;
431372;-0.035156;0.038086;1.038086;
431589;-0.035156;0.039062;1.032227;
431809;-0.035156;0.039062;1.032227;
432029;-0.034180;0.033203;1.034180;
432264;-0.032227;0.041016;1.050781;
432479;-0.034180;0.035156;1.050781;
432693;-0.017578;0.053711;1.083984;
432909;-0.034180;0.031250;1.071289;
433133;-0.033203;0.038086;1.039062;
433354;-0.033203;0.038086;1.039062;
433573;-0.033203;0.040039;1.040039;
433793;-0.034180;0.038086;1.039062;
434014;-0.034180;0.038086;1.040039;
434234;-0.034180;0.038086;1.040039;
434454;-0.035156;0.034180;1.059570;
434673;-0.027344;0.041016;1.049805;
434894;-0.034180;0.037109;1.041016;
435114;-0.033203;0.039062;1.041016;
435334;-0.034180;0.038086;1.041016;
435554;-0.032227;0.039062;1.039062;
435774;-0.032227;0.039062;1.039062;
435993;-0.033203;0.038086;1.039062;
436209;-0.032227;0.040039;1.039062;
436421;-0.032227;0.039062;1.038086;
436629;-0.034180;0.037109;1.040039;
436839;-0.034180;0.038086;1.039062;
437059;-0.032227;0.040039;1.039062;
437269;-0.033203;0.037109;1.039062;
437484;-0.034180;0.039062;1.040039;
437704;-0.034180;0.040039;1.041016;
437914;-0.034180;0.037109;1.039062;
438134;-0.034180;0.038086;1.040039;
438353;-0.034180;0.038086;1.039062;
438574;-0.034180;0.038086;1.039062;
438789;-0.033203;0.039062;1.040039;
439013;-0.034180;0.038086;1.038086;
439233;-0.033203;0.039062;1.040039;
439454;-0.033203;0.039062;1.041016;
439673;-0.035156;0.038086;1.038086;
439891;-0.034180;0.037109;1.041992;
440114;-0.036133;0.037109;1.042969;
440333;-0.033203;0.040039;1.044922;
440539;-0.033203;0.039062;1.040039;
440759;-0.035156;0.038086;1.039062;
440969;-0.034180;0.047852;1.115234;
441189;-0.034180;0.039062;1.030273;
441400;-0.037109;0.037109;1.018555;
441619;-0.035156;0.039062;1.036133;
441834;-0.034180;0.041016;1.027344;
442054;-0.033203;0.036133;1.052734;
442274;-0.037109;0.037109;1.047852;
442493;-0.032227;0.038086;1.037109;
442714;-0.033203;0.038086;1.039062;
442934;-0.034180;0.039062;1.040039;
443153;-0.033203;0.040039;1.040039;
443373;-0.034180;0.037109;1.040039;
443584;-0.033203;0.039062;1.041016;
443804;-0.032227;0.039062;1.040039;
444019;-0.033203;0.039062;1.040039;
444243;-0.033203;0.040039;1.041016;
444464;-0.035156;0.039062;1.039062;
444683;-0.032227;0.038086;1.040039;
444909;-0.035156;0.038086;1.039062;
445139;-0.034180;0.038086;1.041016;
445359;-0.033203;0.038086;1.039062;
445569;-0.033203;0.039062;1.041016;
445783;-0.033203;0.038086;1.039062;
445999;-0.034180;0.039062;1.040039;
446209;-0.033203;0.041016;1.038086;
446423;-0.033203;0.038086;1.040039;
446644;-0.033203;0.039062;1.040039;
446864;-0.034180;0.037109;1.038086;
447084;-0.033203;0.039062;1.039062;
447303;-0.033203;0.039062;1.038086;
447523;-0.033203;0.038086;1.038086;
447744;-0.033203;0.039062;1.040039;
447964;-0.032227;0.039062;1.039062;
448184;-0.034180;0.039062;1.041016;
448403;-0.034180;0.039062;1.040039;
448623;-0.033203;0.038086;1.040039;
448843;-0.032227;0.039062;1.040039;
449063;-0.033203;0.038086;1.041016;
449284;-0.032227;0.038086;1.041016;
449499;-0.034180;0.039062;1.040039;
449709;-0.033203;0.040039;1.039062;
449924;-0.033203;0.038086;1.040039;
450129;-0.034180;0.038086;1.040039;
450349;-0.033203;0.038086;1.040039;
450559;-0.032227;0.038086;1.039062;
450773;-0.033203;0.039062;1.040039;
450994;-0.033203;0.039062;1.039062;
451214;-0.034180;0.040039;1.041016;
451433;-0.035156;0.037109;1.041016;
451654;-0.034180;0.040039;1.039062;
451874;-0.034180;0.039062;1.041016;
452093;-0.033203;0.041016;1.040039;
452314;-0.034180;0.040039;1.039062;
452534;-0.035156;0.038086;1.040039;
452753;-0.034180;0.038086;1.040039;
452973;-0.033203;0.039062;1.041016;
453193;-0.033203;0.041016;1.041016;
453414;-0.034180;0.038086;1.040039;
453634;-0.033203;0.039062;1.041016;
453839;-0.033203;0.038086;1.040039;
454049;-0.034180;0.037109;1.039062;
454259;-0.033203;0.037109;1.040039;
454469;-0.034180;0.041016;1.040039;
454669;-0.033203;0.040039;1.039062;
454879;-0.032227;0.041016;1.040039;
455103;-0.034180;0.038086;1.040039;
455324;-0.033203;0.039062;1.040039;
455544;-0.033203;0.038086;1.040039;
455764;-0.033203;0.038086;1.040039;
455983;-0.033203;0.039062;1.040039;
456204;-0.033203;0.040039;1.039062;
456423;-0.035156;0.038086;1.040039;
456644;-0.034180;0.039062;1.039062;
456864;-0.034180;0.039062;1.040039;
457084;-0.034180;0.038086;1.039062;
457304;-0.034180;0.038086;1.040039;
457524;-0.032227;0.040039;1.039062;
457744;-0.033203;0.038086;1.039062;
457963;-0.032227;0.038086;1.039062;
458170;-0.033203;0.039062;1.041992;
458389;-0.032227;0.038086;1.038086;
458609;-0.033203;0.039062;1.041016;
458839;-0.034180;0.039062;1.039062;
459051;-0.033203;0.039062;1.040039;
459252;-0.034180;0.038086;1.040039;
459473;-0.032227;0.040039;1.041016;
459693;-0.033203;0.038086;1.038086;
459913;-0.033203;0.039062;1.039062;
460134;-0.033203;0.039062;1.040039;
460353;-0.034180;0.039062;1.039062;
460574;-0.034180;0.038086;1.040039;
460793;-0.034180;0.039062;1.039062;
461014;-0.033203;0.038086;1.040039;
461234;-0.031250;0.038086;1.039062;
461454;-0.033203;0.038086;1.040039;
461674;-0.034180;0.040039;1.041016;
461893;-0.034180;0.039062;1.040039;
462114;-0.032227;0.039062;1.040039;
462329;-0.033203;0.039062;1.040039;
462539;-0.032227;0.039062;1.040039;
462769;-0.034180;0.039062;1.040039;
462989;-0.034180;0.038086;1.039062;
463209;-0.033203;0.037109;1.038086;
463419;-0.033203;0.039062;1.041016;
463629;-0.033203;0.038086;1.039062;
463854;-0.032227;0.039062;1.041016;
464073;-0.034180;0.038086;1.039062;
464293;-0.033203;0.041016;1.039062;
464514;-0.034180;0.038086;1.039062;
464734;-0.033203;0.039062;1.039062;
464954;-0.033203;0.039062;1.040039;
465174;-0.034180;0.038086;1.038086;
465394;-0.032227;0.040039;1.040039;
465614;-0.033203;0.038086;1.039062;
465833;-0.033203;0.039062;1.040039;
466054;-0.033203;0.038086;1.038086;
466274;-0.033203;0.040039;1.039062;
466493;-0.034180;0.039062;1.038086;
466713;-0.034180;0.038086;1.040039;
466919;-0.033203;0.039062;1.040039;
467129;-0.034180;0.039062;1.040039;
467349;-0.033203;0.039062;1.041016;
467559;-0.033203;0.039062;1.041016;
467769;-0.033203;0.038086;1.039062;
467983;-0.033203;0.040039;1.040039;
468204;-0.033203;0.039062;1.040039;
468424;-0.033203;0.039062;1.040039;
468644;-0.033203;0.040039;1.040039;
468864;-0.033203;0.039062;1.041016;
469083;-0.033203;0.040039;1.041016;
469304;-0.034180;0.038086;1.041992;
469524;-0.035156;0.038086;1.040039;
469744;-0.034180;0.038086;1.040039;
469963;-0.033203;0.038086;1.039062;
470184;-0.032227;0.038086;1.038086;
470403;-0.032227;0.039062;1.041016;
470624;-0.033203;0.040039;1.040039;
470844;-0.034180;0.038086;1.040039;
471059;-0.033203;0.039062;1.041016;
471279;-0.033203;0.039062;1.040039;
471489;-0.032227;0.039062;1.040039;
471699;-0.033203;0.037109;1.039062;
471919;-0.034180;0.039062;1.041016;
472139;-0.033203;0.038086;1.039062;
472343;-0.034180;0.038086;1.040039;
472564;-0.034180;0.039062;1.040039;
472783;-0.034180;0.041016;1.040039;
473004;-0.033203;0.039062;1.041016;
473224;-0.033203;0.038086;1.040039;
473443;-0.032227;0.038086;1.041016;
473664;-0.034180;0.038086;1.038086;
473884;-0.032227;0.038086;1.039062;
474104;-0.032227;0.038086;1.040039;
474324;-0.033203;0.039062;1.039062;
474543;-0.034180;0.039062;1.040039;
474764;-0.032227;0.038086;1.039062;
474983;-0.033203;0.039062;1.040039;
475204;-0.032227;0.037109;1.039062;
475410;-0.034180;0.039062;1.039062;
475619;-0.034180;0.039062;1.039062;
475850;-0.032227;0.040039;1.039062;
476059;-0.033203;0.038086;1.041016;
476270;-0.033203;0.039062;1.041016;
476484;-0.033203;0.038086;1.038086;
476704;-0.033203;0.038086;1.041016;
476924;-0.034180;0.037109;1.040039;
477144;-0.033203;0.039062;1.039062;
477364;-0.034180;0.039062;1.039062;
477584;-0.033203;0.038086;1.040039;
477803;-0.034180;0.038086;1.039062;
478024;-0.034180;0.038086;1.040039;
478244;-0.033203;0.038086;1.040039;
478463;-0.032227;0.038086;1.041992;
478684;-0.033203;0.039062;1.041016;
478903;-0.034180;0.038086;1.041016;
479123;-0.034180;0.039062;1.039062;
479344;-0.034180;0.040039;1.040039;
479559;-0.033203;0.038086;1.041992;
479769;-0.033203;0.037109;1.040039;
479989;-0.033203;0.040039;1.041992;
480199;-0.033203;0.040039;1.041016;
480419;-0.033203;0.038086;1.040039;
480644;-0.033203;0.039062;1.040039;
480864;-0.033203;0.038086;1.040039;
481084;-0.033203;0.038086;1.040039;
481304;-0.033203;0.039062;1.040039;
481524;-0.035156;0.039062;1.040039;
481744;-0.033203;0.039062;1.040039;
481964;-0.032227;0.039062;1.041016;
482184;-0.034180;0.038086;1.040039;
482404;-0.032227;0.039062;1.041016;
482624;-0.033203;0.038086;1.039062;
482843;-0.032227;0.040039;1.041992;
483064;-0.034180;0.038086;1.039062;
483284;-0.033203;0.038086;1.040039;
483499;-0.033203;0.038086;1.041016;
483729;-0.033203;0.040039;1.040039;
483939;-0.033203;0.039062;1.040039;
484169;-0.031250;0.039062;1.040039;
484399;-0.032227;0.039062;1.040039;
484614;-0.034180;0.038086;1.041016;
484834;-0.034180;0.036133;1.040039;
485053;-0.034180;0.038086;1.041016;
485274;-0.032227;0.038086;1.039062;
485493;-0.033203;0.039062;1.041016;
485714;-0.032227;0.039062;1.041016;
485934;-0.032227;0.039062;1.040039;
486154;-0.032227;0.039062;1.039062;
486374;-0.034180;0.038086;1.041016;
486594;-0.033203;0.040039;1.040039;
486814;-0.033203;0.038086;1.039062;
487034;-0.034180;0.038086;1.040039;
487254;-0.033203;0.038086;1.040039;
487475;-0.033203;0.039062;1.040039;
487689;-0.034180;0.038086;1.040039;
487899;-0.034180;0.040039;1.040039;
488119;-0.032227;0.039062;1.040039;
488343;-0.032227;0.038086;1.040039;
488559;-0.034180;0.037109;1.039062;
488769;-0.032227;0.041016;1.041016;
488993;-0.033203;0.039062;1.040039;
489214;-0.033203;0.039062;1.040039;
489434;-0.032227;0.039062;1.041016;
489654;-0.033203;0.038086;1.038086;
489874;-0.033203;0.040039;1.040039;
490093;-0.033203;0.038086;1.040039;
490314;-0.033203;0.041016;1.039062;
490534;-0.034180;0.038086;1.041016;
490754;-0.034180;0.038086;1.041016;
490973;-0.035156;0.039062;1.041016;
491194;-0.033203;0.039062;1.040039;
491414;-0.034180;0.039062;1.040039;
491633;-0.034180;0.038086;1.041016;
491854;-0.033203;0.040039;1.040039;
492059;-0.034180;0.039062;1.041016;
492279;-0.033203;0.039062;1.040039;
492499;-0.033203;0.038086;1.041016;
492719;-0.034180;0.038086;1.040039;
492924;-0.032227;0.039062;1.040039;
493143;-0.033203;0.038086;1.041016;
493349;-0.033203;0.038086;1.040039;
493573;-0.033203;0.038086;1.040039;
493793;-0.032227;0.039062;1.039062;
494013;-0.034180;0.038086;1.041016;
494234;-0.033203;0.039062;1.039062;
494454;-0.033203;0.038086;1.040039;
494674;-0.033203;0.039062;1.041016;
494893;-0.034180;0.038086;1.039062;
495114;-0.034180;0.038086;1.041016;
495333;-0.033203;0.039062;1.040039;
495554;-0.033203;0.039062;1.039062;
495773;-0.033203;0.038086;1.039062;
495993;-0.034180;0.037109;1.041016;
496214;-0.033203;0.039062;1.041016;
496433;-0.032227;0.039062;1.039062;
496650;-0.033203;0.041016;1.040039;
496864;-0.034180;0.039062;1.041016;
497069;-0.033203;0.038086;1.040039;
497279;-0.033203;0.041016;1.041016;
497489;-0.033203;0.040039;1.039062;
497699;-0.034180;0.039062;1.041016;
497924;-0.034180;0.038086;1.040039;
498144;-0.034180;0.038086;1.037109;
498364;-0.033203;0.039062;1.040039;
498584;-0.032227;0.039062;1.039062;
498803;-0.032227;0.037109;1.040039;
499023;-0.033203;0.039062;1.038086;
499244;-0.034180;0.039062;1.041016;
499464;-0.032227;0.039062;1.040039;
499684;-0.033203;0.039062;1.040039;
499903;-0.034180;0.038086;1.039062;
500124;-0.034180;0.039062;1.041016;
500343;-0.035156;0.038086;1.039062;
500564;-0.033203;0.039062;1.041992;
500769;-0.034180;0.039062;1.041016;
500991;-0.034180;0.037109;1.041016;
501209;-0.032227;0.038086;1.039062;
501439;-0.033203;0.039062;1.040039;
501659;-0.035156;0.038086;1.040039;
501879;-0.033203;0.038086;1.041016;
502109;-0.033203;0.038086;1.040039;
502329;-0.033203;0.039062;1.038086;
502549;-0.033203;0.037109;1.041016;
502779;-0.034180;0.039062;1.040039;
503000;-0.033203;0.039062;1.041016;
503209;-0.033203;0.039062;1.039062;
503419;-0.033203;0.039062;1.040039;
503634;-0.033203;0.039062;1.040039;
503854;-0.033203;0.039062;1.040039;
504074;-0.032227;0.039062;1.041016;
504289;-0.032227;0.038086;1.041016;
504510;-0.034180;0.039062;1.039062;
504720;-0.033203;0.038086;1.040039;
504919;-0.033203;0.038086;1.039062;
505129;-0.034180;0.038086;1.040039;
505343;-0.033203;0.039062;1.040039;
505564;-0.034180;0.039062;1.039062;
505784;-0.033203;0.039062;1.041992;
506009;-0.034180;0.038086;1.039062;
506220;-0.033203;0.039062;1.041016;
506429;-0.033203;0.039062;1.040039;
506649;-0.033203;0.038086;1.039062;
506859;-0.034180;0.038086;1.040039;
507089;-0.033203;0.039062;1.039062;
507319;-0.033203;0.040039;1.040039;
507539;-0.033203;0.039062;1.040039;
507759;-0.034180;0.037109;1.039062;
507989;-0.033203;0.041016;1.041016;
508193;-0.033203;0.038086;1.041016;
508409;-0.034180;0.037109;1.041016;
508619;-0.034180;0.038086;1.041016;
508839;-0.034180;0.038086;1.041016;
509069;-0.033203;0.040039;1.040039;
509289;-0.032227;0.038086;1.041016;
509509;-0.033203;0.038086;1.039062;
509719;-0.033203;0.038086;1.040039;
509944;-0.032227;0.039062;1.039062;
510164;-0.035156;0.037109;1.039062;
510379;-0.034180;0.038086;1.041016;
510599;-0.033203;0.040039;1.040039;
510824;-0.033203;0.038086;1.039062;
511044;-0.034180;0.038086;1.040039;
511259;-0.034180;0.039062;1.040039;
511474;-0.034180;0.039062;1.041016;
511689;-0.033203;0.038086;1.040039;
511904;-0.033203;0.039062;1.041016;
512121;-0.034180;0.038086;1.040039;
512331;-0.033203;0.038086;1.039062;
512549;-0.033203;0.040039;1.040039;
512769;-0.034180;0.038086;1.041016;
512979;-0.035156;0.040039;1.040039;
513209;-0.033203;0.039062;1.041016;
513439;-0.033203;0.040039;1.040039;
513649;-0.034180;0.040039;1.041016;
513879;-0.034180;0.038086;1.041016;
514090;-0.033203;0.038086;1.039062;
514299;-0.033203;0.038086;1.040039;
514524;-0.034180;0.038086;1.040039;
514743;-0.034180;0.039062;1.040039;
514964;-0.032227;0.039062;1.040039;
515179;-0.034180;0.039062;1.040039;
515399;-0.033203;0.038086;1.039062;
515623;-0.034180;0.039062;1.040039;
515844;-0.033203;0.038086;1.039062;
516059;-0.032227;0.039062;1.041016;
516269;-0.033203;0.039062;1.041016;
516489;-0.034180;0.039062;1.040039;
516699;-0.035156;0.039062;1.039062;
516924;-0.033203;0.039062;1.040039;
517144;-0.034180;0.038086;1.038086;
517359;-0.033203;0.040039;1.041016;
517569;-0.035156;0.039062;1.039062;
517789;-0.033203;0.040039;1.041016;
517999;-0.034180;0.038086;1.041016;
518209;-0.034180;0.038086;1.040039;
518429;-0.034180;0.038086;1.041992;
518639;-0.033203;0.039062;1.040039;
518859;-0.034180;0.038086;1.040039;
519079;-0.032227;0.039062;1.040039;
519299;-0.035156;0.038086;1.040039;
519519;-0.033203;0.041016;1.040039;
519729;-0.034180;0.040039;1.040039;
519959;-0.034180;0.039062;1.040039;
520169;-0.035156;0.039062;1.041016;
520379;-0.035156;0.038086;1.040039;
520589;-0.033203;0.041016;1.040039;
520800;-0.032227;0.038086;1.039062;
521011;-0.034180;0.040039;1.039062;
521224;-0.034180;0.040039;1.040039;
521443;-0.033203;0.038086;1.040039;
521649;-0.033203;0.039062;1.040039;
521879;-0.034180;0.038086;1.039062;
522104;-0.033203;0.039062;1.041016;
522324;-0.033203;0.039062;1.040039;
522544;-0.034180;0.039062;1.041016;
522749;-0.033203;0.040039;1.040039;
522960;-0.034180;0.040039;1.040039;
523189;-0.033203;0.038086;1.041016;
523414;-0.033203;0.039062;1.039062;
523634;-0.033203;0.040039;1.041016;
523849;-0.035156;0.038086;1.040039;
524070;-0.033203;0.040039;1.040039;
524289;-0.033203;0.039062;1.040039;
524499;-0.035156;0.038086;1.040039;
524709;-0.035156;0.039062;1.041016;
524939;-0.032227;0.039062;1.040039;
525169;-0.034180;0.037109;1.040039;
525379;-0.033203;0.038086;1.041016;
525589;-0.033203;0.039062;1.041992;
525799;-0.034180;0.038086;1.039062;
526019;-0.034180;0.039062;1.041016;
526249;-0.033203;0.040039;1.041016;
526459;-0.034180;0.038086;1.040039;
526670;-0.034180;0.039062;1.040039;
526879;-0.033203;0.039062;1.039062;
527103;-0.034180;0.039062;1.039062;
527324;-0.034180;0.037109;1.038086;
527543;-0.031250;0.040039;1.039062;
527759;-0.034180;0.038086;1.040039;
527969;-0.034180;0.038086;1.039062;
528179;-0.033203;0.039062;1.040039;
528404;-0.035156;0.038086;1.041016;
528624;-0.034180;0.038086;1.039062;
528839;-0.034180;0.037109;1.040039;
529069;-0.035156;0.038086;1.041016;
529279;-0.034180;0.038086;1.039062;
529499;-0.034180;0.041016;1.040039;
529719;-0.032227;0.039062;1.040039;
529929;-0.033203;0.040039;1.041016;
530149;-0.035156;0.039062;1.039062;
530369;-0.033203;0.039062;1.041992;
530589;-0.032227;0.039062;1.040039;
530809;-0.033203;0.039062;1.037109;
531029;-0.033203;0.037109;1.038086;
531254;-0.032227;0.039062;1.038086;
531459;-0.032227;0.037109;1.041016;
531659;-0.034180;0.039062;1.041016;
531881;-0.033203;0.039062;1.040039;
532103;-0.032227;0.038086;1.041016;
532324;-0.033203;0.039062;1.040039;
532539;-0.033203;0.039062;1.039062;
532764;-0.032227;0.038086;1.038086;
532970;-0.035156;0.039062;1.040039;
533189;-0.033203;0.040039;1.038086;
533412;-0.034180;0.037109;1.040039;
533619;-0.032227;0.040039;1.039062;
533834;-0.033203;0.036133;1.042969;
534054;-0.031250;0.039062;1.039062;
534269;-0.035156;0.039062;1.041992;
534489;-0.033203;0.038086;1.040039;
534699;-0.034180;0.038086;1.039062;
534919;-0.034180;0.038086;1.039062;
535129;-0.034180;0.037109;1.041992;
535350;-0.034180;0.039062;1.040039;
535559;-0.033203;0.041016;1.041016;
535769;-0.034180;0.038086;1.040039;
535989;-0.033203;0.038086;1.040039;
536209;-0.034180;0.039062;1.041016;
536439;-0.033203;0.039062;1.041016;
536659;-0.034180;0.040039;1.039062;
536869;-0.034180;0.039062;1.041016;
537099;-0.033203;0.038086;1.039062;
537313;-0.033203;0.038086;1.040039;
537519;-0.033203;0.039062;1.039062;
537730;-0.033203;0.038086;1.040039;
537944;-0.032227;0.037109;1.039062;
538163;-0.034180;0.037109;1.040039;
538379;-0.035156;0.038086;1.040039;
538599;-0.033203;0.039062;1.042969;
538824;-0.033203;0.041016;1.041016;
539044;-0.034180;0.040039;1.040039;
539259;-0.032227;0.039062;1.041992;
539469;-0.034180;0.040039;1.038086;
539689;-0.035156;0.040039;1.040039;
539913;-0.032227;0.038086;1.039062;
540129;-0.033203;0.038086;1.040039;
540339;-0.035156;0.037109;1.040039;
540569;-0.035156;0.038086;1.041016;
540799;-0.033203;0.039062;1.040039;
541020;-0.033203;0.038086;1.040039;
541239;-0.033203;0.039062;1.039062;
541459;-0.035156;0.039062;1.039062;
541679;-0.034180;0.040039;1.039062;
541889;-0.034180;0.039062;1.041016;
542119;-0.035156;0.038086;1.041016;
542329;-0.033203;0.040039;1.038086;
542540;-0.033203;0.039062;1.041016;
542759;-0.034180;0.039062;1.040039;
542979;-0.033203;0.038086;1.040039;
543199;-0.034180;0.039062;1.040039;
543424;-0.035156;0.039062;1.039062;
543643;-0.033203;0.039062;1.041992;
543859;-0.033203;0.039062;1.039062;
544079;-0.032227;0.039062;1.041016;
544304;-0.034180;0.039062;1.040039;
544524;-0.033203;0.038086;1.040039;
544739;-0.033203;0.038086;1.039062;
544949;-0.034180;0.039062;1.041016;
545179;-0.033203;0.041016;1.040039;
545393;-0.035156;0.038086;1.041016;
545614;-0.033203;0.038086;1.041016;
545829;-0.035156;0.038086;1.040039;
546049;-0.034180;0.038086;1.040039;
546269;-0.034180;0.038086;1.041016;
546499;-0.035156;0.039062;1.041992;
546721;-0.033203;0.040039;1.041016;
546940;-0.033203;0.039062;1.041016;
547159;-0.033203;0.038086;1.040039;
547369;-0.034180;0.041016;1.039062;
547589;-0.034180;0.039062;1.038086;
547819;-0.033203;0.039062;1.041016;
548039;-0.034180;0.038086;1.040039;
548259;-0.034180;0.038086;1.040039;
548479;-0.034180;0.041016;1.041016;
548704;-0.033203;0.038086;1.040039;
548923;-0.033203;0.039062;1.040039;
549139;-0.032227;0.038086;1.039062;
549369;-0.033203;0.040039;1.040039;
549594;-0.033203;0.039062;1.039062;
549814;-0.033203;0.038086;1.039062;
550029;-0.034180;0.038086;1.040039;
550239;-0.033203;0.038086;1.040039;
550449;-0.034180;0.038086;1.040039;
550661;-0.033203;0.040039;1.040039;
550874;-0.033203;0.038086;1.039062;
551094;-0.034180;0.038086;1.038086;
551313;-0.034180;0.039062;1.040039;
551535;-0.034180;0.038086;1.040039;
551739;-0.034180;0.037109;1.040039;
551950;-0.034180;0.039062;1.040039;
552169;-0.034180;0.039062;1.041016;
552389;-0.033203;0.040039;1.039062;
552614;-0.033203;0.039062;1.041016;
552819;-0.033203;0.038086;1.040039;
553019;-0.033203;0.037109;1.041016;
553239;-0.033203;0.039062;1.040039;
553469;-0.034180;0.039062;1.039062;
553699;-0.033203;0.042969;1.041016;
553910;-0.034180;0.038086;1.041016;
554130;-0.034180;0.037109;1.040039;
554349;-0.033203;0.036133;1.040039;
554569;-0.033203;0.039062;1.041016;
554789;-0.033203;0.038086;1.040039;
554999;-0.034180;0.039062;1.040039;
555224;-0.033203;0.037109;1.038086;
555444;-0.034180;0.037109;1.039062;
555659;-0.033203;0.037109;1.039062;
555869;-0.034180;0.039062;1.039062;
556082;-0.034180;0.038086;1.041992;
556293;-0.032227;0.038086;1.039062;
556499;-0.034180;0.037109;1.041992;
556724;-0.032227;0.039062;1.040039;
556944;-0.034180;0.040039;1.041016;
557159;-0.033203;0.039062;1.041016;
557374;-0.033203;0.037109;1.040039;
557593;-0.034180;0.039062;1.040039;
557799;-0.034180;0.039062;1.038086;
558009;-0.032227;0.040039;1.038086;
558231;-0.033203;0.038086;1.039062;
558441;-0.033203;0.038086;1.040039;
558659;-0.033203;0.037109;1.040039;
558869;-0.035156;0.038086;1.041016;
559091;-0.033203;0.038086;1.040039;
559310;-0.034180;0.040039;1.038086;
559530;-0.032227;0.038086;1.039062;
559749;-0.034180;0.038086;1.039062;
559980;-0.035156;0.038086;1.039062;
560199;-0.032227;0.040039;1.038086;
560410;-0.032227;0.038086;1.040039;
560619;-0.033203;0.039062;1.040039;
560824;-0.033203;0.039062;1.039062;
561043;-0.034180;0.038086;1.040039;
561263;-0.033203;0.039062;1.038086;
561469;-0.032227;0.039062;1.039062;
561694;-0.032227;0.040039;1.040039;
561914;-0.033203;0.037109;1.040039;
562130;-0.033203;0.038086;1.041016;
562339;-0.033203;0.038086;1.039062;
562549;-0.033203;0.038086;1.039062;
562759;-0.034180;0.039062;1.039062;
562984;-0.032227;0.040039;1.041016;
563199;-0.034180;0.037109;1.039062;
563419;-0.034180;0.037109;1.040039;
563640;-0.033203;0.037109;1.039062;
563849;-0.033203;0.038086;1.038086;
564079;-0.033203;0.039062;1.040039;
564289;-0.033203;0.039062;1.040039;
564509;-0.034180;0.038086;1.040039;
564729;-0.033203;0.039062;1.041992;
564949;-0.034180;0.038086;1.041016;
565169;-0.033203;0.038086;1.040039;
565400;-0.032227;0.039062;1.040039;
565614;-0.033203;0.038086;1.040039;
565829;-0.033203;0.040039;1.040039;
566059;-0.036133;0.038086;1.039062;
566293;-0.034180;0.038086;1.039062;
566514;-0.033203;0.037109;1.038086;
566734;-0.034180;0.038086;1.041016;
566940;-0.034180;0.037109;1.040039;
567149;-0.033203;0.038086;1.039062;
567369;-0.032227;0.039062;1.041016;
567579;-0.033203;0.039062;1.040039;
567804;-0.034180;0.039062;1.040039;
568023;-0.034180;0.039062;1.040039;
568239;-0.034180;0.037109;1.039062;
568459;-0.032227;0.038086;1.040039;
568680;-0.032227;0.039062;1.041016;
568889;-0.034180;0.038086;1.040039;
569109;-0.033203;0.039062;1.039062;
569331;-0.034180;0.038086;1.041016;
569539;-0.034180;0.038086;1.039062;
569769;-0.033203;0.040039;1.039062;
569979;-0.034180;0.039062;1.040039;
570199;-0.034180;0.038086;1.041016;
570419;-0.035156;0.038086;1.040039;
570649;-0.032227;0.038086;1.041016;
570869;-0.033203;0.038086;1.039062;
571090;-0.033203;0.039062;1.039062;
571309;-0.034180;0.040039;1.040039;
571523;-0.033203;0.039062;1.040039;
571744;-0.033203;0.039062;1.039062;
571959;-0.034180;0.040039;1.040039;
572169;-0.033203;0.039062;1.040039;
572404;-0.033203;0.040039;1.040039;
572624;-0.034180;0.037109;1.040039;
572839;-0.033203;0.038086;1.041016;
573060;-0.033203;0.038086;1.040039;
573269;-0.034180;0.039062;1.041016;
573483;-0.034180;0.039062;1.038086;
573703;-0.033203;0.040039;1.040039;
573919;-0.035156;0.038086;1.040039;
574139;-0.034180;0.039062;1.039062;
574369;-0.034180;0.038086;1.041016;
574599;-0.033203;0.039062;1.041992;
574809;-0.033203;0.038086;1.039062;
575029;-0.033203;0.040039;1.041992;
575259;-0.034180;0.038086;1.040039;
575469;-0.035156;0.038086;1.040039;
575689;-0.033203;0.039062;1.039062;
575913;-0.033203;0.038086;1.041992;
576129;-0.034180;0.040039;1.041016;
576339;-0.034180;0.040039;1.040039;
576549;-0.034180;0.038086;1.041016;
576763;-0.032227;0.039062;1.042969;
576984;-0.034180;0.037109;1.041992;
577204;-0.034180;0.038086;1.041016;
577424;-0.033203;0.038086;1.041016;
577644;-0.034180;0.038086;1.040039;
577864;-0.032227;0.039062;1.038086;
578084;-0.033203;0.036133;1.038086;
578303;-0.032227;0.039062;1.038086;
578524;-0.033203;0.038086;1.040039;
578744;-0.034180;0.039062;1.040039;
578964;-0.032227;0.039062;1.039062;
579184;-0.031250;0.040039;1.039062;
579404;-0.033203;0.038086;1.040039;
579623;-0.034180;0.037109;1.041992;
579839;-0.032227;0.037109;1.040039;
580059;-0.033203;0.040039;1.037109;
580279;-0.034180;0.038086;1.040039;
580501;-0.035156;0.039062;1.040039;
580719;-0.033203;0.038086;1.039062;
580944;-0.033203;0.039062;1.038086;
581154;-0.033203;0.039062;1.040039;
581373;-0.033203;0.038086;1.040039;
581594;-0.033203;0.038086;1.041016;
581814;-0.033203;0.039062;1.041016;
582034;-0.034180;0.038086;1.041016;
582254;-0.032227;0.039062;1.040039;
582474;-0.033203;0.040039;1.039062;
582694;-0.035156;0.037109;1.040039;
582914;-0.033203;0.039062;1.041992;
583134;-0.033203;0.040039;1.040039;
583354;-0.033203;0.039062;1.040039;
583574;-0.032227;0.039062;1.041016;
583793;-0.034180;0.039062;1.038086;
584013;-0.035156;0.038086;1.041016;
584230;-0.032227;0.039062;1.041016;
584449;-0.033203;0.038086;1.038086;
584660;-0.034180;0.039062;1.040039;
584869;-0.033203;0.039062;1.039062;
585089;-0.033203;0.039062;1.040039;
585299;-0.033203;0.039062;1.039062;
585523;-0.033203;0.039062;1.042969;
585743;-0.033203;0.036133;1.040039;
585963;-0.033203;0.038086;1.040039;
586184;-0.032227;0.040039;1.039062;
586404;-0.033203;0.038086;1.041992;
586623;-0.034180;0.038086;1.040039;
586843;-0.033203;0.040039;1.040039;
587064;-0.035156;0.039062;1.039062;
587284;-0.032227;0.039062;1.039062;
587504;-0.033203;0.039062;1.041016;
587723;-0.033203;0.038086;1.039062;
587943;-0.032227;0.039062;1.040039;
588164;-0.034180;0.039062;1.041016;
588381;-0.032227;0.039062;1.039062;
588599;-0.034180;0.040039;1.040039;
588834;-0.033203;0.040039;1.041016;
589049;-0.035156;0.039062;1.041016;
589260;-0.033203;0.040039;1.039062;
589469;-0.033203;0.040039;1.040039;
589694;-0.033203;0.038086;1.040039;
589913;-0.034180;0.038086;1.040039;
590133;-0.033203;0.039062;1.039062;
590354;-0.034180;0.038086;1.040039;
590574;-0.033203;0.039062;1.042969;
590794;-0.034180;0.039062;1.039062;
591013;-0.033203;0.038086;1.040039;
591234;-0.034180;0.039062;1.041016;
591454;-0.033203;0.039062;1.040039;
591674;-0.033203;0.039062;1.039062;
591894;-0.033203;0.039062;1.041016;
592113;-0.034180;0.039062;1.040039;
592334;-0.033203;0.040039;1.040039;
592553;-0.033203;0.037109;1.040039;
592759;-0.033203;0.039062;1.041016;
592979;-0.033203;0.040039;1.038086;
593199;-0.032227;0.037109;1.041016;
593419;-0.035156;0.038086;1.040039;
593649;-0.034180;0.038086;1.038086;
593863;-0.032227;0.038086;1.038086;
594084;-0.033203;0.040039;1.041016;
594304;-0.033203;0.039062;1.039062;
594524;-0.034180;0.039062;1.039062;
594743;-0.032227;0.038086;1.040039;
594963;-0.034180;0.039062;1.040039;
595184;-0.033203;0.039062;1.041016;
595403;-0.033203;0.040039;1.041992;
595623;-0.034180;0.039062;1.040039;
595843;-0.033203;0.039062;1.040039;
596064;-0.033203;0.039062;1.040039;
596284;-0.032227;0.040039;1.040039;
596503;-0.032227;0.038086;1.038086;
596724;-0.033203;0.039062;1.040039;
596940;-0.033203;0.037109;1.041016;
597149;-0.034180;0.039062;1.039062;
597362;-0.033203;0.038086;1.040039;
597570;-0.032227;0.037109;1.039062;
597779;-0.033203;0.037109;1.041016;
598009;-0.033203;0.040039;1.039062;
598233;-0.035156;0.041016;1.038086;
598454;-0.033203;0.039062;1.041016;
598674;-0.033203;0.039062;1.039062;
598894;-0.034180;0.038086;1.039062;
599114;-0.032227;0.038086;1.040039;
599333;-0.033203;0.039062;1.039062;
599554;-0.033203;0.038086;1.040039;
599774;-0.034180;0.038086;1.041016;
599994;-0.034180;0.038086;1.040039;
600213;-0.033203;0.040039;1.040039;
600433;-0.033203;0.039062;1.039062;
600654;-0.032227;0.038086;1.040039;
600874;-0.034180;0.037109;1.039062;
601089;-0.034180;0.037109;1.039062;
601299;-0.032227;0.040039;1.040039;
601509;-0.032227;0.041016;1.039062;
601729;-0.034180;0.038086;1.040039;
601949;-0.034180;0.038086;1.040039;
602160;-0.033203;0.040039;1.040039;
602384;-0.032227;0.039062;1.038086;
602604;-0.033203;0.038086;1.041992;
602824;-0.034180;0.038086;1.040039;
603044;-0.034180;0.038086;1.039062;
603263;-0.034180;0.038086;1.040039;
603484;-0.034180;0.039062;1.040039;
603704;-0.033203;0.038086;1.040039;
603923;-0.032227;0.040039;1.040039;
604143;-0.033203;0.038086;1.039062;
604364;-0.034180;0.038086;1.040039;
604584;-0.034180;0.039062;1.040039;
604804;-0.033203;0.038086;1.041016;
605024;-0.034180;0.039062;1.040039;
605243;-0.034180;0.039062;1.040039;
605459;-0.034180;0.038086;1.040039;
605679;-0.033203;0.038086;1.040039;
605899;-0.034180;0.038086;1.040039;
606111;-0.034180;0.038086;1.040039;
606319;-0.032227;0.039062;1.040039;
606541;-0.033203;0.040039;1.040039;
606764;-0.034180;0.038086;1.040039;
606983;-0.033203;0.038086;1.040039;
607204;-0.033203;0.038086;1.038086;
607424;-0.033203;0.039062;1.041016;
607644;-0.033203;0.039062;1.040039;
607864;-0.033203;0.037109;1.040039;
608084;-0.034180;0.038086;1.040039;
608303;-0.033203;0.039062;1.040039;
608524;-0.034180;0.038086;1.040039;
608744;-0.032227;0.040039;1.041016;
608964;-0.033203;0.040039;1.040039;
609184;-0.034180;0.038086;1.040039;
609404;-0.033203;0.039062;1.039062;
609623;-0.034180;0.038086;1.039062;
609829;-0.034180;0.040039;1.041016;
610044;-0.033203;0.040039;1.040039;
610259;-0.032227;0.038086;1.040039;
610479;-0.034180;0.038086;1.041016;
610709;-0.034180;0.038086;1.040039;
610934;-0.035156;0.037109;1.041016;
611154;-0.032227;0.039062;1.040039;
611374;-0.033203;0.038086;1.041016;
611593;-0.034180;0.038086;1.039062;
611813;-0.032227;0.039062;1.040039;
612033;-0.034180;0.038086;1.039062;
612253;-0.033203;0.039062;1.039062;
612474;-0.034180;0.040039;1.040039;
612694;-0.033203;0.039062;1.040039;
612914;-0.034180;0.039062;1.040039;
613134;-0.034180;0.038086;1.041016;
613354;-0.034180;0.039062;1.041016;
613573;-0.034180;0.039062;1.041016;
613794;-0.034180;0.038086;1.041016;
614009;-0.033203;0.038086;1.040039;
614220;-0.034180;0.038086;1.039062;
614439;-0.032227;0.038086;1.041016;
614659;-0.033203;0.039062;1.039062;
614879;-0.033203;0.037109;1.039062;
615084;-0.034180;0.039062;1.039062;
615314;-0.032227;0.039062;1.039062;
615534;-0.034180;0.038086;1.040039;
615753;-0.034180;0.038086;1.041016;
615974;-0.032227;0.038086;1.040039;
616194;-0.034180;0.038086;1.041992;
616413;-0.033203;0.038086;1.039062;
616634;-0.033203;0.038086;1.041016;
616853;-0.033203;0.039062;1.040039;
617074;-0.033203;0.039062;1.041016;
617294;-0.033203;0.039062;1.040039;
617514;-0.033203;0.039062;1.041016;
617734;-0.032227;0.039062;1.040039;
617954;-0.034180;0.039062;1.041016;
618174;-0.035156;0.037109;1.039062;
618379;-0.034180;0.038086;1.040039;
618599;-0.031250;0.039062;1.038086;
618810;-0.034180;0.037109;1.041016;
619030;-0.033203;0.037109;1.038086;
619239;-0.032227;0.038086;1.041992;
619449;-0.032227;0.039062;1.039062;
619674;-0.032227;0.039062;1.041016;
619894;-0.032227;0.038086;1.040039;
620113;-0.032227;0.040039;1.041016;
620334;-0.033203;0.039062;1.038086;
620554;-0.034180;0.037109;1.040039;
620774;-0.032227;0.040039;1.039062;
620994;-0.034180;0.038086;1.039062;
621213;-0.032227;0.039062;1.040039;
621434;-0.034180;0.039062;1.041016;
621654;-0.033203;0.039062;1.040039;
621873;-0.033203;0.037109;1.040039;
622093;-0.034180;0.039062;1.041016;
622314;-0.033203;0.040039;1.040039;
622534;-0.034180;0.037109;1.041016;
622749;-0.034180;0.039062;1.041016;
622959;-0.035156;0.038086;1.041992;
623179;-0.034180;0.040039;1.040039;
623394;-0.033203;0.041016;1.040039;
623599;-0.033203;0.038086;1.038086;
623824;-0.033203;0.038086;1.039062;
624043;-0.034180;0.039062;1.040039;
624263;-0.033203;0.039062;1.041016;
624483;-0.033203;0.039062;1.041016;
624704;-0.033203;0.038086;1.041016;
624924;-0.033203;0.038086;1.041992;
625144;-0.034180;0.040039;1.041016;
625364;-0.033203;0.038086;1.040039;
625584;-0.034180;0.037109;1.039062;
625804;-0.032227;0.040039;1.040039;
626024;-0.033203;0.039062;1.040039;
626243;-0.034180;0.038086;1.039062;
626464;-0.034180;0.037109;1.039062;
626684;-0.033203;0.040039;1.040039;
626899;-0.033203;0.039062;1.039062;
627119;-0.032227;0.039062;1.040039;
627329;-0.034180;0.038086;1.040039;
627549;-0.034180;0.038086;1.041992;
627761;-0.035156;0.037109;1.040039;
627984;-0.034180;0.038086;1.041016;
628203;-0.034180;0.038086;1.038086;
628423;-0.033203;0.038086;1.038086;
628643;-0.033203;0.039062;1.041016;
628864;-0.034180;0.039062;1.039062;
629084;-0.035156;0.039062;1.040039;
629304;-0.034180;0.038086;1.040039;
629523;-0.033203;0.038086;1.040039;
629744;-0.033203;0.039062;1.041016;
629963;-0.034180;0.037109;1.040039;
630184;-0.033203;0.038086;1.041016;
630403;-0.033203;0.040039;1.039062;
630624;-0.033203;0.040039;1.040039;
630844;-0.035156;0.038086;1.040039;
631049;-0.035156;0.039062;1.039062;
631259;-0.034180;0.038086;1.039062;
631479;-0.033203;0.038086;1.041016;
631699;-0.033203;0.040039;1.040039;
631914;-0.034180;0.038086;1.042969;
632124;-0.033203;0.040039;1.040039;
632344;-0.034180;0.038086;1.040039;
632564;-0.032227;0.039062;1.039062;
632784;-0.034180;0.037109;1.037109;
633004;-0.034180;0.039062;1.040039;
633224;-0.034180;0.038086;1.040039;
633444;-0.033203;0.040039;1.040039;
633664;-0.034180;0.038086;1.041992;
633884;-0.034180;0.039062;1.041992;
634104;-0.034180;0.039062;1.041992;
634323;-0.035156;0.039062;1.040039;
634544;-0.033203;0.038086;1.039062;
634763;-0.034180;0.039062;1.039062;
634985;-0.034180;0.040039;1.040039;
635199;-0.036133;0.038086;1.040039;
635409;-0.034180;0.038086;1.039062;
635609;-0.033203;0.038086;1.039062;
635834;-0.032227;0.039062;1.041992;
636043;-0.032227;0.039062;1.042969;
636254;-0.034180;0.041016;1.041016;
636474;-0.035156;0.037109;1.041016;
636693;-0.033203;0.039062;1.039062;
636914;-0.034180;0.038086;1.038086;
637134;-0.034180;0.038086;1.039062;
637354;-0.034180;0.038086;1.040039;
637573;-0.033203;0.038086;1.038086;
637793;-0.033203;0.040039;1.039062;
638014;-0.034180;0.039062;1.040039;
638234;-0.036133;0.039062;1.040039;
638453;-0.033203;0.039062;1.041016;
638674;-0.032227;0.039062;1.040039;
638893;-0.033203;0.038086;1.040039;
639114;-0.033203;0.039062;1.040039;
639329;-0.033203;0.039062;1.039062;
639549;-0.033203;0.039062;1.040039;
639769;-0.034180;0.039062;1.038086;
639973;-0.034180;0.040039;1.039062;
640183;-0.034180;0.039062;1.040039;
640399;-0.034180;0.039062;1.039062;
640619;-0.034180;0.040039;1.039062;
640833;-0.033203;0.039062;1.040039;
641053;-0.034180;0.039062;1.041016;
641274;-0.033203;0.039062;1.040039;
641494;-0.033203;0.039062;1.040039;
641713;-0.033203;0.040039;1.041016;
641933;-0.033203;0.039062;1.041016;
642153;-0.034180;0.037109;1.040039;
642374;-0.033203;0.040039;1.040039;
642593;-0.034180;0.039062;1.040039;
642814;-0.033203;0.039062;1.038086;
643034;-0.032227;0.039062;1.040039;
643253;-0.033203;0.039062;1.040039;
643474;-0.034180;0.038086;1.040039;
643694;-0.034180;0.038086;1.040039;
643899;-0.034180;0.039062;1.040039;
644109;-0.033203;0.040039;1.041016;
644319;-0.034180;0.038086;1.041992;
644529;-0.033203;0.038086;1.040039;
644739;-0.034180;0.038086;1.039062;
644949;-0.033203;0.041016;1.040039;
645174;-0.033203;0.037109;1.039062;
645393;-0.033203;0.039062;1.040039;
645614;-0.034180;0.040039;1.040039;
645830;-0.033203;0.039062;1.040039;
646054;-0.034180;0.037109;1.040039;
646273;-0.034180;0.038086;1.039062;
646494;-0.034180;0.039062;1.041016;
646713;-0.033203;0.038086;1.040039;
646934;-0.033203;0.039062;1.041016;
647154;-0.033203;0.038086;1.040039;
647374;-0.033203;0.038086;1.041016;
647594;-0.034180;0.039062;1.039062;
647813;-0.032227;0.039062;1.039062;
648023;-0.032227;0.039062;1.040039;
648239;-0.032227;0.040039;1.040039;
648464;-0.033203;0.039062;1.040039;
648689;-0.033203;0.038086;1.041016;
648909;-0.033203;0.037109;1.039062;
649129;-0.033203;0.037109;1.040039;
649349;-0.034180;0.038086;1.040039;
649569;-0.033203;0.039062;1.041992;
649779;-0.032227;0.039062;1.040039;
649999;-0.033203;0.039062;1.038086;
650219;-0.035156;0.039062;1.040039;
650439;-0.034180;0.037109;1.038086;
650649;-0.032227;0.038086;1.041016;
650873;-0.033203;0.038086;1.041016;
651093;-0.033203;0.040039;1.039062;
651309;-0.033203;0.040039;1.038086;
651529;-0.033203;0.039062;1.040039;
651739;-0.033203;0.037109;1.038086;
651951;-0.034180;0.038086;1.040039;
652172;-0.032227;0.039062;1.039062;
652390;-0.034180;0.039062;1.041992;
652604;-0.033203;0.039062;1.038086;
652824;-0.032227;0.039062;1.040039;
653039;-0.034180;0.039062;1.040039;
653263;-0.032227;0.039062;1.040039;
653479;-0.033203;0.039062;1.040039;
653689;-0.033203;0.038086;1.040039;
653903;-0.033203;0.038086;1.041016;
654119;-0.035156;0.038086;1.041016;
654340;-0.033203;0.040039;1.040039;
654549;-0.034180;0.038086;1.041992;
654771;-0.034180;0.037109;1.040039;
654984;-0.034180;0.039062;1.040039;
655203;-0.035156;0.038086;1.040039;
655423;-0.033203;0.039062;1.041016;
655644;-0.034180;0.039062;1.041016;
655864;-0.034180;0.039062;1.038086;
656084;-0.033203;0.038086;1.039062;
656304;-0.033203;0.039062;1.041016;
656524;-0.034180;0.038086;1.038086;
656744;-0.034180;0.038086;1.041016;
656964;-0.033203;0.040039;1.041016;
657183;-0.033203;0.039062;1.041992;
657404;-0.034180;0.038086;1.039062;
657623;-0.034180;0.040039;1.040039;
657844;-0.034180;0.038086;1.039062;
658061;-0.033203;0.040039;1.040039;
658273;-0.034180;0.038086;1.039062;
658479;-0.034180;0.040039;1.041992;
658699;-0.033203;0.037109;1.041016;
658929;-0.033203;0.038086;1.041016;
659149;-0.034180;0.038086;1.040039;
659373;-0.033203;0.038086;1.041992;
659594;-0.034180;0.039062;1.040039;
659814;-0.033203;0.038086;1.040039;
660034;-0.034180;0.038086;1.039062;
660254;-0.032227;0.040039;1.041016;
660473;-0.033203;0.039062;1.040039;
660694;-0.033203;0.039062;1.041016;
660914;-0.034180;0.038086;1.040039;
661134;-0.033203;0.039062;1.040039;
661353;-0.033203;0.039062;1.041016;
661574;-0.033203;0.041016;1.040039;
661794;-0.035156;0.040039;1.040039;
662014;-0.034180;0.037109;1.041992;
662233;-0.033203;0.038086;1.040039;
662449;-0.033203;0.039062;1.041992;
662669;-0.033203;0.039062;1.039062;
662889;-0.034180;0.039062;1.039062;
663099;-0.034180;0.037109;1.040039;
663319;-0.034180;0.037109;1.041016;
663544;-0.033203;0.038086;1.038086;
663763;-0.033203;0.040039;1.040039;
663984;-0.033203;0.040039;1.039062;
664203;-0.035156;0.039062;1.041016;
664424;-0.033203;0.039062;1.039062;
664644;-0.033203;0.038086;1.039062;
664863;-0.034180;0.038086;1.039062;
665084;-0.034180;0.039062;1.040039;
665303;-0.033203;0.037109;1.041016;
665524;-0.034180;0.038086;1.040039;
665744;-0.034180;0.039062;1.041016;
665963;-0.035156;0.038086;1.040039;
666184;-0.034180;0.038086;1.041016;
666403;-0.034180;0.038086;1.040039;
666619;-0.034180;0.040039;1.041016;
666833;-0.034180;0.041016;1.039062;
667039;-0.033203;0.038086;1.039062;
667259;-0.033203;0.037109;1.040039;
667469;-0.033203;0.040039;1.039062;
667679;-0.035156;0.037109;1.041016;
667899;-0.033203;0.041016;1.041016;
668123;-0.034180;0.038086;1.040039;
668344;-0.033203;0.039062;1.041016;
668564;-0.034180;0.038086;1.040039;
668784;-0.033203;0.037109;1.039062;
669004;-0.034180;0.039062;1.041016;
669213;-0.032227;0.038086;1.040039;
669434;-0.034180;0.039062;1.040039;
669650;-0.033203;0.038086;1.041016;
669859;-0.034180;0.038086;1.040039;
670084;-0.034180;0.038086;1.039062;
670303;-0.033203;0.038086;1.041016;
670519;-0.035156;0.038086;1.041016;
670734;-0.034180;0.039062;1.040039;
670949;-0.035156;0.039062;1.040039;
671184;-0.033203;0.038086;1.040039;
671389;-0.033203;0.038086;1.037109;
671600;-0.034180;0.038086;1.039062;
671809;-0.033203;0.039062;1.039062;
672029;-0.032227;0.039062;1.040039;
672249;-0.035156;0.039062;1.039062;
672469;-0.034180;0.039062;1.041016;
672689;-0.034180;0.038086;1.040039;
672909;-0.034180;0.036133;1.040039;
673129;-0.033203;0.040039;1.040039;
673364;-0.033203;0.040039;1.040039;
673584;-0.034180;0.040039;1.039062;
673799;-0.032227;0.040039;1.041016;
674019;-0.033203;0.038086;1.040039;
674233;-0.033203;0.038086;1.040039;
674454;-0.034180;0.038086;1.040039;
674675;-0.034180;0.039062;1.040039;
674899;-0.034180;0.037109;1.041016;
675114;-0.034180;0.038086;1.038086;
675344;-0.034180;0.039062;1.040039;
675563;-0.033203;0.038086;1.039062;
675779;-0.035156;0.040039;1.040039;
675999;-0.034180;0.037109;1.040039;
676219;-0.032227;0.040039;1.041016;
676429;-0.033203;0.039062;1.041016;
676649;-0.034180;0.038086;1.041016;
676860;-0.033203;0.039062;1.039062;
677069;-0.033203;0.039062;1.041016;
677300;-0.033203;0.039062;1.041016;
677519;-0.034180;0.038086;1.039062;
677729;-0.034180;0.038086;1.041016;
677939;-0.033203;0.039062;1.038086;
678159;-0.035156;0.038086;1.040039;
678379;-0.034180;0.037109;1.039062;
678609;-0.033203;0.038086;1.039062;
678824;-0.034180;0.040039;1.039062;
679040;-0.034180;0.039062;1.041016;
679253;-0.033203;0.039062;1.038086;
679474;-0.033203;0.039062;1.041992;
679689;-0.033203;0.040039;1.039062;
679923;-0.034180;0.039062;1.039062;
680143;-0.034180;0.039062;1.039062;
680364;-0.034180;0.038086;1.040039;
680579;-0.034180;0.038086;1.041016;
680789;-0.034180;0.039062;1.041016;
681009;-0.033203;0.038086;1.040039;
681219;-0.033203;0.039062;1.040039;
681454;-0.034180;0.039062;1.040039;
681673;-0.034180;0.039062;1.041016;
681889;-0.035156;0.038086;1.040039;
682109;-0.033203;0.037109;1.039062;
682329;-0.033203;0.039062;1.041016;
682539;-0.033203;0.037109;1.041016;
682760;-0.034180;0.039062;1.041016;
682979;-0.035156;0.040039;1.040039;
683199;-0.033203;0.039062;1.040039;
683429;-0.034180;0.037109;1.040039;
683659;-0.034180;0.038086;1.040039;
683889;-0.034180;0.036133;1.039062;
684119;-0.033203;0.038086;1.039062;
684339;-0.034180;0.039062;1.039062;
684549;-0.034180;0.039062;1.040039;
684774;-0.035156;0.038086;1.041016;
684994;-0.034180;0.038086;1.039062;
685210;-0.033203;0.040039;1.041016;
685423;-0.033203;0.039062;1.041016;
685643;-0.033203;0.037109;1.039062;
685864;-0.034180;0.038086;1.040039;
686079;-0.034180;0.040039;1.041016;
686289;-0.032227;0.039062;1.041016;
686499;-0.033203;0.039062;1.041016;
686714;-0.035156;0.037109;1.040039;
686933;-0.033203;0.039062;1.038086;
687149;-0.032227;0.039062;1.039062;
687369;-0.034180;0.038086;1.041016;
687589;-0.035156;0.037109;1.040039;
687799;-0.034180;0.039062;1.040039;
688019;-0.033203;0.039062;1.041016;
688230;-0.034180;0.038086;1.041016;
688449;-0.033203;0.038086;1.039062;
688669;-0.032227;0.039062;1.040039;
688889;-0.034180;0.040039;1.039062;
689109;-0.033203;0.040039;1.040039;
689324;-0.034180;0.038086;1.040039;
689529;-0.033203;0.037109;1.041016;
689754;-0.033203;0.039062;1.039062;
689959;-0.033203;0.038086;1.040039;
690179;-0.033203;0.038086;1.041016;
690403;-0.032227;0.038086;1.039062;
690624;-0.033203;0.037109;1.039062;
690840;-0.033203;0.038086;1.039062;
691064;-0.034180;0.038086;1.039062;
691284;-0.033203;0.037109;1.041016;
691499;-0.033203;0.039062;1.040039;
691699;-0.033203;0.038086;1.038086;
691924;-0.033203;0.039062;1.039062;
692143;-0.033203;0.039062;1.039062;
692364;-0.032227;0.040039;1.039062;
692569;-0.034180;0.038086;1.040039;
692780;-0.033203;0.039062;1.039062;
692999;-0.031250;0.038086;1.041992;
693213;-0.033203;0.038086;1.040039;
693429;-0.032227;0.038086;1.040039;
693639;-0.033203;0.037109;1.038086;
693859;-0.033203;0.040039;1.039062;
694079;-0.033203;0.040039;1.039062;
694309;-0.034180;0.038086;1.040039;
694529;-0.033203;0.038086;1.040039;
694749;-0.033203;0.040039;1.041016;
694959;-0.035156;0.038086;1.040039;
695189;-0.033203;0.037109;1.039062;
695419;-0.033203;0.039062;1.039062;
695643;-0.033203;0.038086;1.041016;
695863;-0.032227;0.039062;1.040039;
696079;-0.033203;0.040039;1.041016;
696314;-0.034180;0.039062;1.040039;
696544;-0.033203;0.038086;1.040039;
696764;-0.033203;0.038086;1.039062;
696982;-0.033203;0.037109;1.039062;
697194;-0.034180;0.038086;1.040039;
697414;-0.032227;0.038086;1.040039;
697635;-0.033203;0.038086;1.038086;
697859;-0.033203;0.038086;1.039062;
698069;-0.034180;0.037109;1.040039;
698279;-0.033203;0.039062;1.041016;
698502;-0.032227;0.039062;1.038086;
698719;-0.034180;0.039062;1.039062;
698929;-0.034180;0.038086;1.040039;
699149;-0.034180;0.038086;1.041016;
699379;-0.032227;0.039062;1.040039;
699589;-0.032227;0.038086;1.039062;
699809;-0.033203;0.040039;1.040039;
700034;-0.033203;0.039062;1.040039;
700254;-0.034180;0.038086;1.040039;
700469;-0.033203;0.037109;1.040039;
700689;-0.032227;0.038086;1.041016;
700911;-0.033203;0.038086;1.041016;
701119;-0.034180;0.039062;1.040039;
701339;-0.033203;0.039062;1.039062;
701559;-0.034180;0.038086;1.039062;
701774;-0.034180;0.038086;1.040039;
701994;-0.033203;0.038086;1.039062;
702209;-0.034180;0.040039;1.040039;
702444;-0.032227;0.040039;1.040039;
702663;-0.033203;0.038086;1.041016;
702884;-0.033203;0.039062;1.038086;
703099;-0.032227;0.040039;1.041016;
703310;-0.033203;0.039062;1.038086;
703523;-0.034180;0.039062;1.039062;
703734;-0.033203;0.039062;1.040039;
703954;-0.033203;0.038086;1.041016;
704173;-0.033203;0.038086;1.041016;
704389;-0.033203;0.038086;1.039062;
704624;-0.033203;0.038086;1.041016;
704839;-0.034180;0.039062;1.038086;
705059;-0.033203;0.040039;1.040039;
705269;-0.033203;0.038086;1.040039;
705479;-0.034180;0.040039;1.041016;
705689;-0.033203;0.040039;1.038086;
