Time;acc_x;acc_y;acc_z;

582565;-0.033203;0.037109;1.035156;
582782;-0.034180;0.038086;1.037109;
582932;-0.034180;0.038086;1.036133;
583072;-0.033203;0.037109;1.035156;
583212;-0.035156;0.037109;1.037109;
583352;-0.034180;0.038086;1.036133;
583492;-0.034180;0.037109;1.033203;
583632;-0.034180;0.037109;1.036133;
583772;-0.035156;0.036133;1.036133;
583912;-0.034180;0.037109;1.035156;
584052;-0.035156;0.036133;1.037109;
584192;-0.034180;0.036133;1.036133;
584332;-0.034180;0.037109;1.036133;
584472;-0.034180;0.037109;1.036133;
584612;-0.035156;0.036133;1.037109;
584752;-0.034180;0.038086;1.036133;
584892;-0.036133;0.036133;1.036133;
585032;-0.034180;0.037109;1.035156;
585168;-0.035156;0.036133;1.037109;
585309;-0.033203;0.038086;1.035156;
585447;-0.035156;0.037109;1.036133;
585587;-0.034180;0.038086;1.036133;
585738;-0.035156;0.039062;1.035156;
585870;-0.033203;0.037109;1.035156;
586008;-0.033203;0.036133;1.036133;
586159;-0.032227;0.038086;1.036133;
586307;-0.034180;0.038086;1.038086;
586442;-0.034180;0.038086;1.037109;
586582;-0.035156;0.038086;1.035156;
586722;-0.036133;0.037109;1.036133;
586862;-0.035156;0.036133;1.034180;
587002;-0.034180;0.036133;1.033203;
587142;-0.033203;0.037109;1.037109;
587292;-0.033203;0.038086;1.036133;
587432;-0.034180;0.038086;1.037109;
587572;-0.033203;0.038086;1.036133;
587712;-0.034180;0.036133;1.035156;
587852;-0.033203;0.038086;1.036133;
587992;-0.034180;0.037109;1.035156;
588132;-0.033203;0.037109;1.036133;
588270;-0.034180;0.036133;1.036133;
588407;-0.034180;0.036133;1.035156;
588550;-0.033203;0.038086;1.034180;
588702;-0.035156;0.037109;1.035156;
588842;-0.033203;0.036133;1.035156;
588977;-0.033203;0.037109;1.038086;
589117;-0.033203;0.037109;1.035156;
589257;-0.034180;0.039062;1.036133;
589407;-0.034180;0.037109;1.036133;
589547;-0.033203;0.038086;1.036133;
589688;-0.034180;0.037109;1.035156;
589842;-0.035156;0.037109;1.036133;
589992;-0.034180;0.039062;1.038086;
590132;-0.035156;0.036133;1.036133;
590272;-0.035156;0.037109;1.035156;
590412;-0.034180;0.038086;1.036133;
590552;-0.035156;0.040039;1.035156;
590692;-0.034180;0.037109;1.037109;
590832;-0.034180;0.038086;1.037109;
590972;-0.034180;0.038086;1.034180;
591112;-0.034180;0.035156;1.036133;
591252;-0.035156;0.037109;1.035156;
591392;-0.033203;0.039062;1.036133;
591532;-0.034180;0.039062;1.035156;
591672;-0.035156;0.039062;1.037109;
591808;-0.035156;0.036133;1.035156;
591948;-0.034180;0.037109;1.035156;
592088;-0.034180;0.038086;1.036133;
592228;-0.033203;0.038086;1.037109;
592358;-0.034180;0.038086;1.035156;
592498;-0.034180;0.038086;1.035156;
592630;-0.034180;0.038086;1.035156;
592772;-0.035156;0.038086;1.035156;
592908;-0.034180;0.038086;1.034180;
593058;-0.033203;0.039062;1.036133;
593202;-0.032227;0.039062;1.035156;
593342;-0.035156;0.034180;1.035156;
593482;-0.035156;0.037109;1.038086;
593622;-0.034180;0.039062;1.038086;
593762;-0.034180;0.040039;1.035156;
593902;-0.033203;0.037109;1.035156;
594042;-0.033203;0.038086;1.035156;
594182;-0.034180;0.036133;1.035156;
594322;-0.034180;0.036133;1.038086;
594462;-0.035156;0.037109;1.036133;
594612;-0.033203;0.039062;1.035156;
594752;-0.034180;0.038086;1.037109;
594892;-0.034180;0.037109;1.035156;
595032;-0.033203;0.038086;1.034180;
595168;-0.035156;0.037109;1.038086;
595319;-0.033203;0.038086;1.036133;
595459;-0.035156;0.039062;1.037109;
595597;-0.034180;0.038086;1.036133;
595728;-0.034180;0.039062;1.034180;
595878;-0.035156;0.038086;1.035156;
596007;-0.034180;0.036133;1.035156;
596148;-0.034180;0.037109;1.036133;
596292;-0.035156;0.036133;1.037109;
596432;-0.034180;0.038086;1.036133;
596572;-0.033203;0.038086;1.036133;
596712;-0.033203;0.039062;1.035156;
596852;-0.033203;0.038086;1.035156;
596992;-0.035156;0.037109;1.037109;
597132;-0.034180;0.036133;1.037109;
597272;-0.036133;0.035156;1.035156;
597412;-0.033203;0.038086;1.035156;
597552;-0.034180;0.039062;1.036133;
597692;-0.034180;0.037109;1.036133;
597832;-0.034180;0.038086;1.037109;
597982;-0.033203;0.038086;1.037109;
598122;-0.035156;0.037109;1.037109;
598257;-0.035156;0.037109;1.036133;
598398;-0.034180;0.037109;1.037109;
598548;-0.034180;0.038086;1.035156;
598692;-0.034180;0.036133;1.036133;
598832;-0.032227;0.038086;1.035156;
598979;-0.033203;0.038086;1.037109;
599117;-0.033203;0.038086;1.037109;
599258;-0.033203;0.036133;1.035156;
599398;-0.034180;0.036133;1.035156;
599548;-0.034180;0.038086;1.036133;
599702;-0.034180;0.038086;1.036133;
599852;-0.034180;0.038086;1.036133;
599992;-0.034180;0.038086;1.035156;
600132;-0.033203;0.038086;1.036133;
600272;-0.035156;0.037109;1.036133;
600412;-0.035156;0.038086;1.037109;
600552;-0.033203;0.038086;1.033203;
600692;-0.033203;0.037109;1.037109;
600832;-0.034180;0.037109;1.035156;
600972;-0.033203;0.037109;1.037109;
601112;-0.032227;0.039062;1.038086;
601252;-0.035156;0.037109;1.034180;
601392;-0.034180;0.038086;1.035156;
601532;-0.034180;0.039062;1.038086;
601657;-0.032227;0.037109;1.036133;
601788;-0.034180;0.037109;1.034180;
601932;-0.034180;0.037109;1.035156;
602080;-0.033203;0.038086;1.035156;
602217;-0.034180;0.036133;1.037109;
602368;-0.034180;0.036133;1.036133;
602508;-0.034180;0.039062;1.036133;
602648;-0.033203;0.038086;1.035156;
602802;-0.035156;0.036133;1.035156;
602942;-0.033203;0.037109;1.034180;
603082;-0.034180;0.038086;1.037109;
603222;-0.033203;0.037109;1.037109;
603362;-0.034180;0.037109;1.036133;
603502;-0.034180;0.036133;1.036133;
603642;-0.034180;0.038086;1.036133;
603782;-0.034180;0.037109;1.037109;
603922;-0.035156;0.037109;1.036133;
604062;-0.034180;0.037109;1.035156;
604202;-0.033203;0.038086;1.036133;
604342;-0.035156;0.037109;1.037109;
604482;-0.034180;0.039062;1.036133;
604622;-0.035156;0.036133;1.037109;
604759;-0.032227;0.038086;1.035156;
604912;-0.035156;0.037109;1.036133;
605048;-0.035156;0.037109;1.037109;
605177;-0.034180;0.038086;1.037109;
605319;-0.034180;0.037109;1.036133;
605467;-0.033203;0.037109;1.038086;
605618;-0.034180;0.038086;1.035156;
605748;-0.033203;0.038086;1.036133;
605898;-0.033203;0.038086;1.036133;
606042;-0.034180;0.038086;1.036133;
606192;-0.033203;0.036133;1.036133;
606332;-0.034180;0.037109;1.038086;
606472;-0.033203;0.039062;1.036133;
606612;-0.033203;0.038086;1.033203;
606752;-0.034180;0.038086;1.035156;
606892;-0.033203;0.038086;1.036133;
607032;-0.033203;0.037109;1.036133;
607172;-0.033203;0.036133;1.038086;
607312;-0.035156;0.037109;1.035156;
607452;-0.034180;0.038086;1.038086;
607592;-0.033203;0.036133;1.035156;
607742;-0.034180;0.037109;1.038086;
607882;-0.033203;0.038086;1.036133;
608018;-0.034180;0.038086;1.036133;
608168;-0.033203;0.036133;1.035156;
608310;-0.034180;0.036133;1.038086;
608447;-0.034180;0.038086;1.038086;
608577;-0.034180;0.037109;1.036133;
608718;-0.033203;0.036133;1.034180;
608847;-0.034180;0.036133;1.036133;
608998;-0.035156;0.038086;1.038086;
609142;-0.033203;0.038086;1.035156;
609282;-0.034180;0.037109;1.036133;
609432;-0.033203;0.036133;1.034180;
609572;-0.034180;0.037109;1.039062;
609712;-0.033203;0.036133;1.037109;
609852;-0.034180;0.037109;1.035156;
609992;-0.034180;0.037109;1.034180;
610132;-0.035156;0.039062;1.037109;
610272;-0.034180;0.038086;1.040039;
610412;-0.034180;0.037109;1.035156;
610562;-0.033203;0.036133;1.037109;
610702;-0.033203;0.037109;1.035156;
610842;-0.033203;0.038086;1.035156;
610982;-0.034180;0.037109;1.034180;
611119;-0.036133;0.037109;1.038086;
611267;-0.034180;0.036133;1.036133;
611408;-0.034180;0.037109;1.036133;
611549;-0.033203;0.037109;1.038086;
611698;-0.034180;0.035156;1.035156;
611829;-0.034180;0.037109;1.035156;
611972;-0.033203;0.036133;1.034180;
612097;-0.034180;0.037109;1.035156;
612238;-0.034180;0.037109;1.037109;
612387;-0.034180;0.039062;1.037109;
612542;-0.033203;0.037109;1.036133;
612682;-0.033203;0.038086;1.035156;
612822;-0.034180;0.037109;1.037109;
612972;-0.033203;0.038086;1.035156;
613112;-0.033203;0.038086;1.035156;
613252;-0.034180;0.036133;1.037109;
613392;-0.033203;0.037109;1.035156;
613532;-0.034180;0.037109;1.035156;
613672;-0.034180;0.038086;1.036133;
613812;-0.034180;0.039062;1.038086;
613952;-0.033203;0.037109;1.036133;
614092;-0.034180;0.038086;1.038086;
614232;-0.034180;0.038086;1.036133;
614372;-0.034180;0.038086;1.035156;
614507;-0.033203;0.038086;1.037109;
614648;-0.033203;0.039062;1.036133;
614777;-0.034180;0.038086;1.036133;
614927;-0.035156;0.037109;1.035156;
615062;-0.032227;0.039062;1.036133;
615198;-0.034180;0.037109;1.035156;
615332;-0.033203;0.036133;1.037109;
615469;-0.034180;0.039062;1.038086;
615597;-0.034180;0.038086;1.037109;
615738;-0.034180;0.038086;1.037109;
615878;-0.035156;0.036133;1.036133;
616018;-0.034180;0.037109;1.035156;
616162;-0.033203;0.039062;1.037109;
616302;-0.034180;0.037109;1.036133;
616442;-0.033203;0.037109;1.035156;
616582;-0.034180;0.037109;1.035156;
616722;-0.033203;0.038086;1.035156;
616862;-0.033203;0.038086;1.036133;
617002;-0.034180;0.037109;1.036133;
617142;-0.034180;0.037109;1.035156;
617282;-0.034180;0.037109;1.034180;
617422;-0.033203;0.037109;1.035156;
617562;-0.034180;0.037109;1.036133;
617702;-0.032227;0.039062;1.036133;
617842;-0.033203;0.038086;1.036133;
617982;-0.033203;0.038086;1.034180;
618119;-0.033203;0.039062;1.035156;
618258;-0.033203;0.037109;1.034180;
618402;-0.035156;0.036133;1.037109;
618538;-0.033203;0.038086;1.037109;
618680;-0.034180;0.036133;1.035156;
618808;-0.035156;0.036133;1.035156;
618947;-0.033203;0.038086;1.037109;
619098;-0.032227;0.038086;1.036133;
619228;-0.034180;0.039062;1.036133;
619377;-0.032227;0.038086;1.036133;
619519;-0.034180;0.037109;1.036133;
619662;-0.035156;0.037109;1.037109;
619802;-0.033203;0.038086;1.037109;
619942;-0.033203;0.037109;1.035156;
620082;-0.034180;0.038086;1.035156;
620222;-0.033203;0.037109;1.035156;
620362;-0.033203;0.037109;1.035156;
620502;-0.035156;0.037109;1.037109;
620652;-0.034180;0.037109;1.035156;
620792;-0.035156;0.037109;1.036133;
620932;-0.034180;0.038086;1.037109;
621072;-0.033203;0.038086;1.036133;
621212;-0.035156;0.038086;1.036133;
621362;-0.034180;0.039062;1.036133;
621502;-0.033203;0.038086;1.036133;
621642;-0.033203;0.037109;1.036133;
621782;-0.034180;0.037109;1.036133;
621907;-0.032227;0.037109;1.037109;
622048;-0.035156;0.038086;1.035156;
622198;-0.033203;0.035156;1.036133;
622337;-0.034180;0.039062;1.037109;
622488;-0.032227;0.037109;1.036133;
622638;-0.032227;0.038086;1.035156;
622778;-0.035156;0.038086;1.035156;
622932;-0.035156;0.037109;1.036133;
623072;-0.035156;0.038086;1.037109;
623212;-0.033203;0.038086;1.036133;
623352;-0.034180;0.037109;1.036133;
623492;-0.032227;0.039062;1.037109;
623632;-0.035156;0.040039;1.037109;
623772;-0.034180;0.036133;1.035156;
623922;-0.034180;0.037109;1.036133;
624062;-0.034180;0.039062;1.036133;
624202;-0.033203;0.038086;1.035156;
624352;-0.034180;0.037109;1.037109;
624492;-0.034180;0.036133;1.034180;
624632;-0.034180;0.037109;1.036133;
624782;-0.033203;0.037109;1.036133;
624917;-0.035156;0.036133;1.036133;
625069;-0.033203;0.037109;1.035156;
625208;-0.034180;0.037109;1.036133;
625338;-0.034180;0.037109;1.037109;
625477;-0.034180;0.038086;1.035156;
625628;-0.034180;0.039062;1.037109;
625768;-0.033203;0.038086;1.036133;
625902;-0.033203;0.037109;1.036133;
626042;-0.034180;0.037109;1.037109;
626172;-0.035156;0.036133;1.036133;
626308;-0.035156;0.037109;1.035156;
626438;-0.034180;0.037109;1.035156;
626577;-0.034180;0.036133;1.036133;
626722;-0.033203;0.037109;1.036133;
626872;-0.035156;0.037109;1.036133;
627012;-0.033203;0.038086;1.037109;
627152;-0.034180;0.038086;1.036133;
627302;-0.033203;0.037109;1.035156;
627442;-0.034180;0.037109;1.035156;
627582;-0.033203;0.037109;1.038086;
627732;-0.034180;0.037109;1.036133;
627872;-0.033203;0.038086;1.038086;
628012;-0.034180;0.038086;1.035156;
628152;-0.033203;0.036133;1.034180;
628292;-0.034180;0.036133;1.036133;
628442;-0.034180;0.037109;1.035156;
628582;-0.035156;0.037109;1.036133;
628728;-0.033203;0.038086;1.036133;
628871;-0.033203;0.039062;1.035156;
628999;-0.034180;0.039062;1.037109;
629128;-0.033203;0.038086;1.035156;
629268;-0.033203;0.038086;1.037109;
629412;-0.035156;0.033203;1.030273;
629552;-0.034180;0.039062;1.034180;
629688;-0.034180;0.038086;1.036133;
629827;-0.032227;0.036133;1.036133;
629977;-0.035156;0.036133;1.038086;
630117;-0.034180;0.039062;1.036133;
630272;-0.034180;0.038086;1.035156;
630407;-0.033203;0.037109;1.037109;
630562;-0.034180;0.036133;1.036133;
630702;-0.033203;0.039062;1.034180;
630842;-0.034180;0.037109;1.036133;
630977;-0.033203;0.037109;1.036133;
631122;-0.034180;0.036133;1.036133;
631262;-0.033203;0.037109;1.037109;
631402;-0.035156;0.036133;1.038086;
631542;-0.033203;0.037109;1.035156;
631682;-0.034180;0.040039;1.036133;
631822;-0.034180;0.038086;1.036133;
631962;-0.035156;0.038086;1.035156;
632112;-0.033203;0.038086;1.037109;
632242;-0.034180;0.038086;1.037109;
632377;-0.034180;0.039062;1.036133;
632518;-0.034180;0.037109;1.035156;
632668;-0.035156;0.038086;1.037109;
632817;-0.033203;0.039062;1.036133;
632958;-0.033203;0.038086;1.039062;
633107;-0.033203;0.037109;1.034180;
633238;-0.034180;0.036133;1.034180;
633368;-0.033203;0.034180;1.032227;
633504;-0.035156;0.039062;1.031250;
633638;-0.034180;0.038086;1.034180;
633782;-0.034180;0.036133;1.039062;
633922;-0.034180;0.037109;1.036133;
634062;-0.034180;0.037109;1.035156;
634202;-0.034180;0.037109;1.037109;
634342;-0.032227;0.038086;1.036133;
634482;-0.032227;0.038086;1.038086;
634622;-0.035156;0.037109;1.036133;
634772;-0.035156;0.037109;1.036133;
634912;-0.034180;0.039062;1.035156;
635052;-0.034180;0.038086;1.035156;
635187;-0.033203;0.036133;1.034180;
635328;-0.033203;0.037109;1.037109;
635469;-0.034180;0.038086;1.038086;
635599;-0.034180;0.038086;1.035156;
635728;-0.034180;0.037109;1.036133;
635877;-0.035156;0.036133;1.034180;
636017;-0.032227;0.037109;1.036133;
636167;-0.034180;0.038086;1.036133;
636297;-0.034180;0.036133;1.035156;
636438;-0.034180;0.037109;1.035156;
636579;-0.034180;0.037109;1.034180;
636727;-0.035156;0.036133;1.037109;
636868;-0.034180;0.037109;1.037109;
637002;-0.033203;0.039062;1.036133;
637138;-0.035156;0.038086;1.034180;
637278;-0.033203;0.037109;1.035156;
637428;-0.034180;0.035156;1.038086;
637562;-0.034180;0.038086;1.034180;
637702;-0.035156;0.038086;1.035156;
637842;-0.034180;0.038086;1.035156;
637992;-0.033203;0.038086;1.034180;
638138;-0.032227;0.038086;1.036133;
638272;-0.034180;0.036133;1.036133;
638412;-0.034180;0.038086;1.035156;
638550;-0.034180;0.038086;1.035156;
638698;-0.035156;0.038086;1.036133;
638842;-0.034180;0.038086;1.035156;
638982;-0.034180;0.038086;1.036133;
639122;-0.035156;0.038086;1.036133;
639257;-0.035156;0.036133;1.035156;
639398;-0.034180;0.036133;1.035156;
639547;-0.032227;0.038086;1.036133;
639697;-0.035156;0.038086;1.037109;
639838;-0.033203;0.038086;1.036133;
639980;-0.034180;0.038086;1.036133;
640127;-0.035156;0.038086;1.035156;
640277;-0.034180;0.038086;1.037109;
640428;-0.034180;0.037109;1.036133;
640578;-0.033203;0.038086;1.036133;
640707;-0.034180;0.039062;1.037109;
640838;-0.035156;0.038086;1.037109;
640978;-0.035156;0.037109;1.036133;
641117;-0.033203;0.038086;1.035156;
641249;-0.033203;0.037109;1.038086;
641382;-0.034180;0.036133;1.035156;
641522;-0.033203;0.037109;1.037109;
641662;-0.032227;0.038086;1.035156;
641802;-0.034180;0.040039;1.037109;
641928;-0.035156;0.039062;1.037109;
642082;-0.034180;0.038086;1.037109;
642222;-0.035156;0.036133;1.037109;
642362;-0.034180;0.038086;1.037109;
642503;-0.035156;0.037109;1.036133;
642652;-0.033203;0.039062;1.036133;
642792;-0.034180;0.038086;1.038086;
642928;-0.035156;0.037109;1.035156;
643058;-0.035156;0.037109;1.036133;
643192;-0.035156;0.039062;1.037109;
643328;-0.034180;0.036133;1.035156;
643479;-0.033203;0.036133;1.035156;
643619;-0.034180;0.036133;1.037109;
643749;-0.035156;0.038086;1.036133;
643887;-0.034180;0.038086;1.036133;
644038;-0.034180;0.038086;1.037109;
644187;-0.034180;0.037109;1.036133;
644338;-0.034180;0.036133;1.036133;
644487;-0.035156;0.037109;1.037109;
644629;-0.033203;0.039062;1.036133;
644769;-0.032227;0.037109;1.036133;
644908;-0.033203;0.037109;1.036133;
645048;-0.034180;0.038086;1.037109;
645182;-0.036133;0.038086;1.036133;
645317;-0.034180;0.037109;1.036133;
645457;-0.034180;0.037109;1.035156;
645598;-0.034180;0.037109;1.036133;
645752;-0.034180;0.037109;1.035156;
645892;-0.034180;0.036133;1.035156;
646032;-0.035156;0.036133;1.037109;
646177;-0.035156;0.036133;1.036133;
646312;-0.034180;0.038086;1.036133;
646462;-0.034180;0.035156;1.036133;
646602;-0.034180;0.037109;1.035156;
646742;-0.033203;0.037109;1.035156;
646878;-0.033203;0.036133;1.036133;
647012;-0.034180;0.037109;1.037109;
647152;-0.035156;0.036133;1.034180;
647342;-0.034180;0.038086;1.035156;
647488;-0.033203;0.036133;1.035156;
647632;-0.034180;0.037109;1.036133;
647777;-0.033203;0.038086;1.037109;
647918;-0.033203;0.037109;1.037109;
648068;-0.033203;0.035156;1.035156;
648208;-0.035156;0.036133;1.036133;
648347;-0.034180;0.037109;1.036133;
648498;-0.034180;0.038086;1.035156;
648649;-0.033203;0.037109;1.038086;
648797;-0.034180;0.036133;1.038086;
648929;-0.034180;0.037109;1.035156;
649079;-0.035156;0.037109;1.036133;
649217;-0.034180;0.039062;1.036133;
649369;-0.035156;0.038086;1.035156;
649512;-0.034180;0.037109;1.037109;
649652;-0.034180;0.037109;1.035156;
649802;-0.033203;0.039062;1.035156;
649942;-0.035156;0.037109;1.036133;
650068;-0.034180;0.037109;1.035156;
650212;-0.035156;0.037109;1.036133;
650352;-0.033203;0.037109;1.034180;
650492;-0.033203;0.036133;1.036133;
650632;-0.035156;0.036133;1.035156;
650772;-0.033203;0.037109;1.036133;
650908;-0.034180;0.036133;1.036133;
651047;-0.033203;0.038086;1.037109;
651188;-0.034180;0.037109;1.035156;
651327;-0.034180;0.038086;1.035156;
651470;-0.034180;0.038086;1.038086;
651608;-0.033203;0.038086;1.037109;
651757;-0.035156;0.038086;1.036133;
651908;-0.034180;0.037109;1.036133;
652047;-0.034180;0.039062;1.038086;
652182;-0.034180;0.037109;1.036133;
652327;-0.034180;0.037109;1.034180;
652479;-0.034180;0.037109;1.038086;
652628;-0.034180;0.037109;1.035156;
652757;-0.033203;0.038086;1.035156;
652907;-0.035156;0.038086;1.037109;
653062;-0.034180;0.037109;1.036133;
653202;-0.033203;0.037109;1.036133;
653342;-0.034180;0.036133;1.035156;
653492;-0.032227;0.037109;1.035156;
653632;-0.035156;0.036133;1.036133;
653778;-0.034180;0.039062;1.035156;
653907;-0.035156;0.037109;1.036133;
654042;-0.034180;0.037109;1.036133;
654179;-0.035156;0.035156;1.037109;
654332;-0.034180;0.038086;1.037109;
654472;-0.034180;0.037109;1.036133;
654612;-0.033203;0.037109;1.033203;
654758;-0.034180;0.040039;1.036133;
654897;-0.034180;0.038086;1.034180;
655038;-0.034180;0.036133;1.036133;
655178;-0.033203;0.038086;1.037109;
655328;-0.034180;0.037109;1.035156;
655469;-0.033203;0.037109;1.036133;
655607;-0.034180;0.037109;1.036133;
655757;-0.033203;0.037109;1.034180;
655898;-0.033203;0.038086;1.037109;
656042;-0.036133;0.036133;1.035156;
656168;-0.033203;0.038086;1.036133;
656298;-0.034180;0.038086;1.036133;
656438;-0.033203;0.038086;1.035156;
656578;-0.033203;0.038086;1.037109;
656727;-0.035156;0.038086;1.035156;
656878;-0.033203;0.037109;1.036133;
657019;-0.033203;0.037109;1.036133;
657147;-0.034180;0.038086;1.037109;
657287;-0.035156;0.037109;1.034180;
657428;-0.033203;0.038086;1.035156;
657572;-0.035156;0.037109;1.037109;
657722;-0.035156;0.037109;1.035156;
657862;-0.033203;0.038086;1.035156;
658002;-0.034180;0.037109;1.035156;
658137;-0.034180;0.037109;1.035156;
658312;-0.033203;0.038086;1.038086;
658462;-0.034180;0.038086;1.036133;
658602;-0.033203;0.037109;1.034180;
658749;-0.033203;0.039062;1.035156;
658898;-0.034180;0.037109;1.037109;
659042;-0.035156;0.036133;1.035156;
659182;-0.033203;0.039062;1.036133;
659318;-0.034180;0.039062;1.037109;
659457;-0.035156;0.038086;1.034180;
659598;-0.034180;0.037109;1.037109;
659737;-0.034180;0.036133;1.036133;
659877;-0.034180;0.036133;1.035156;
660018;-0.033203;0.036133;1.035156;
660147;-0.034180;0.038086;1.036133;
660297;-0.034180;0.037109;1.036133;
660448;-0.033203;0.040039;1.037109;
660577;-0.034180;0.037109;1.037109;
660717;-0.033203;0.038086;1.035156;
660862;-0.034180;0.037109;1.037109;
661008;-0.035156;0.037109;1.036133;
661148;-0.033203;0.038086;1.037109;
661288;-0.033203;0.037109;1.038086;
661428;-0.036133;0.036133;1.036133;
661567;-0.035156;0.034180;1.035156;
661702;-0.033203;0.039062;1.035156;
661842;-0.035156;0.038086;1.037109;
661982;-0.033203;0.038086;1.035156;
662128;-0.035156;0.037109;1.036133;
662277;-0.035156;0.035156;1.035156;
662412;-0.033203;0.038086;1.037109;
662552;-0.033203;0.037109;1.036133;
662692;-0.033203;0.038086;1.035156;
662832;-0.033203;0.037109;1.037109;
662972;-0.034180;0.037109;1.035156;
663120;-0.033203;0.038086;1.035156;
663247;-0.035156;0.039062;1.036133;
663382;-0.034180;0.037109;1.036133;
663522;-0.033203;0.038086;1.034180;
663657;-0.033203;0.038086;1.037109;
663788;-0.033203;0.037109;1.037109;
663928;-0.033203;0.038086;1.036133;
664067;-0.033203;0.039062;1.036133;
664218;-0.034180;0.037109;1.038086;
664359;-0.034180;0.037109;1.034180;
664508;-0.033203;0.038086;1.035156;
664648;-0.034180;0.036133;1.037109;
664800;-0.034180;0.037109;1.034180;
664947;-0.032227;0.036133;1.036133;
665078;-0.034180;0.038086;1.036133;
665227;-0.034180;0.039062;1.037109;
665370;-0.033203;0.037109;1.037109;
665498;-0.034180;0.035156;1.036133;
665642;-0.034180;0.037109;1.037109;
665778;-0.034180;0.037109;1.035156;
665917;-0.034180;0.036133;1.035156;
666072;-0.033203;0.037109;1.034180;
666212;-0.034180;0.036133;1.037109;
666352;-0.034180;0.038086;1.038086;
666492;-0.034180;0.038086;1.036133;
666628;-0.033203;0.038086;1.036133;
666778;-0.034180;0.038086;1.035156;
666922;-0.034180;0.036133;1.037109;
667062;-0.034180;0.037109;1.034180;
667202;-0.034180;0.035156;1.036133;
667338;-0.035156;0.036133;1.036133;
667488;-0.034180;0.038086;1.037109;
667638;-0.033203;0.035156;1.036133;
667788;-0.034180;0.037109;1.035156;
667938;-0.035156;0.037109;1.036133;
668078;-0.034180;0.038086;1.037109;
668218;-0.033203;0.037109;1.035156;
668358;-0.033203;0.037109;1.034180;
668498;-0.034180;0.037109;1.036133;
668638;-0.034180;0.037109;1.036133;
668777;-0.034180;0.038086;1.037109;
668917;-0.033203;0.038086;1.036133;
669057;-0.033203;0.038086;1.037109;
669212;-0.033203;0.037109;1.036133;
669358;-0.033203;0.036133;1.035156;
669498;-0.034180;0.037109;1.034180;
669628;-0.033203;0.037109;1.035156;
669779;-0.034180;0.037109;1.037109;
669908;-0.033203;0.037109;1.036133;
670052;-0.032227;0.039062;1.036133;
670192;-0.033203;0.037109;1.036133;
670332;-0.034180;0.038086;1.036133;
670478;-0.033203;0.037109;1.036133;
670618;-0.033203;0.038086;1.036133;
670772;-0.034180;0.039062;1.038086;
670912;-0.034180;0.036133;1.036133;
671052;-0.035156;0.036133;1.034180;
671192;-0.032227;0.037109;1.035156;
671328;-0.033203;0.037109;1.037109;
671458;-0.033203;0.036133;1.035156;
671602;-0.034180;0.036133;1.036133;
671737;-0.033203;0.037109;1.036133;
671878;-0.033203;0.036133;1.035156;
672028;-0.033203;0.036133;1.036133;
672179;-0.035156;0.038086;1.036133;
672318;-0.033203;0.037109;1.037109;
672458;-0.033203;0.038086;1.036133;
672597;-0.034180;0.038086;1.036133;
672748;-0.033203;0.038086;1.037109;
672898;-0.034180;0.037109;1.037109;
673038;-0.034180;0.038086;1.037109;
673178;-0.034180;0.036133;1.035156;
673317;-0.034180;0.037109;1.037109;
673472;-0.034180;0.037109;1.035156;
673622;-0.035156;0.038086;1.036133;
673762;-0.034180;0.036133;1.037109;
673898;-0.034180;0.036133;1.036133;
674048;-0.033203;0.038086;1.036133;
674192;-0.033203;0.038086;1.037109;
674332;-0.034180;0.037109;1.037109;
674472;-0.034180;0.037109;1.037109;
674608;-0.032227;0.038086;1.037109;
674752;-0.034180;0.038086;1.036133;
674892;-0.035156;0.038086;1.035156;
675032;-0.034180;0.037109;1.037109;
675174;-0.034180;0.036133;1.036133;
675318;-0.034180;0.037109;1.034180;
675468;-0.034180;0.036133;1.037109;
675620;-0.034180;0.037109;1.036133;
675768;-0.033203;0.037109;1.034180;
675907;-0.033203;0.038086;1.035156;
676048;-0.034180;0.037109;1.036133;
676198;-0.033203;0.037109;1.037109;
676338;-0.034180;0.035156;1.036133;
676468;-0.034180;0.037109;1.037109;
676599;-0.034180;0.038086;1.037109;
676728;-0.033203;0.035156;1.035156;
676862;-0.033203;0.037109;1.035156;
676998;-0.035156;0.036133;1.036133;
677137;-0.035156;0.038086;1.037109;
677277;-0.034180;0.037109;1.035156;
677428;-0.034180;0.037109;1.037109;
677569;-0.034180;0.038086;1.036133;
677718;-0.033203;0.038086;1.035156;
677857;-0.033203;0.038086;1.036133;
677997;-0.033203;0.039062;1.035156;
678142;-0.035156;0.036133;1.036133;
678282;-0.034180;0.037109;1.037109;
678419;-0.034180;0.037109;1.035156;
678552;-0.035156;0.036133;1.036133;
678688;-0.035156;0.039062;1.036133;
678828;-0.035156;0.037109;1.036133;
678982;-0.034180;0.039062;1.036133;
679122;-0.033203;0.037109;1.037109;
679262;-0.034180;0.036133;1.036133;
679398;-0.034180;0.038086;1.036133;
679552;-0.034180;0.037109;1.036133;
679692;-0.035156;0.037109;1.037109;
679832;-0.033203;0.036133;1.036133;
679972;-0.033203;0.037109;1.035156;
680097;-0.032227;0.038086;1.035156;
680227;-0.034180;0.038086;1.037109;
680378;-0.033203;0.037109;1.035156;
680518;-0.033203;0.039062;1.036133;
680668;-0.033203;0.038086;1.037109;
680818;-0.034180;0.037109;1.036133;
680969;-0.032227;0.037109;1.037109;
681097;-0.034180;0.037109;1.036133;
681232;-0.035156;0.036133;1.037109;
681368;-0.034180;0.037109;1.037109;
681508;-0.033203;0.037109;1.036133;
681658;-0.034180;0.037109;1.036133;
681808;-0.034180;0.037109;1.036133;
681948;-0.034180;0.038086;1.038086;
682088;-0.032227;0.038086;1.037109;
682237;-0.033203;0.036133;1.035156;
682382;-0.033203;0.038086;1.036133;
682528;-0.034180;0.037109;1.038086;
682668;-0.034180;0.039062;1.037109;
682819;-0.033203;0.036133;1.036133;
682968;-0.033203;0.037109;1.035156;
683119;-0.033203;0.039062;1.037109;
683249;-0.034180;0.037109;1.037109;
683402;-0.033203;0.038086;1.036133;
683542;-0.034180;0.037109;1.037109;
683682;-0.034180;0.038086;1.037109;
683832;-0.034180;0.036133;1.037109;
683977;-0.034180;0.038086;1.036133;
684109;-0.034180;0.039062;1.038086;
684238;-0.034180;0.037109;1.036133;
684382;-0.033203;0.038086;1.036133;
684522;-0.035156;0.037109;1.035156;
684662;-0.034180;0.037109;1.036133;
684802;-0.033203;0.037109;1.037109;
684932;-0.034180;0.038086;1.037109;
685072;-0.033203;0.040039;1.036133;
685212;-0.033203;0.038086;1.037109;
685347;-0.033203;0.037109;1.034180;
685477;-0.033203;0.037109;1.038086;
685620;-0.033203;0.036133;1.037109;
685758;-0.034180;0.038086;1.036133;
685907;-0.033203;0.037109;1.037109;
686058;-0.034180;0.038086;1.036133;
686197;-0.035156;0.037109;1.035156;
686328;-0.034180;0.036133;1.036133;
686468;-0.035156;0.039062;1.037109;
686597;-0.033203;0.038086;1.035156;
686737;-0.034180;0.037109;1.036133;
686888;-0.034180;0.037109;1.036133;
687027;-0.034180;0.036133;1.035156;
687168;-0.035156;0.036133;1.037109;
687308;-0.033203;0.038086;1.036133;
687458;-0.034180;0.037109;1.035156;
687608;-0.035156;0.037109;1.036133;
687757;-0.035156;0.035156;1.036133;
687898;-0.033203;0.036133;1.036133;
688038;-0.034180;0.037109;1.035156;
688172;-0.033203;0.038086;1.037109;
688317;-0.034180;0.036133;1.036133;
688449;-0.034180;0.036133;1.037109;
688592;-0.033203;0.037109;1.036133;
688732;-0.034180;0.037109;1.036133;
688882;-0.032227;0.037109;1.037109;
689017;-0.033203;0.038086;1.036133;
689158;-0.034180;0.038086;1.035156;
689312;-0.034180;0.038086;1.036133;
689452;-0.034180;0.038086;1.037109;
689592;-0.031250;0.038086;1.035156;
689728;-0.034180;0.036133;1.037109;
689872;-0.033203;0.034180;1.036133;
689999;-0.033203;0.036133;1.034180;
690128;-0.034180;0.039062;1.039062;
690268;-0.033203;0.039062;1.037109;
690417;-0.035156;0.038086;1.036133;
690562;-0.034180;0.036133;1.036133;
690707;-0.034180;0.037109;1.035156;
690847;-0.032227;0.038086;1.035156;
690997;-0.035156;0.037109;1.036133;
691152;-0.034180;0.039062;1.037109;
691288;-0.033203;0.038086;1.037109;
691427;-0.033203;0.038086;1.037109;
691568;-0.034180;0.037109;1.036133;
691717;-0.034180;0.037109;1.036133;
691868;-0.033203;0.039062;1.037109;
692008;-0.033203;0.038086;1.035156;
692158;-0.035156;0.036133;1.037109;
692308;-0.034180;0.037109;1.036133;
692460;-0.032227;0.039062;1.036133;
692598;-0.034180;0.036133;1.035156;
692747;-0.034180;0.037109;1.037109;
692902;-0.034180;0.037109;1.036133;
693042;-0.034180;0.036133;1.036133;
693182;-0.034180;0.037109;1.036133;
693317;-0.035156;0.037109;1.037109;
693452;-0.035156;0.037109;1.036133;
693592;-0.034180;0.036133;1.036133;
693732;-0.033203;0.036133;1.036133;
693872;-0.034180;0.037109;1.037109;
694008;-0.034180;0.037109;1.037109;
694147;-0.034180;0.038086;1.034180;
694297;-0.034180;0.036133;1.037109;
694427;-0.034180;0.038086;1.037109;
694572;-0.033203;0.037109;1.036133;
694722;-0.034180;0.036133;1.038086;
694857;-0.033203;0.037109;1.035156;
694997;-0.033203;0.037109;1.035156;
695138;-0.034180;0.036133;1.037109;
695288;-0.034180;0.037109;1.037109;
695428;-0.034180;0.037109;1.037109;
695559;-0.035156;0.036133;1.036133;
695698;-0.034180;0.037109;1.036133;
695849;-0.033203;0.038086;1.037109;
695998;-0.033203;0.037109;1.037109;
696129;-0.035156;0.037109;1.036133;
696272;-0.034180;0.038086;1.037109;
696408;-0.034180;0.037109;1.037109;
696548;-0.034180;0.038086;1.035156;
696688;-0.033203;0.038086;1.035156;
696828;-0.033203;0.039062;1.037109;
696958;-0.034180;0.037109;1.036133;
697097;-0.034180;0.036133;1.036133;
697238;-0.035156;0.036133;1.037109;
697378;-0.033203;0.037109;1.037109;
697518;-0.032227;0.037109;1.036133;
697667;-0.033203;0.039062;1.036133;
697809;-0.034180;0.037109;1.036133;
697958;-0.033203;0.037109;1.036133;
698108;-0.033203;0.035156;1.035156;
698252;-0.034180;0.036133;1.036133;
698392;-0.034180;0.038086;1.036133;
698532;-0.033203;0.038086;1.036133;
698668;-0.034180;0.038086;1.036133;
698798;-0.033203;0.038086;1.037109;
698942;-0.034180;0.037109;1.035156;
699082;-0.035156;0.037109;1.037109;
699222;-0.033203;0.037109;1.036133;
699357;-0.034180;0.038086;1.036133;
699509;-0.034180;0.037109;1.036133;
699662;-0.033203;0.037109;1.036133;
699802;-0.033203;0.037109;1.035156;
699928;-0.033203;0.039062;1.036133;
700067;-0.035156;0.037109;1.037109;
700218;-0.034180;0.038086;1.037109;
700367;-0.034180;0.037109;1.036133;
700498;-0.033203;0.036133;1.036133;
700647;-0.033203;0.039062;1.037109;
700778;-0.033203;0.038086;1.034180;
700928;-0.034180;0.038086;1.034180;
701057;-0.034180;0.037109;1.036133;
701188;-0.034180;0.037109;1.037109;
701322;-0.034180;0.039062;1.038086;
701458;-0.033203;0.038086;1.036133;
701608;-0.033203;0.037109;1.035156;
701748;-0.033203;0.037109;1.035156;
701898;-0.034180;0.037109;1.036133;
702048;-0.033203;0.036133;1.036133;
702199;-0.033203;0.037109;1.036133;
702337;-0.034180;0.037109;1.036133;
702467;-0.034180;0.036133;1.036133;
702607;-0.033203;0.037109;1.036133;
702758;-0.034180;0.038086;1.037109;
702899;-0.033203;0.038086;1.036133;
703048;-0.034180;0.038086;1.036133;
703202;-0.034180;0.037109;1.036133;
703342;-0.032227;0.039062;1.036133;
703482;-0.033203;0.037109;1.036133;
703617;-0.034180;0.038086;1.036133;
703758;-0.033203;0.036133;1.036133;
703887;-0.034180;0.038086;1.037109;
704018;-0.034180;0.037109;1.036133;
704162;-0.034180;0.038086;1.036133;
704302;-0.035156;0.038086;1.036133;
704442;-0.033203;0.038086;1.035156;
704580;-0.033203;0.037109;1.035156;
704712;-0.033203;0.037109;1.037109;
704858;-0.035156;0.036133;1.038086;
704998;-0.033203;0.037109;1.035156;
705147;-0.033203;0.040039;1.036133;
705287;-0.036133;0.037109;1.036133;
705438;-0.033203;0.037109;1.035156;
705568;-0.033203;0.038086;1.036133;
705708;-0.034180;0.038086;1.037109;
705858;-0.035156;0.038086;1.036133;
706008;-0.034180;0.038086;1.037109;
706158;-0.033203;0.037109;1.036133;
706300;-0.034180;0.036133;1.036133;
706447;-0.034180;0.038086;1.036133;
706597;-0.034180;0.039062;1.035156;
706748;-0.035156;0.037109;1.037109;
706902;-0.034180;0.038086;1.037109;
707037;-0.033203;0.038086;1.036133;
707172;-0.034180;0.037109;1.035156;
707312;-0.035156;0.038086;1.037109;
707452;-0.034180;0.037109;1.036133;
707593;-0.034180;0.036133;1.036133;
707737;-0.034180;0.037109;1.036133;
707892;-0.034180;0.037109;1.036133;
708032;-0.034180;0.037109;1.034180;
708172;-0.035156;0.038086;1.036133;
708313;-0.034180;0.038086;1.035156;
708447;-0.033203;0.038086;1.036133;
708582;-0.034180;0.037109;1.036133;
708718;-0.034180;0.038086;1.036133;
708848;-0.033203;0.038086;1.035156;
708998;-0.033203;0.037109;1.036133;
709139;-0.034180;0.037109;1.036133;
709272;-0.034180;0.037109;1.037109;
709422;-0.033203;0.037109;1.036133;
709559;-0.033203;0.037109;1.035156;
709698;-0.034180;0.037109;1.036133;
709838;-0.033203;0.037109;1.036133;
709988;-0.033203;0.036133;1.035156;
710128;-0.033203;0.036133;1.036133;
710278;-0.033203;0.038086;1.037109;
710408;-0.034180;0.036133;1.036133;
710558;-0.035156;0.037109;1.036133;
710707;-0.034180;0.038086;1.036133;
710838;-0.034180;0.037109;1.036133;
710988;-0.034180;0.036133;1.036133;
711128;-0.034180;0.036133;1.035156;
711278;-0.036133;0.037109;1.037109;
711432;-0.033203;0.038086;1.035156;
711572;-0.034180;0.038086;1.034180;
711712;-0.034180;0.038086;1.038086;
711847;-0.035156;0.036133;1.035156;
711982;-0.034180;0.036133;1.035156;
712122;-0.033203;0.038086;1.035156;
712262;-0.033203;0.038086;1.036133;
712402;-0.034180;0.038086;1.037109;
712537;-0.034180;0.038086;1.036133;
712667;-0.033203;0.039062;1.036133;
712812;-0.034180;0.036133;1.035156;
712952;-0.035156;0.036133;1.037109;
713102;-0.033203;0.038086;1.037109;
713239;-0.034180;0.037109;1.035156;
713378;-0.033203;0.037109;1.036133;
713529;-0.035156;0.038086;1.036133;
713668;-0.033203;0.037109;1.037109;
713798;-0.034180;0.038086;1.035156;
713937;-0.033203;0.038086;1.036133;
714078;-0.033203;0.038086;1.036133;
714221;-0.034180;0.036133;1.034180;
714362;-0.033203;0.037109;1.037109;
714488;-0.034180;0.037109;1.036133;
714618;-0.035156;0.037109;1.036133;
714759;-0.034180;0.038086;1.035156;
714899;-0.034180;0.037109;1.036133;
715048;-0.035156;0.038086;1.036133;
715187;-0.034180;0.037109;1.035156;
715327;-0.033203;0.037109;1.038086;
715458;-0.034180;0.036133;1.036133;
715598;-0.035156;0.037109;1.038086;
715739;-0.034180;0.039062;1.036133;
715878;-0.035156;0.038086;1.037109;
716017;-0.033203;0.036133;1.036133;
716162;-0.033203;0.038086;1.035156;
716302;-0.034180;0.037109;1.038086;
716442;-0.034180;0.038086;1.035156;
716577;-0.035156;0.037109;1.037109;
716707;-0.036133;0.037109;1.036133;
716838;-0.034180;0.036133;1.035156;
716977;-0.034180;0.037109;1.036133;
717108;-0.034180;0.037109;1.037109;
717238;-0.033203;0.037109;1.036133;
717372;-0.033203;0.037109;1.035156;
717512;-0.034180;0.038086;1.035156;
717652;-0.032227;0.039062;1.037109;
717794;-0.034180;0.037109;1.037109;
717927;-0.033203;0.037109;1.036133;
718069;-0.032227;0.036133;1.036133;
718208;-0.034180;0.037109;1.037109;
718358;-0.033203;0.037109;1.035156;
718487;-0.032227;0.036133;1.035156;
718618;-0.034180;0.037109;1.037109;
718767;-0.034180;0.037109;1.037109;
718919;-0.034180;0.038086;1.037109;
719067;-0.034180;0.035156;1.035156;
719217;-0.034180;0.038086;1.034180;
719368;-0.034180;0.037109;1.037109;
719507;-0.034180;0.038086;1.037109;
719648;-0.035156;0.037109;1.036133;
719778;-0.034180;0.037109;1.036133;
719918;-0.034180;0.036133;1.036133;
720057;-0.034180;0.036133;1.038086;
720197;-0.035156;0.038086;1.037109;
720339;-0.033203;0.037109;1.035156;
720487;-0.034180;0.036133;1.035156;
720618;-0.035156;0.036133;1.037109;
720748;-0.034180;0.035156;1.035156;
720892;-0.033203;0.037109;1.035156;
721032;-0.035156;0.036133;1.037109;
721172;-0.035156;0.035156;1.037109;
721312;-0.034180;0.036133;1.035156;
721448;-0.033203;0.039062;1.034180;
721589;-0.035156;0.037109;1.035156;
721742;-0.034180;0.039062;1.035156;
721882;-0.035156;0.038086;1.035156;
722022;-0.034180;0.038086;1.037109;
722167;-0.034180;0.037109;1.035156;
722317;-0.034180;0.036133;1.036133;
722462;-0.034180;0.038086;1.037109;
722597;-0.033203;0.037109;1.036133;
722728;-0.034180;0.038086;1.036133;
722868;-0.034180;0.037109;1.038086;
723007;-0.033203;0.038086;1.037109;
723147;-0.034180;0.036133;1.035156;
723288;-0.035156;0.037109;1.037109;
723427;-0.034180;0.038086;1.037109;
723567;-0.032227;0.038086;1.036133;
723698;-0.034180;0.039062;1.036133;
723838;-0.033203;0.039062;1.035156;
723987;-0.034180;0.038086;1.035156;
724118;-0.034180;0.037109;1.037109;
724267;-0.034180;0.038086;1.038086;
724397;-0.033203;0.038086;1.037109;
724548;-0.034180;0.037109;1.035156;
724692;-0.034180;0.037109;1.036133;
724829;-0.034180;0.037109;1.035156;
724969;-0.034180;0.036133;1.036133;
725119;-0.033203;0.037109;1.035156;
725272;-0.034180;0.037109;1.037109;
725412;-0.034180;0.038086;1.037109;
725552;-0.034180;0.038086;1.036133;
725689;-0.034180;0.036133;1.036133;
725828;-0.035156;0.036133;1.036133;
725968;-0.033203;0.038086;1.037109;
726112;-0.035156;0.036133;1.035156;
726252;-0.032227;0.038086;1.037109;
726392;-0.033203;0.038086;1.036133;
726527;-0.034180;0.036133;1.036133;
726658;-0.033203;0.037109;1.038086;
726798;-0.033203;0.038086;1.037109;
726930;-0.034180;0.037109;1.035156;
727058;-0.034180;0.038086;1.037109;
727208;-0.034180;0.039062;1.038086;
727348;-0.034180;0.037109;1.036133;
727498;-0.033203;0.037109;1.036133;
727628;-0.033203;0.037109;1.037109;
727769;-0.033203;0.038086;1.036133;
727908;-0.033203;0.038086;1.036133;
728047;-0.033203;0.036133;1.036133;
728189;-0.033203;0.037109;1.035156;
728339;-0.034180;0.037109;1.037109;
728487;-0.033203;0.038086;1.036133;
728619;-0.035156;0.037109;1.036133;
728758;-0.034180;0.039062;1.037109;
728888;-0.035156;0.039062;1.037109;
729028;-0.033203;0.038086;1.037109;
729178;-0.033203;0.038086;1.037109;
729318;-0.032227;0.037109;1.036133;
729458;-0.034180;0.037109;1.035156;
729589;-0.033203;0.037109;1.037109;
729727;-0.034180;0.038086;1.037109;
729872;-0.034180;0.038086;1.036133;
730012;-0.033203;0.037109;1.037109;
730162;-0.035156;0.037109;1.037109;
730297;-0.036133;0.036133;1.035156;
730442;-0.034180;0.037109;1.038086;
730582;-0.034180;0.038086;1.036133;
730722;-0.033203;0.038086;1.036133;
730872;-0.033203;0.035156;1.036133;
731007;-0.034180;0.038086;1.036133;
731147;-0.035156;0.038086;1.036133;
731288;-0.035156;0.037109;1.037109;
731438;-0.033203;0.038086;1.037109;
731587;-0.032227;0.038086;1.035156;
731728;-0.034180;0.037109;1.035156;
731878;-0.034180;0.037109;1.038086;
732017;-0.035156;0.037109;1.036133;
732158;-0.033203;0.037109;1.036133;
732287;-0.033203;0.038086;1.038086;
732429;-0.033203;0.039062;1.036133;
732568;-0.033203;0.037109;1.035156;
732712;-0.036133;0.037109;1.037109;
732858;-0.035156;0.037109;1.037109;
732998;-0.034180;0.037109;1.035156;
733138;-0.032227;0.036133;1.038086;
733278;-0.034180;0.039062;1.037109;
733427;-0.033203;0.038086;1.037109;
733568;-0.034180;0.039062;1.039062;
733708;-0.033203;0.038086;1.037109;
733852;-0.033203;0.037109;1.037109;
733988;-0.033203;0.037109;1.037109;
734138;-0.034180;0.037109;1.037109;
734292;-0.033203;0.039062;1.037109;
734432;-0.034180;0.036133;1.035156;
734572;-0.033203;0.037109;1.036133;
734712;-0.034180;0.037109;1.036133;
734858;-0.034180;0.036133;1.036133;
734989;-0.033203;0.039062;1.038086;
735118;-0.034180;0.039062;1.035156;
735258;-0.035156;0.038086;1.035156;
735402;-0.034180;0.037109;1.037109;
735542;-0.034180;0.038086;1.035156;
735692;-0.032227;0.038086;1.037109;
735829;-0.034180;0.038086;1.036133;
735979;-0.034180;0.037109;1.036133;
736129;-0.034180;0.037109;1.037109;
736278;-0.034180;0.037109;1.037109;
736417;-0.033203;0.039062;1.034180;
736558;-0.032227;0.038086;1.035156;
736698;-0.035156;0.036133;1.038086;
736828;-0.036133;0.038086;1.037109;
736968;-0.033203;0.038086;1.038086;
737108;-0.035156;0.038086;1.036133;
737249;-0.033203;0.038086;1.035156;
737398;-0.033203;0.038086;1.038086;
737548;-0.034180;0.039062;1.035156;
737687;-0.034180;0.037109;1.035156;
737828;-0.035156;0.038086;1.037109;
737968;-0.033203;0.037109;1.037109;
738122;-0.033203;0.036133;1.036133;
738262;-0.033203;0.039062;1.038086;
738402;-0.033203;0.037109;1.036133;
738542;-0.034180;0.038086;1.036133;
738682;-0.034180;0.039062;1.036133;
738822;-0.033203;0.037109;1.036133;
738962;-0.034180;0.036133;1.035156;
739102;-0.034180;0.037109;1.037109;
739242;-0.034180;0.038086;1.037109;
739382;-0.035156;0.038086;1.034180;
739522;-0.035156;0.038086;1.037109;
739662;-0.035156;0.038086;1.037109;
739802;-0.034180;0.037109;1.036133;
739952;-0.032227;0.038086;1.038086;
740098;-0.034180;0.037109;1.036133;
740239;-0.034180;0.038086;1.036133;
740388;-0.034180;0.038086;1.037109;
740537;-0.034180;0.037109;1.036133;
740682;-0.035156;0.039062;1.037109;
740828;-0.034180;0.037109;1.036133;
740968;-0.033203;0.036133;1.036133;
741110;-0.033203;0.037109;1.037109;
741247;-0.033203;0.037109;1.036133;
741382;-0.033203;0.039062;1.036133;
741522;-0.035156;0.038086;1.036133;
741662;-0.033203;0.037109;1.036133;
741802;-0.034180;0.037109;1.038086;
741942;-0.034180;0.037109;1.037109;
742082;-0.033203;0.038086;1.034180;
742222;-0.035156;0.038086;1.036133;
742362;-0.035156;0.038086;1.036133;
742502;-0.033203;0.037109;1.035156;
742642;-0.034180;0.038086;1.036133;
742782;-0.034180;0.036133;1.036133;
742922;-0.035156;0.038086;1.036133;
743062;-0.034180;0.038086;1.036133;
743212;-0.034180;0.037109;1.035156;
743349;-0.034180;0.037109;1.037109;
743487;-0.034180;0.036133;1.037109;
743628;-0.034180;0.037109;1.037109;
743758;-0.033203;0.039062;1.036133;
743898;-0.033203;0.035156;1.039062;
744038;-0.035156;0.039062;1.034180;
744188;-0.034180;0.036133;1.036133;
744317;-0.034180;0.036133;1.036133;
744448;-0.034180;0.039062;1.034180;
744598;-0.034180;0.038086;1.037109;
744748;-0.034180;0.037109;1.037109;
744892;-0.034180;0.034180;1.036133;
745042;-0.034180;0.037109;1.036133;
745182;-0.035156;0.037109;1.036133;
745322;-0.033203;0.037109;1.036133;
745462;-0.033203;0.038086;1.036133;
745602;-0.034180;0.037109;1.037109;
745752;-0.034180;0.038086;1.037109;
745892;-0.035156;0.037109;1.036133;
746032;-0.033203;0.039062;1.037109;
746182;-0.035156;0.038086;1.037109;
746322;-0.034180;0.036133;1.036133;
746462;-0.033203;0.037109;1.036133;
746612;-0.033203;0.040039;1.037109;
746752;-0.035156;0.037109;1.036133;
746891;-0.034180;0.036133;1.038086;
747022;-0.035156;0.037109;1.037109;
747158;-0.034180;0.037109;1.036133;
747308;-0.033203;0.038086;1.036133;
747462;-0.035156;0.037109;1.036133;
747597;-0.034180;0.037109;1.038086;
747737;-0.033203;0.037109;1.035156;
747888;-0.034180;0.037109;1.035156;
748018;-0.034180;0.039062;1.036133;
748167;-0.034180;0.037109;1.037109;
748317;-0.033203;0.039062;1.036133;
748462;-0.034180;0.038086;1.035156;
748602;-0.032227;0.037109;1.037109;
748742;-0.034180;0.038086;1.035156;
748882;-0.035156;0.036133;1.035156;
749022;-0.034180;0.037109;1.034180;
749162;-0.034180;0.037109;1.036133;
749302;-0.032227;0.038086;1.036133;
749442;-0.035156;0.037109;1.037109;
749582;-0.034180;0.039062;1.037109;
749722;-0.033203;0.039062;1.034180;
749872;-0.035156;0.038086;1.037109;
750012;-0.034180;0.037109;1.035156;
750152;-0.033203;0.039062;1.038086;
750292;-0.035156;0.036133;1.037109;
750428;-0.034180;0.037109;1.037109;
750558;-0.035156;0.036133;1.035156;
750709;-0.033203;0.037109;1.035156;
750848;-0.034180;0.038086;1.038086;
750987;-0.032227;0.036133;1.036133;
751118;-0.034180;0.037109;1.037109;
751248;-0.033203;0.039062;1.036133;
751378;-0.034180;0.040039;1.035156;
751518;-0.033203;0.038086;1.037109;
751668;-0.035156;0.038086;1.038086;
751802;-0.033203;0.038086;1.036133;
751942;-0.035156;0.038086;1.034180;
752082;-0.033203;0.037109;1.037109;
752232;-0.035156;0.036133;1.036133;
752372;-0.033203;0.037109;1.037109;
752512;-0.034180;0.037109;1.036133;
752652;-0.034180;0.037109;1.035156;
752792;-0.035156;0.037109;1.037109;
752932;-0.034180;0.037109;1.039062;
753072;-0.033203;0.038086;1.037109;
753212;-0.033203;0.038086;1.036133;
753352;-0.033203;0.036133;1.035156;
753492;-0.034180;0.038086;1.036133;
753632;-0.034180;0.036133;1.037109;
753768;-0.033203;0.040039;1.039062;
753908;-0.033203;0.038086;1.036133;
754059;-0.034180;0.037109;1.036133;
754202;-0.032227;0.038086;1.037109;
754337;-0.034180;0.037109;1.036133;
754477;-0.034180;0.039062;1.037109;
754620;-0.034180;0.036133;1.035156;
754769;-0.033203;0.038086;1.036133;
754908;-0.034180;0.036133;1.036133;
755048;-0.034180;0.037109;1.037109;
755187;-0.034180;0.038086;1.036133;
755342;-0.033203;0.037109;1.037109;
755492;-0.035156;0.037109;1.036133;
755632;-0.034180;0.039062;1.036133;
755772;-0.034180;0.038086;1.038086;
755912;-0.035156;0.038086;1.037109;
756052;-0.033203;0.036133;1.035156;
756192;-0.034180;0.037109;1.036133;
756332;-0.034180;0.036133;1.037109;
756482;-0.034180;0.037109;1.037109;
756622;-0.033203;0.038086;1.037109;
756762;-0.035156;0.038086;1.035156;
756912;-0.034180;0.038086;1.035156;
757052;-0.034180;0.039062;1.038086;
757192;-0.034180;0.038086;1.037109;
757328;-0.035156;0.037109;1.035156;
757482;-0.033203;0.038086;1.037109;
757627;-0.033203;0.038086;1.035156;
757757;-0.033203;0.038086;1.038086;
757898;-0.032227;0.037109;1.037109;
758027;-0.033203;0.038086;1.037109;
758157;-0.035156;0.037109;1.036133;
758312;-0.033203;0.037109;1.036133;
758447;-0.034180;0.037109;1.037109;
758589;-0.034180;0.038086;1.035156;
758728;-0.034180;0.038086;1.036133;
758878;-0.035156;0.037109;1.037109;
759012;-0.035156;0.037109;1.038086;
759152;-0.033203;0.038086;1.036133;
759292;-0.034180;0.037109;1.036133;
759432;-0.033203;0.038086;1.036133;
759572;-0.034180;0.038086;1.035156;
759712;-0.034180;0.038086;1.037109;
759862;-0.034180;0.038086;1.036133;
760002;-0.034180;0.038086;1.036133;
760142;-0.035156;0.039062;1.037109;
760282;-0.033203;0.038086;1.036133;
760422;-0.033203;0.038086;1.034180;
760572;-0.034180;0.038086;1.036133;
760712;-0.034180;0.038086;1.038086;
760852;-0.035156;0.039062;1.037109;
760992;-0.034180;0.038086;1.037109;
761129;-0.035156;0.037109;1.034180;
761258;-0.034180;0.038086;1.036133;
761409;-0.034180;0.037109;1.035156;
761547;-0.034180;0.038086;1.037109;
761688;-0.034180;0.038086;1.038086;
761831;-0.033203;0.039062;1.036133;
761978;-0.034180;0.037109;1.036133;
762108;-0.034180;0.038086;1.036133;
762248;-0.033203;0.037109;1.036133;
762398;-0.034180;0.038086;1.038086;
762532;-0.034180;0.037109;1.034180;
762672;-0.033203;0.038086;1.034180;
762812;-0.035156;0.037109;1.037109;
762952;-0.033203;0.038086;1.035156;
763092;-0.033203;0.038086;1.037109;
763232;-0.035156;0.036133;1.036133;
763372;-0.034180;0.038086;1.034180;
763512;-0.034180;0.038086;1.037109;
763652;-0.034180;0.038086;1.036133;
763792;-0.033203;0.039062;1.036133;
763932;-0.034180;0.037109;1.036133;
764072;-0.034180;0.036133;1.036133;
764212;-0.034180;0.036133;1.036133;
764362;-0.033203;0.038086;1.037109;
764498;-0.033203;0.038086;1.035156;
764627;-0.035156;0.038086;1.035156;
764770;-0.034180;0.038086;1.037109;
764920;-0.034180;0.037109;1.036133;
765069;-0.032227;0.036133;1.036133;
765207;-0.035156;0.036133;1.037109;
765350;-0.033203;0.038086;1.036133;
765478;-0.034180;0.038086;1.035156;
765618;-0.035156;0.040039;1.038086;
765758;-0.035156;0.037109;1.036133;
765912;-0.033203;0.039062;1.037109;
766052;-0.033203;0.038086;1.037109;
766192;-0.033203;0.038086;1.035156;
766342;-0.033203;0.038086;1.034180;
766482;-0.034180;0.039062;1.037109;
766622;-0.034180;0.039062;1.036133;
766762;-0.034180;0.038086;1.036133;
766902;-0.034180;0.037109;1.036133;
767042;-0.035156;0.038086;1.037109;
767182;-0.034180;0.037109;1.035156;
767332;-0.033203;0.038086;1.035156;
767472;-0.035156;0.038086;1.035156;
767622;-0.034180;0.039062;1.038086;
767762;-0.034180;0.035156;1.036133;
767887;-0.034180;0.036133;1.036133;
768029;-0.034180;0.038086;1.036133;
768183;-0.033203;0.039062;1.037109;
768322;-0.035156;0.038086;1.036133;
768448;-0.034180;0.037109;1.037109;
768588;-0.034180;0.038086;1.037109;
768722;-0.034180;0.037109;1.036133;
768870;-0.034180;0.038086;1.037109;
769018;-0.033203;0.039062;1.037109;
769167;-0.034180;0.039062;1.037109;
769308;-0.034180;0.037109;1.036133;
769448;-0.033203;0.036133;1.036133;
769602;-0.033203;0.038086;1.037109;
769742;-0.034180;0.037109;1.037109;
769882;-0.033203;0.038086;1.037109;
770022;-0.033203;0.038086;1.035156;
770162;-0.034180;0.039062;1.038086;
770302;-0.033203;0.038086;1.037109;
770442;-0.034180;0.038086;1.036133;
770582;-0.033203;0.038086;1.039062;
770722;-0.033203;0.039062;1.035156;
770862;-0.034180;0.037109;1.037109;
771002;-0.034180;0.037109;1.035156;
771142;-0.033203;0.038086;1.035156;
771282;-0.034180;0.037109;1.037109;
771422;-0.034180;0.039062;1.037109;
771558;-0.034180;0.038086;1.036133;
771708;-0.033203;0.038086;1.038086;
771848;-0.035156;0.037109;1.034180;
771998;-0.035156;0.038086;1.037109;
772149;-0.034180;0.038086;1.037109;
772298;-0.035156;0.040039;1.038086;
772437;-0.033203;0.037109;1.034180;
772568;-0.035156;0.038086;1.036133;
772698;-0.035156;0.035156;1.036133;
772842;-0.032227;0.039062;1.035156;
772987;-0.034180;0.038086;1.037109;
773132;-0.034180;0.039062;1.035156;
773272;-0.033203;0.037109;1.037109;
773422;-0.033203;0.037109;1.037109;
773562;-0.032227;0.039062;1.034180;
773702;-0.035156;0.036133;1.037109;
773852;-0.035156;0.038086;1.036133;
773992;-0.033203;0.038086;1.034180;
774132;-0.033203;0.037109;1.036133;
774272;-0.034180;0.037109;1.037109;
774412;-0.032227;0.038086;1.036133;
774552;-0.034180;0.036133;1.036133;
774692;-0.035156;0.037109;1.037109;
774832;-0.032227;0.037109;1.036133;
774982;-0.034180;0.037109;1.036133;
775118;-0.034180;0.038086;1.038086;
775248;-0.034180;0.038086;1.034180;
775388;-0.034180;0.038086;1.038086;
775537;-0.034180;0.037109;1.037109;
775678;-0.033203;0.036133;1.036133;
775808;-0.033203;0.037109;1.038086;
775937;-0.033203;0.039062;1.034180;
776078;-0.032227;0.038086;1.036133;
776207;-0.034180;0.036133;1.036133;
776358;-0.033203;0.035156;1.037109;
776492;-0.034180;0.037109;1.035156;
776632;-0.034180;0.037109;1.037109;
776772;-0.033203;0.037109;1.036133;
776912;-0.033203;0.038086;1.036133;
777052;-0.033203;0.037109;1.037109;
777192;-0.034180;0.037109;1.036133;
777332;-0.035156;0.036133;1.035156;
777472;-0.035156;0.039062;1.036133;
777612;-0.034180;0.036133;1.037109;
777752;-0.034180;0.036133;1.035156;
777892;-0.034180;0.037109;1.036133;
778032;-0.035156;0.037109;1.035156;
778172;-0.034180;0.036133;1.034180;
778322;-0.033203;0.039062;1.038086;
778462;-0.034180;0.036133;1.036133;
778598;-0.034180;0.039062;1.035156;
778742;-0.034180;0.038086;1.037109;
778867;-0.032227;0.037109;1.037109;
779007;-0.034180;0.038086;1.037109;
779157;-0.033203;0.037109;1.035156;
779307;-0.035156;0.036133;1.036133;
779447;-0.033203;0.037109;1.035156;
779588;-0.034180;0.037109;1.036133;
779728;-0.034180;0.037109;1.036133;
779867;-0.033203;0.038086;1.037109;
780018;-0.034180;0.038086;1.034180;
780162;-0.033203;0.039062;1.037109;
780312;-0.033203;0.038086;1.037109;
780452;-0.034180;0.039062;1.036133;
780593;-0.034180;0.037109;1.035156;
780742;-0.033203;0.037109;1.035156;
780892;-0.034180;0.037109;1.037109;
781032;-0.033203;0.039062;1.036133;
781172;-0.034180;0.037109;1.037109;
781312;-0.034180;0.037109;1.037109;
781452;-0.034180;0.037109;1.036133;
781592;-0.034180;0.040039;1.037109;
781732;-0.034180;0.037109;1.037109;
781872;-0.033203;0.038086;1.037109;
782012;-0.035156;0.036133;1.035156;
782151;-0.035156;0.037109;1.035156;
782278;-0.034180;0.037109;1.038086;
782419;-0.035156;0.038086;1.036133;
782569;-0.035156;0.036133;1.037109;
782718;-0.035156;0.036133;1.036133;
782848;-0.034180;0.035156;1.036133;
782998;-0.033203;0.037109;1.033203;
783137;-0.035156;0.037109;1.036133;
783278;-0.034180;0.039062;1.037109;
783422;-0.034180;0.037109;1.034180;
783562;-0.034180;0.036133;1.037109;
783702;-0.034180;0.036133;1.037109;
783842;-0.033203;0.037109;1.036133;
783982;-0.035156;0.039062;1.036133;
784122;-0.034180;0.037109;1.036133;
784262;-0.035156;0.037109;1.034180;
784402;-0.034180;0.037109;1.038086;
784552;-0.032227;0.038086;1.038086;
784692;-0.033203;0.038086;1.036133;
784832;-0.034180;0.038086;1.037109;
784972;-0.033203;0.038086;1.036133;
785112;-0.034180;0.037109;1.036133;
785262;-0.033203;0.038086;1.037109;
785397;-0.034180;0.037109;1.036133;
785538;-0.034180;0.036133;1.039062;
785678;-0.034180;0.037109;1.037109;
785828;-0.034180;0.038086;1.037109;
785962;-0.033203;0.037109;1.037109;
786099;-0.032227;0.037109;1.036133;
786238;-0.034180;0.036133;1.036133;
786392;-0.033203;0.038086;1.037109;
786542;-0.034180;0.038086;1.036133;
786678;-0.032227;0.037109;1.034180;
786817;-0.034180;0.038086;1.037109;
786962;-0.033203;0.037109;1.036133;
787102;-0.034180;0.038086;1.037109;
787242;-0.034180;0.037109;1.037109;
787382;-0.034180;0.039062;1.037109;
787522;-0.034180;0.038086;1.034180;
787662;-0.034180;0.037109;1.036133;
787802;-0.033203;0.037109;1.037109;
787942;-0.034180;0.039062;1.036133;
788082;-0.034180;0.039062;1.037109;
788222;-0.034180;0.037109;1.035156;
788362;-0.035156;0.037109;1.037109;
788502;-0.034180;0.036133;1.035156;
788652;-0.034180;0.038086;1.038086;
788792;-0.034180;0.037109;1.037109;
788927;-0.034180;0.035156;1.035156;
789078;-0.034180;0.036133;1.036133;
789228;-0.033203;0.039062;1.037109;
789367;-0.034180;0.037109;1.034180;
789517;-0.034180;0.037109;1.035156;
789657;-0.033203;0.038086;1.036133;
789798;-0.032227;0.036133;1.037109;
789927;-0.034180;0.037109;1.036133;
790067;-0.033203;0.037109;1.035156;
790202;-0.035156;0.038086;1.037109;
790352;-0.034180;0.038086;1.037109;
790492;-0.036133;0.036133;1.035156;
790632;-0.034180;0.036133;1.037109;
790772;-0.034180;0.038086;1.035156;
790912;-0.034180;0.037109;1.038086;
791052;-0.033203;0.037109;1.037109;
791192;-0.034180;0.037109;1.036133;
791332;-0.033203;0.038086;1.035156;
791472;-0.034180;0.038086;1.036133;
791612;-0.033203;0.037109;1.037109;
791762;-0.035156;0.036133;1.036133;
791902;-0.034180;0.036133;1.035156;
792042;-0.034180;0.038086;1.036133;
792178;-0.034180;0.038086;1.036133;
792308;-0.032227;0.037109;1.036133;
792452;-0.035156;0.037109;1.037109;
792597;-0.033203;0.036133;1.036133;
792747;-0.033203;0.038086;1.037109;
792882;-0.033203;0.038086;1.036133;
793017;-0.033203;0.038086;1.037109;
793148;-0.033203;0.037109;1.035156;
793298;-0.034180;0.037109;1.037109;
793438;-0.036133;0.037109;1.038086;
793579;-0.034180;0.039062;1.036133;
793718;-0.035156;0.038086;1.036133;
793872;-0.034180;0.038086;1.035156;
794012;-0.034180;0.037109;1.037109;
794152;-0.035156;0.038086;1.037109;
794292;-0.033203;0.037109;1.038086;
794432;-0.035156;0.037109;1.037109;
794582;-0.035156;0.038086;1.037109;
794722;-0.035156;0.036133;1.037109;
794862;-0.032227;0.039062;1.035156;
795012;-0.033203;0.039062;1.037109;
795152;-0.033203;0.038086;1.037109;
795292;-0.034180;0.036133;1.037109;
795442;-0.033203;0.038086;1.036133;
795582;-0.033203;0.037109;1.035156;
795722;-0.033203;0.036133;1.036133;
795859;-0.035156;0.037109;1.037109;
796012;-0.033203;0.038086;1.036133;
796152;-0.033203;0.038086;1.036133;
796292;-0.033203;0.038086;1.037109;
796428;-0.033203;0.040039;1.038086;
796568;-0.034180;0.038086;1.036133;
796698;-0.033203;0.037109;1.037109;
796827;-0.035156;0.037109;1.036133;
796958;-0.034180;0.037109;1.037109;
797097;-0.035156;0.037109;1.035156;
797248;-0.034180;0.037109;1.038086;
797398;-0.034180;0.039062;1.036133;
797538;-0.034180;0.037109;1.035156;
797688;-0.034180;0.038086;1.037109;
797832;-0.034180;0.038086;1.037109;
797972;-0.034180;0.038086;1.038086;
798112;-0.034180;0.038086;1.036133;
798252;-0.034180;0.037109;1.037109;
798392;-0.033203;0.036133;1.036133;
798532;-0.033203;0.038086;1.035156;
798672;-0.035156;0.038086;1.038086;
798812;-0.034180;0.037109;1.036133;
798952;-0.034180;0.038086;1.037109;
799092;-0.034180;0.039062;1.036133;
799232;-0.034180;0.037109;1.038086;
799372;-0.035156;0.037109;1.036133;
799512;-0.033203;0.037109;1.035156;
799652;-0.033203;0.038086;1.036133;
799792;-0.035156;0.038086;1.038086;
799928;-0.035156;0.037109;1.037109;
800068;-0.033203;0.038086;1.036133;
800198;-0.034180;0.037109;1.037109;
800338;-0.034180;0.036133;1.034180;
800468;-0.034180;0.038086;1.037109;
800608;-0.035156;0.038086;1.038086;
800748;-0.033203;0.038086;1.036133;
800897;-0.034180;0.038086;1.036133;
801027;-0.034180;0.038086;1.035156;
801168;-0.034180;0.039062;1.035156;
801308;-0.035156;0.037109;1.037109;
801452;-0.033203;0.037109;1.038086;
801592;-0.032227;0.039062;1.036133;
801742;-0.035156;0.040039;1.038086;
801882;-0.033203;0.038086;1.036133;
802022;-0.034180;0.037109;1.036133;
802162;-0.035156;0.038086;1.037109;
802302;-0.033203;0.038086;1.035156;
802442;-0.033203;0.037109;1.034180;
802582;-0.035156;0.037109;1.037109;
802722;-0.034180;0.038086;1.036133;
802862;-0.034180;0.037109;1.036133;
803012;-0.033203;0.037109;1.037109;
803152;-0.033203;0.039062;1.037109;
803292;-0.034180;0.037109;1.037109;
803419;-0.033203;0.038086;1.037109;
803558;-0.034180;0.038086;1.037109;
803688;-0.033203;0.037109;1.036133;
803837;-0.034180;0.038086;1.038086;
803977;-0.034180;0.038086;1.035156;
804108;-0.033203;0.038086;1.036133;
804237;-0.033203;0.039062;1.037109;
804377;-0.034180;0.037109;1.036133;
804522;-0.036133;0.037109;1.038086;
804658;-0.035156;0.037109;1.037109;
804802;-0.034180;0.037109;1.036133;
804942;-0.034180;0.038086;1.038086;
805082;-0.034180;0.037109;1.038086;
805222;-0.034180;0.039062;1.036133;
805362;-0.034180;0.038086;1.035156;
805512;-0.034180;0.037109;1.036133;
805652;-0.034180;0.035156;1.036133;
805792;-0.032227;0.038086;1.036133;
805932;-0.034180;0.039062;1.036133;
806072;-0.035156;0.038086;1.036133;
806212;-0.035156;0.038086;1.037109;
806352;-0.035156;0.037109;1.037109;
806492;-0.035156;0.037109;1.037109;
806632;-0.035156;0.037109;1.036133;
806768;-0.034180;0.037109;1.036133;
806918;-0.034180;0.037109;1.035156;
807068;-0.035156;0.037109;1.037109;
807217;-0.034180;0.038086;1.036133;
807348;-0.033203;0.038086;1.034180;
807500;-0.034180;0.037109;1.037109;
807648;-0.034180;0.039062;1.036133;
807777;-0.033203;0.038086;1.035156;
807922;-0.032227;0.038086;1.036133;
808062;-0.034180;0.037109;1.035156;
808202;-0.033203;0.038086;1.037109;
808342;-0.032227;0.037109;1.036133;
808482;-0.034180;0.038086;1.038086;
808622;-0.033203;0.038086;1.036133;
808762;-0.034180;0.039062;1.037109;
808902;-0.033203;0.038086;1.036133;
809042;-0.034180;0.036133;1.037109;
809182;-0.035156;0.035156;1.037109;
809322;-0.035156;0.037109;1.038086;
809462;-0.033203;0.038086;1.037109;
809602;-0.033203;0.038086;1.036133;
809742;-0.034180;0.036133;1.036133;
809881;-0.033203;0.037109;1.037109;
810018;-0.036133;0.038086;1.037109;
810148;-0.034180;0.037109;1.034180;
810287;-0.035156;0.037109;1.037109;
810432;-0.034180;0.037109;1.037109;
810570;-0.034180;0.039062;1.036133;
810703;-0.034180;0.039062;1.036133;
810837;-0.034180;0.037109;1.036133;
810977;-0.033203;0.039062;1.037109;
811130;-0.034180;0.037109;1.037109;
811279;-0.034180;0.037109;1.036133;
811432;-0.034180;0.037109;1.035156;
811572;-0.034180;0.039062;1.036133;
811712;-0.034180;0.037109;1.036133;
811852;-0.034180;0.039062;1.037109;
812002;-0.033203;0.037109;1.038086;
812142;-0.034180;0.036133;1.035156;
812282;-0.033203;0.037109;1.035156;
812422;-0.034180;0.038086;1.035156;
812562;-0.035156;0.039062;1.039062;
812702;-0.033203;0.038086;1.037109;
812842;-0.033203;0.038086;1.037109;
812982;-0.034180;0.038086;1.035156;
813122;-0.033203;0.038086;1.036133;
813272;-0.033203;0.037109;1.037109;
813408;-0.035156;0.038086;1.036133;
813548;-0.034180;0.037109;1.036133;
813692;-0.034180;0.037109;1.035156;
813832;-0.035156;0.037109;1.037109;
813978;-0.035156;0.037109;1.035156;
814117;-0.034180;0.038086;1.036133;
814248;-0.034180;0.038086;1.037109;
814388;-0.034180;0.038086;1.036133;
814519;-0.034180;0.037109;1.036133;
814658;-0.034180;0.036133;1.037109;
814797;-0.035156;0.037109;1.036133;
814938;-0.033203;0.037109;1.034180;
815092;-0.034180;0.038086;1.035156;
815232;-0.035156;0.037109;1.036133;
815372;-0.034180;0.037109;1.035156;
815522;-0.034180;0.037109;1.036133;
815662;-0.033203;0.039062;1.037109;
815802;-0.033203;0.037109;1.036133;
815942;-0.034180;0.038086;1.038086;
816082;-0.034180;0.037109;1.035156;
816222;-0.033203;0.038086;1.037109;
816372;-0.033203;0.038086;1.035156;
816512;-0.035156;0.039062;1.036133;
816652;-0.033203;0.036133;1.037109;
816792;-0.034180;0.037109;1.036133;
816932;-0.032227;0.038086;1.036133;
817082;-0.035156;0.038086;1.038086;
817222;-0.035156;0.036133;1.037109;
817348;-0.034180;0.038086;1.036133;
817489;-0.034180;0.037109;1.036133;
817637;-0.034180;0.037109;1.037109;
817768;-0.035156;0.038086;1.036133;
817898;-0.035156;0.039062;1.037109;
818037;-0.033203;0.037109;1.035156;
818168;-0.034180;0.037109;1.037109;
818307;-0.035156;0.037109;1.035156;
818448;-0.034180;0.037109;1.035156;
818587;-0.033203;0.037109;1.036133;
818722;-0.035156;0.037109;1.037109;
818862;-0.033203;0.036133;1.037109;
819002;-0.035156;0.036133;1.035156;
819142;-0.034180;0.036133;1.036133;
819282;-0.034180;0.038086;1.037109;
819432;-0.034180;0.039062;1.037109;
819572;-0.033203;0.039062;1.037109;
819712;-0.033203;0.038086;1.036133;
819862;-0.034180;0.037109;1.037109;
820002;-0.033203;0.037109;1.036133;
820142;-0.034180;0.037109;1.035156;
820282;-0.035156;0.038086;1.036133;
820422;-0.033203;0.037109;1.035156;
820562;-0.033203;0.039062;1.035156;
820702;-0.035156;0.038086;1.036133;
820842;-0.034180;0.037109;1.036133;
820977;-0.034180;0.038086;1.035156;
821117;-0.033203;0.038086;1.037109;
821268;-0.033203;0.038086;1.036133;
821407;-0.034180;0.039062;1.036133;
821548;-0.034180;0.038086;1.035156;
821697;-0.033203;0.037109;1.035156;
821848;-0.035156;0.037109;1.037109;
821987;-0.033203;0.037109;1.036133;
822130;-0.033203;0.037109;1.035156;
822268;-0.034180;0.037109;1.037109;
822412;-0.033203;0.038086;1.036133;
822562;-0.034180;0.038086;1.037109;
822702;-0.034180;0.038086;1.037109;
822842;-0.032227;0.036133;1.037109;
822982;-0.034180;0.038086;1.037109;
823122;-0.034180;0.038086;1.037109;
823262;-0.035156;0.037109;1.037109;
823402;-0.034180;0.036133;1.036133;
823542;-0.034180;0.038086;1.036133;
823682;-0.035156;0.036133;1.036133;
823822;-0.033203;0.039062;1.035156;
823962;-0.034180;0.039062;1.037109;
824102;-0.034180;0.036133;1.036133;
824242;-0.035156;0.039062;1.037109;
824367;-0.034180;0.036133;1.036133;
824507;-0.033203;0.036133;1.034180;
824638;-0.034180;0.037109;1.036133;
824787;-0.034180;0.037109;1.035156;
824928;-0.034180;0.039062;1.037109;
825077;-0.034180;0.037109;1.034180;
825231;-0.034180;0.036133;1.037109;
825358;-0.034180;0.037109;1.036133;
825500;-0.033203;0.038086;1.036133;
825629;-0.034180;0.035156;1.037109;
825768;-0.032227;0.038086;1.035156;
825922;-0.034180;0.037109;1.037109;
826062;-0.033203;0.037109;1.036133;
826202;-0.034180;0.037109;1.038086;
826342;-0.032227;0.038086;1.037109;
826482;-0.033203;0.038086;1.036133;
826622;-0.034180;0.037109;1.038086;
826762;-0.033203;0.039062;1.035156;
826902;-0.034180;0.036133;1.038086;
827042;-0.033203;0.038086;1.035156;
827182;-0.035156;0.037109;1.035156;
827332;-0.033203;0.037109;1.037109;
827472;-0.034180;0.038086;1.038086;
827612;-0.032227;0.040039;1.036133;
827752;-0.034180;0.037109;1.037109;
827887;-0.034180;0.036133;1.035156;
828038;-0.034180;0.039062;1.037109;
828178;-0.034180;0.037109;1.036133;
828327;-0.033203;0.038086;1.035156;
828478;-0.034180;0.037109;1.037109;
828612;-0.032227;0.037109;1.038086;
828752;-0.034180;0.036133;1.036133;
828887;-0.032227;0.037109;1.035156;
829032;-0.034180;0.037109;1.038086;
829178;-0.034180;0.038086;1.035156;
829328;-0.033203;0.039062;1.037109;
829467;-0.033203;0.036133;1.035156;
829612;-0.033203;0.038086;1.037109;
829752;-0.033203;0.039062;1.036133;
829892;-0.035156;0.037109;1.036133;
830032;-0.035156;0.037109;1.035156;
830172;-0.034180;0.038086;1.038086;
830312;-0.033203;0.037109;1.038086;
830452;-0.034180;0.038086;1.036133;
830602;-0.035156;0.038086;1.036133;
830742;-0.034180;0.037109;1.035156;
830882;-0.034180;0.038086;1.037109;
831032;-0.033203;0.037109;1.037109;
831172;-0.035156;0.038086;1.037109;
831312;-0.033203;0.037109;1.036133;
831452;-0.034180;0.039062;1.036133;
831592;-0.035156;0.037109;1.037109;
831742;-0.033203;0.038086;1.037109;
831878;-0.034180;0.037109;1.036133;
832007;-0.033203;0.037109;1.036133;
832149;-0.033203;0.037109;1.036133;
832288;-0.035156;0.038086;1.037109;
832437;-0.034180;0.038086;1.036133;
832589;-0.034180;0.039062;1.036133;
832728;-0.033203;0.038086;1.036133;
832867;-0.034180;0.037109;1.036133;
833002;-0.034180;0.036133;1.036133;
833152;-0.035156;0.038086;1.036133;
833292;-0.034180;0.038086;1.037109;
833432;-0.034180;0.038086;1.035156;
833582;-0.035156;0.037109;1.037109;
833722;-0.033203;0.037109;1.035156;
833872;-0.034180;0.037109;1.036133;
834012;-0.034180;0.037109;1.037109;
834152;-0.036133;0.036133;1.036133;
834302;-0.034180;0.037109;1.036133;
834442;-0.034180;0.038086;1.037109;
834582;-0.032227;0.038086;1.035156;
834732;-0.032227;0.039062;1.036133;
834872;-0.033203;0.037109;1.035156;
835019;-0.034180;0.038086;1.037109;
835168;-0.035156;0.036133;1.037109;
835308;-0.032227;0.037109;1.036133;
835448;-0.034180;0.039062;1.037109;
835587;-0.033203;0.039062;1.038086;
835738;-0.033203;0.039062;1.036133;
835878;-0.034180;0.038086;1.037109;
836019;-0.034180;0.037109;1.036133;
836172;-0.033203;0.036133;1.036133;
836308;-0.033203;0.039062;1.036133;
836439;-0.033203;0.037109;1.037109;
836572;-0.032227;0.037109;1.036133;
836722;-0.033203;0.037109;1.036133;
836862;-0.033203;0.036133;1.036133;
837002;-0.034180;0.037109;1.035156;
837142;-0.035156;0.037109;1.036133;
837282;-0.034180;0.038086;1.036133;
837432;-0.033203;0.036133;1.036133;
837572;-0.035156;0.037109;1.037109;
837712;-0.035156;0.038086;1.038086;
