Time;acc_x;acc_y;acc_z;

482960;-0.034180;0.039062;1.040039;
483184;-0.035156;0.038086;1.039062;
483334;-0.034180;0.038086;1.038086;
483474;-0.034180;0.040039;1.040039;
483614;-0.035156;0.039062;1.040039;
483754;-0.032227;0.040039;1.041016;
483894;-0.035156;0.038086;1.040039;
484034;-0.034180;0.039062;1.039062;
484174;-0.034180;0.038086;1.040039;
484314;-0.034180;0.038086;1.038086;
484454;-0.034180;0.039062;1.039062;
484594;-0.034180;0.039062;1.038086;
484734;-0.034180;0.039062;1.039062;
484874;-0.035156;0.038086;1.039062;
485014;-0.033203;0.039062;1.040039;
485154;-0.036133;0.040039;1.039062;
485294;-0.035156;0.039062;1.039062;
485434;-0.034180;0.040039;1.040039;
485559;-0.034180;0.040039;1.037109;
485699;-0.033203;0.039062;1.040039;
485841;-0.035156;0.039062;1.040039;
485989;-0.034180;0.039062;1.040039;
486130;-0.035156;0.038086;1.039062;
486279;-0.035156;0.038086;1.039062;
486419;-0.033203;0.039062;1.040039;
486549;-0.034180;0.040039;1.040039;
486680;-0.035156;0.039062;1.039062;
486829;-0.034180;0.039062;1.040039;
486969;-0.036133;0.039062;1.038086;
487119;-0.033203;0.039062;1.039062;
487260;-0.034180;0.036133;1.039062;
487410;-0.034180;0.037109;1.039062;
487559;-0.033203;0.040039;1.040039;
487714;-0.033203;0.040039;1.039062;
487854;-0.035156;0.039062;1.039062;
487994;-0.033203;0.041016;1.040039;
488130;-0.035156;0.038086;1.039062;
488269;-0.034180;0.039062;1.039062;
488424;-0.034180;0.037109;1.038086;
488564;-0.034180;0.038086;1.039062;
488704;-0.034180;0.039062;1.040039;
488829;-0.034180;0.041016;1.039062;
488979;-0.034180;0.040039;1.038086;
489119;-0.033203;0.039062;1.039062;
489260;-0.035156;0.037109;1.039062;
489399;-0.034180;0.039062;1.038086;
489549;-0.034180;0.039062;1.038086;
489689;-0.035156;0.037109;1.040039;
489834;-0.035156;0.039062;1.039062;
489970;-0.033203;0.039062;1.038086;
490109;-0.033203;0.039062;1.040039;
490239;-0.034180;0.039062;1.039062;
490380;-0.034180;0.038086;1.038086;
490529;-0.036133;0.039062;1.039062;
490669;-0.035156;0.037109;1.040039;
490819;-0.035156;0.040039;1.040039;
490959;-0.034180;0.038086;1.040039;
491104;-0.034180;0.039062;1.039062;
491242;-0.034180;0.038086;1.041992;
491384;-0.035156;0.039062;1.039062;
491524;-0.034180;0.039062;1.040039;
491664;-0.034180;0.039062;1.040039;
491814;-0.035156;0.038086;1.039062;
491939;-0.035156;0.037109;1.040039;
492080;-0.034180;0.037109;1.038086;
492214;-0.034180;0.038086;1.038086;
492354;-0.034180;0.040039;1.040039;
492494;-0.033203;0.038086;1.039062;
492634;-0.035156;0.038086;1.039062;
492759;-0.035156;0.039062;1.039062;
492890;-0.036133;0.038086;1.039062;
493039;-0.034180;0.040039;1.040039;
493179;-0.034180;0.038086;1.038086;
493330;-0.033203;0.038086;1.040039;
493469;-0.035156;0.038086;1.039062;
493609;-0.034180;0.039062;1.039062;
493759;-0.034180;0.039062;1.040039;
493904;-0.034180;0.039062;1.037109;
494044;-0.034180;0.040039;1.039062;
494179;-0.036133;0.038086;1.039062;
494329;-0.034180;0.039062;1.040039;
494479;-0.033203;0.039062;1.039062;
494629;-0.036133;0.038086;1.039062;
494770;-0.035156;0.039062;1.040039;
494919;-0.033203;0.040039;1.039062;
495060;-0.034180;0.039062;1.041016;
495191;-0.034180;0.039062;1.040039;
495332;-0.033203;0.037109;1.039062;
495479;-0.034180;0.039062;1.040039;
495619;-0.035156;0.038086;1.039062;
495759;-0.034180;0.038086;1.038086;
495914;-0.034180;0.039062;1.040039;
496054;-0.035156;0.038086;1.039062;
496194;-0.034180;0.038086;1.039062;
496334;-0.033203;0.039062;1.040039;
496459;-0.033203;0.037109;1.040039;
496604;-0.035156;0.040039;1.038086;
496744;-0.033203;0.040039;1.038086;
496884;-0.035156;0.037109;1.039062;
497024;-0.034180;0.039062;1.039062;
497169;-0.033203;0.038086;1.041016;
497310;-0.033203;0.038086;1.040039;
497449;-0.034180;0.039062;1.038086;
497591;-0.034180;0.040039;1.039062;
497739;-0.034180;0.038086;1.039062;
497879;-0.033203;0.040039;1.041992;
498009;-0.033203;0.038086;1.039062;
498139;-0.034180;0.040039;1.039062;
498269;-0.034180;0.038086;1.039062;
498409;-0.036133;0.037109;1.038086;
498539;-0.034180;0.039062;1.039062;
498670;-0.036133;0.038086;1.038086;
498810;-0.034180;0.039062;1.039062;
498959;-0.034180;0.039062;1.037109;
499089;-0.034180;0.040039;1.039062;
499244;-0.035156;0.037109;1.038086;
499379;-0.033203;0.039062;1.039062;
499534;-0.035156;0.038086;1.039062;
499684;-0.034180;0.038086;1.040039;
499824;-0.035156;0.038086;1.040039;
499959;-0.033203;0.040039;1.040039;
500104;-0.035156;0.038086;1.039062;
500239;-0.033203;0.041016;1.039062;
500380;-0.034180;0.038086;1.039062;
500534;-0.034180;0.038086;1.039062;
500674;-0.035156;0.038086;1.039062;
500814;-0.034180;0.039062;1.039062;
500954;-0.034180;0.038086;1.039062;
501089;-0.033203;0.038086;1.039062;
501239;-0.033203;0.038086;1.039062;
501379;-0.034180;0.040039;1.039062;
501520;-0.035156;0.039062;1.038086;
501650;-0.034180;0.038086;1.040039;
501790;-0.035156;0.038086;1.041016;
501919;-0.035156;0.039062;1.038086;
502050;-0.035156;0.038086;1.040039;
502200;-0.034180;0.039062;1.039062;
502352;-0.035156;0.039062;1.038086;
502499;-0.034180;0.040039;1.040039;
502649;-0.035156;0.038086;1.038086;
502789;-0.034180;0.038086;1.038086;
502939;-0.035156;0.039062;1.041016;
503079;-0.034180;0.038086;1.038086;
503220;-0.034180;0.038086;1.041016;
503371;-0.035156;0.039062;1.040039;
503519;-0.035156;0.038086;1.040039;
503669;-0.035156;0.039062;1.039062;
503810;-0.035156;0.038086;1.039062;
503949;-0.035156;0.037109;1.040039;
504089;-0.034180;0.039062;1.039062;
504229;-0.034180;0.038086;1.040039;
504364;-0.034180;0.039062;1.040039;
504504;-0.033203;0.040039;1.041016;
504654;-0.035156;0.038086;1.038086;
504794;-0.033203;0.039062;1.039062;
504934;-0.033203;0.039062;1.039062;
505074;-0.035156;0.037109;1.037109;
505214;-0.034180;0.039062;1.041992;
505364;-0.034180;0.038086;1.041992;
505504;-0.034180;0.037109;1.040039;
505644;-0.033203;0.039062;1.039062;
505784;-0.034180;0.040039;1.040039;
505924;-0.034180;0.037109;1.038086;
506064;-0.034180;0.039062;1.039062;
506214;-0.033203;0.039062;1.038086;
506354;-0.035156;0.037109;1.040039;
506480;-0.033203;0.040039;1.040039;
506620;-0.033203;0.039062;1.040039;
506749;-0.034180;0.038086;1.039062;
506890;-0.035156;0.038086;1.039062;
507019;-0.034180;0.039062;1.040039;
507161;-0.035156;0.039062;1.038086;
507299;-0.034180;0.037109;1.040039;
507429;-0.032227;0.039062;1.040039;
507559;-0.035156;0.038086;1.038086;
507699;-0.034180;0.040039;1.040039;
507839;-0.034180;0.039062;1.040039;
507981;-0.035156;0.037109;1.039062;
508109;-0.034180;0.038086;1.039062;
508254;-0.033203;0.038086;1.039062;
508394;-0.034180;0.039062;1.038086;
508534;-0.034180;0.039062;1.040039;
508674;-0.035156;0.040039;1.039062;
508814;-0.035156;0.038086;1.038086;
508954;-0.034180;0.038086;1.039062;
509094;-0.033203;0.038086;1.040039;
509234;-0.034180;0.037109;1.039062;
509374;-0.035156;0.039062;1.041016;
509514;-0.035156;0.040039;1.040039;
509664;-0.034180;0.038086;1.038086;
509804;-0.032227;0.039062;1.039062;
509944;-0.034180;0.039062;1.040039;
510084;-0.034180;0.038086;1.038086;
510219;-0.034180;0.038086;1.040039;
510359;-0.034180;0.038086;1.040039;
510511;-0.035156;0.039062;1.040039;
510661;-0.035156;0.039062;1.040039;
510812;-0.034180;0.039062;1.039062;
510959;-0.033203;0.039062;1.039062;
511089;-0.035156;0.037109;1.039062;
511240;-0.035156;0.039062;1.039062;
511384;-0.035156;0.039062;1.040039;
511524;-0.034180;0.039062;1.040039;
511664;-0.035156;0.038086;1.039062;
511804;-0.034180;0.040039;1.039062;
511944;-0.034180;0.039062;1.041016;
512084;-0.033203;0.040039;1.040039;
512224;-0.034180;0.040039;1.040039;
512364;-0.034180;0.039062;1.039062;
512504;-0.033203;0.039062;1.041016;
512644;-0.033203;0.038086;1.038086;
512784;-0.033203;0.039062;1.041016;
512934;-0.035156;0.040039;1.040039;
513074;-0.034180;0.039062;1.039062;
513214;-0.034180;0.039062;1.041016;
513364;-0.035156;0.037109;1.039062;
513499;-0.034180;0.040039;1.039062;
513639;-0.035156;0.036133;1.040039;
513791;-0.034180;0.039062;1.041016;
513939;-0.034180;0.040039;1.040039;
514079;-0.035156;0.039062;1.039062;
514221;-0.034180;0.040039;1.040039;
514360;-0.033203;0.039062;1.038086;
514493;-0.033203;0.040039;1.039062;
514639;-0.034180;0.039062;1.041016;
514779;-0.034180;0.038086;1.040039;
514914;-0.036133;0.038086;1.039062;
515054;-0.035156;0.039062;1.039062;
515194;-0.034180;0.038086;1.039062;
515334;-0.034180;0.037109;1.040039;
515474;-0.034180;0.038086;1.038086;
515614;-0.034180;0.039062;1.038086;
515754;-0.034180;0.039062;1.040039;
515894;-0.034180;0.039062;1.038086;
516034;-0.034180;0.040039;1.040039;
516174;-0.035156;0.039062;1.038086;
516314;-0.033203;0.039062;1.039062;
516454;-0.035156;0.038086;1.040039;
516594;-0.034180;0.040039;1.040039;
516734;-0.035156;0.038086;1.040039;
516869;-0.034180;0.039062;1.040039;
517019;-0.034180;0.038086;1.039062;
517159;-0.034180;0.038086;1.040039;
517310;-0.035156;0.038086;1.040039;
517449;-0.034180;0.039062;1.039062;
517579;-0.033203;0.039062;1.039062;
517710;-0.034180;0.040039;1.038086;
517839;-0.033203;0.038086;1.039062;
517969;-0.035156;0.040039;1.040039;
518099;-0.035156;0.037109;1.039062;
518239;-0.034180;0.040039;1.040039;
518374;-0.034180;0.038086;1.039062;
518514;-0.033203;0.040039;1.040039;
518654;-0.034180;0.039062;1.039062;
518794;-0.034180;0.038086;1.039062;
518934;-0.035156;0.038086;1.039062;
519074;-0.033203;0.039062;1.039062;
519224;-0.034180;0.038086;1.038086;
519364;-0.035156;0.039062;1.040039;
519504;-0.035156;0.039062;1.039062;
519654;-0.034180;0.038086;1.038086;
519794;-0.034180;0.039062;1.039062;
519934;-0.034180;0.040039;1.039062;
520084;-0.036133;0.039062;1.038086;
520224;-0.034180;0.039062;1.041016;
520359;-0.035156;0.037109;1.039062;
520504;-0.034180;0.039062;1.040039;
520644;-0.033203;0.038086;1.040039;
520769;-0.035156;0.040039;1.039062;
520920;-0.034180;0.039062;1.039062;
521049;-0.036133;0.038086;1.039062;
521190;-0.033203;0.040039;1.039062;
521330;-0.034180;0.038086;1.039062;
521479;-0.035156;0.039062;1.038086;
521609;-0.033203;0.039062;1.040039;
521759;-0.035156;0.038086;1.040039;
521899;-0.034180;0.040039;1.040039;
522030;-0.033203;0.039062;1.039062;
522174;-0.035156;0.038086;1.038086;
522324;-0.035156;0.039062;1.041016;
522464;-0.034180;0.037109;1.039062;
522604;-0.034180;0.040039;1.040039;
522744;-0.034180;0.038086;1.039062;
522884;-0.033203;0.040039;1.040039;
523034;-0.035156;0.039062;1.041016;
523174;-0.034180;0.039062;1.040039;
523314;-0.034180;0.039062;1.038086;
523464;-0.034180;0.039062;1.040039;
523604;-0.034180;0.039062;1.039062;
523744;-0.035156;0.041016;1.040039;
523884;-0.034180;0.039062;1.039062;
524024;-0.034180;0.039062;1.040039;
524159;-0.035156;0.039062;1.039062;
524309;-0.034180;0.040039;1.039062;
524440;-0.035156;0.038086;1.039062;
524589;-0.035156;0.039062;1.040039;
524740;-0.034180;0.039062;1.037109;
524879;-0.035156;0.040039;1.041016;
525029;-0.035156;0.038086;1.040039;
525179;-0.034180;0.040039;1.040039;
525310;-0.034180;0.038086;1.038086;
525440;-0.035156;0.039062;1.039062;
525584;-0.034180;0.038086;1.039062;
525724;-0.034180;0.036133;1.039062;
525864;-0.035156;0.039062;1.040039;
526014;-0.034180;0.038086;1.038086;
526154;-0.033203;0.040039;1.040039;
526294;-0.035156;0.040039;1.040039;
526444;-0.034180;0.038086;1.039062;
526584;-0.033203;0.039062;1.039062;
526724;-0.034180;0.038086;1.038086;
526864;-0.034180;0.039062;1.039062;
527004;-0.035156;0.038086;1.040039;
527144;-0.035156;0.038086;1.040039;
527284;-0.034180;0.040039;1.039062;
527424;-0.035156;0.036133;1.039062;
527569;-0.035156;0.039062;1.040039;
527710;-0.034180;0.039062;1.038086;
527839;-0.036133;0.039062;1.039062;
527980;-0.034180;0.039062;1.037109;
528109;-0.035156;0.038086;1.040039;
528244;-0.034180;0.039062;1.039062;
528384;-0.035156;0.038086;1.038086;
528509;-0.034180;0.037109;1.038086;
528640;-0.033203;0.041016;1.039062;
528779;-0.034180;0.039062;1.037109;
528919;-0.035156;0.038086;1.038086;
529069;-0.033203;0.038086;1.040039;
529210;-0.035156;0.039062;1.039062;
529359;-0.035156;0.038086;1.038086;
529504;-0.035156;0.039062;1.040039;
529644;-0.035156;0.037109;1.040039;
529794;-0.035156;0.039062;1.039062;
529934;-0.034180;0.038086;1.039062;
530074;-0.035156;0.037109;1.039062;
530224;-0.035156;0.040039;1.038086;
530364;-0.035156;0.038086;1.039062;
530504;-0.034180;0.038086;1.037109;
530644;-0.034180;0.039062;1.040039;
530784;-0.035156;0.038086;1.038086;
530924;-0.033203;0.039062;1.038086;
531064;-0.035156;0.038086;1.038086;
531204;-0.033203;0.038086;1.040039;
531344;-0.034180;0.039062;1.039062;
531479;-0.034180;0.038086;1.040039;
531630;-0.033203;0.039062;1.039062;
531782;-0.036133;0.037109;1.040039;
531919;-0.033203;0.040039;1.040039;
532059;-0.033203;0.039062;1.040039;
532189;-0.034180;0.039062;1.040039;
532329;-0.034180;0.039062;1.039062;
532469;-0.034180;0.040039;1.039062;
532614;-0.034180;0.040039;1.040039;
532754;-0.035156;0.039062;1.040039;
532890;-0.033203;0.040039;1.040039;
533019;-0.034180;0.040039;1.040039;
533160;-0.033203;0.038086;1.038086;
533299;-0.034180;0.039062;1.039062;
533444;-0.036133;0.039062;1.038086;
533584;-0.035156;0.038086;1.039062;
533724;-0.035156;0.037109;1.039062;
533864;-0.033203;0.038086;1.040039;
534014;-0.034180;0.039062;1.040039;
534154;-0.035156;0.038086;1.039062;
534294;-0.034180;0.038086;1.040039;
534444;-0.034180;0.040039;1.039062;
534584;-0.034180;0.040039;1.040039;
534734;-0.035156;0.039062;1.041016;
534874;-0.033203;0.039062;1.039062;
535014;-0.035156;0.039062;1.040039;
535154;-0.034180;0.041016;1.040039;
535294;-0.034180;0.039062;1.038086;
535429;-0.034180;0.040039;1.040039;
535559;-0.035156;0.040039;1.041992;
535689;-0.034180;0.041016;1.038086;
535839;-0.034180;0.040039;1.038086;
535979;-0.035156;0.039062;1.040039;
536119;-0.035156;0.039062;1.040039;
536269;-0.033203;0.040039;1.039062;
536409;-0.034180;0.040039;1.040039;
536559;-0.034180;0.038086;1.040039;
536700;-0.034180;0.039062;1.038086;
536844;-0.035156;0.038086;1.038086;
536994;-0.033203;0.039062;1.038086;
537134;-0.034180;0.037109;1.038086;
537274;-0.034180;0.039062;1.039062;
537424;-0.034180;0.038086;1.039062;
537564;-0.034180;0.039062;1.039062;
537704;-0.035156;0.038086;1.039062;
537844;-0.034180;0.039062;1.039062;
537984;-0.035156;0.039062;1.040039;
538124;-0.035156;0.037109;1.038086;
538264;-0.033203;0.040039;1.039062;
538404;-0.033203;0.039062;1.040039;
538544;-0.035156;0.040039;1.038086;
538684;-0.033203;0.039062;1.039062;
538819;-0.035156;0.038086;1.039062;
538959;-0.034180;0.040039;1.039062;
539109;-0.034180;0.040039;1.041016;
539261;-0.035156;0.038086;1.039062;
539399;-0.035156;0.040039;1.040039;
539530;-0.033203;0.041992;1.037109;
539669;-0.034180;0.040039;1.038086;
539819;-0.035156;0.038086;1.040039;
539974;-0.034180;0.038086;1.040039;
540124;-0.034180;0.038086;1.039062;
540264;-0.034180;0.039062;1.038086;
540484;-0.033203;0.039062;1.039062;
540634;-0.034180;0.039062;1.039062;
540774;-0.035156;0.038086;1.039062;
540914;-0.033203;0.039062;1.038086;
541054;-0.034180;0.040039;1.040039;
541194;-0.035156;0.039062;1.039062;
541334;-0.034180;0.039062;1.039062;
541474;-0.035156;0.039062;1.040039;
541614;-0.035156;0.038086;1.039062;
541754;-0.034180;0.039062;1.040039;
541894;-0.034180;0.038086;1.039062;
542034;-0.034180;0.039062;1.041016;
542159;-0.034180;0.038086;1.039062;
542289;-0.035156;0.039062;1.039062;
542429;-0.035156;0.039062;1.039062;
542570;-0.033203;0.038086;1.038086;
542720;-0.034180;0.038086;1.040039;
542864;-0.035156;0.038086;1.038086;
542989;-0.034180;0.039062;1.039062;
543129;-0.035156;0.038086;1.040039;
543274;-0.034180;0.040039;1.039062;
543424;-0.034180;0.039062;1.040039;
543560;-0.035156;0.039062;1.040039;
543709;-0.034180;0.040039;1.039062;
543849;-0.034180;0.038086;1.039062;
543989;-0.034180;0.039062;1.040039;
544130;-0.034180;0.038086;1.039062;
544284;-0.034180;0.038086;1.038086;
544424;-0.035156;0.039062;1.040039;
544564;-0.034180;0.039062;1.040039;
544704;-0.034180;0.039062;1.040039;
544844;-0.034180;0.040039;1.040039;
544984;-0.033203;0.039062;1.038086;
545124;-0.033203;0.040039;1.039062;
545274;-0.034180;0.040039;1.038086;
545414;-0.035156;0.039062;1.039062;
545554;-0.036133;0.038086;1.040039;
545704;-0.035156;0.038086;1.038086;
545844;-0.034180;0.039062;1.039062;
545984;-0.035156;0.039062;1.041016;
546124;-0.034180;0.040039;1.039062;
546259;-0.035156;0.038086;1.039062;
546401;-0.035156;0.038086;1.040039;
546554;-0.035156;0.037109;1.040039;
546691;-0.034180;0.039062;1.039062;
546841;-0.035156;0.039062;1.040039;
546979;-0.033203;0.039062;1.039062;
547131;-0.035156;0.038086;1.039062;
547270;-0.034180;0.040039;1.041016;
547419;-0.034180;0.040039;1.041016;
547570;-0.036133;0.037109;1.039062;
547710;-0.034180;0.040039;1.040039;
547864;-0.035156;0.040039;1.040039;
548014;-0.033203;0.039062;1.041016;
548154;-0.035156;0.039062;1.037109;
548294;-0.034180;0.039062;1.040039;
548434;-0.035156;0.039062;1.039062;
548574;-0.034180;0.038086;1.039062;
548724;-0.033203;0.038086;1.039062;
548864;-0.034180;0.039062;1.040039;
549004;-0.034180;0.038086;1.038086;
549144;-0.034180;0.038086;1.038086;
549284;-0.034180;0.039062;1.039062;
549424;-0.035156;0.039062;1.039062;
549564;-0.035156;0.038086;1.039062;
549704;-0.034180;0.039062;1.040039;
549839;-0.034180;0.039062;1.040039;
549970;-0.034180;0.040039;1.040039;
550119;-0.033203;0.040039;1.039062;
550264;-0.034180;0.039062;1.040039;
550404;-0.034180;0.040039;1.040039;
550544;-0.036133;0.040039;1.040039;
550679;-0.036133;0.039062;1.039062;
550829;-0.035156;0.040039;1.040039;
550959;-0.034180;0.039062;1.039062;
551099;-0.035156;0.037109;1.040039;
551229;-0.033203;0.040039;1.039062;
551359;-0.035156;0.039062;1.039062;
551494;-0.034180;0.039062;1.039062;
551630;-0.034180;0.038086;1.038086;
551769;-0.034180;0.039062;1.039062;
551909;-0.035156;0.038086;1.039062;
552044;-0.035156;0.039062;1.040039;
552179;-0.035156;0.037109;1.038086;
552309;-0.034180;0.039062;1.040039;
552439;-0.034180;0.039062;1.038086;
552584;-0.034180;0.039062;1.040039;
552720;-0.033203;0.037109;1.039062;
552869;-0.035156;0.039062;1.039062;
553014;-0.034180;0.038086;1.039062;
553154;-0.035156;0.038086;1.040039;
553304;-0.034180;0.038086;1.038086;
553444;-0.035156;0.039062;1.039062;
553584;-0.034180;0.039062;1.040039;
553734;-0.033203;0.038086;1.040039;
553874;-0.034180;0.038086;1.040039;
554014;-0.034180;0.039062;1.041016;
554154;-0.035156;0.038086;1.039062;
554294;-0.035156;0.039062;1.038086;
554434;-0.035156;0.039062;1.040039;
554574;-0.034180;0.038086;1.037109;
554714;-0.035156;0.038086;1.040039;
554854;-0.034180;0.038086;1.039062;
554992;-0.035156;0.038086;1.039062;
555129;-0.035156;0.039062;1.039062;
555269;-0.034180;0.040039;1.040039;
555419;-0.034180;0.039062;1.039062;
555559;-0.034180;0.037109;1.040039;
555689;-0.035156;0.039062;1.039062;
555824;-0.035156;0.039062;1.040039;
555959;-0.034180;0.040039;1.041016;
556100;-0.034180;0.039062;1.041016;
556244;-0.034180;0.039062;1.039062;
556389;-0.034180;0.038086;1.041016;
556529;-0.034180;0.038086;1.039062;
556679;-0.034180;0.039062;1.040039;
556824;-0.034180;0.039062;1.040039;
556964;-0.034180;0.039062;1.038086;
557114;-0.035156;0.038086;1.038086;
557254;-0.033203;0.040039;1.039062;
557394;-0.035156;0.037109;1.039062;
557534;-0.033203;0.040039;1.040039;
557674;-0.034180;0.038086;1.039062;
557814;-0.034180;0.039062;1.039062;
557954;-0.036133;0.040039;1.040039;
558094;-0.035156;0.040039;1.038086;
558234;-0.034180;0.038086;1.038086;
558374;-0.034180;0.040039;1.040039;
558514;-0.034180;0.039062;1.039062;
558654;-0.035156;0.037109;1.039062;
558780;-0.033203;0.040039;1.039062;
558919;-0.034180;0.038086;1.038086;
559069;-0.036133;0.038086;1.039062;
559219;-0.034180;0.040039;1.040039;
559349;-0.033203;0.038086;1.038086;
559499;-0.034180;0.040039;1.040039;
559629;-0.035156;0.038086;1.038086;
559774;-0.036133;0.038086;1.038086;
559909;-0.035156;0.038086;1.038086;
560059;-0.034180;0.040039;1.040039;
560199;-0.034180;0.039062;1.040039;
560344;-0.036133;0.038086;1.040039;
560484;-0.033203;0.039062;1.038086;
560624;-0.033203;0.039062;1.039062;
560764;-0.034180;0.040039;1.039062;
560904;-0.035156;0.039062;1.039062;
561044;-0.035156;0.040039;1.040039;
561184;-0.034180;0.040039;1.040039;
561324;-0.034180;0.040039;1.041016;
561464;-0.034180;0.039062;1.040039;
561604;-0.033203;0.039062;1.038086;
561744;-0.034180;0.040039;1.041016;
561884;-0.033203;0.040039;1.039062;
562024;-0.033203;0.039062;1.038086;
562174;-0.034180;0.039062;1.039062;
562314;-0.034180;0.039062;1.040039;
562439;-0.035156;0.038086;1.040039;
562570;-0.035156;0.038086;1.039062;
562709;-0.033203;0.041016;1.040039;
562849;-0.035156;0.040039;1.041016;
562999;-0.034180;0.040039;1.040039;
563139;-0.035156;0.038086;1.040039;
563289;-0.035156;0.039062;1.039062;
563439;-0.034180;0.038086;1.039062;
563581;-0.035156;0.039062;1.039062;
563719;-0.034180;0.038086;1.039062;
563861;-0.034180;0.040039;1.040039;
563989;-0.033203;0.040039;1.037109;
564124;-0.034180;0.038086;1.040039;
564274;-0.033203;0.038086;1.039062;
564414;-0.034180;0.038086;1.037109;
564554;-0.034180;0.040039;1.039062;
564694;-0.034180;0.038086;1.039062;
564834;-0.035156;0.038086;1.040039;
564974;-0.035156;0.039062;1.038086;
565114;-0.035156;0.040039;1.039062;
565254;-0.035156;0.038086;1.039062;
565404;-0.034180;0.038086;1.038086;
565554;-0.033203;0.039062;1.040039;
565694;-0.035156;0.039062;1.041016;
565834;-0.034180;0.041016;1.040039;
565974;-0.034180;0.040039;1.039062;
566111;-0.035156;0.039062;1.041016;
566259;-0.034180;0.040039;1.038086;
566400;-0.036133;0.038086;1.040039;
566554;-0.035156;0.039062;1.040039;
566694;-0.035156;0.038086;1.038086;
566829;-0.033203;0.039062;1.041016;
566964;-0.035156;0.037109;1.039062;
567099;-0.033203;0.037109;1.038086;
567239;-0.035156;0.039062;1.039062;
567389;-0.034180;0.039062;1.040039;
567539;-0.033203;0.038086;1.037109;
567669;-0.033203;0.039062;1.039062;
567809;-0.035156;0.038086;1.039062;
567959;-0.033203;0.039062;1.037109;
568104;-0.033203;0.040039;1.039062;
568244;-0.035156;0.039062;1.040039;
568384;-0.034180;0.039062;1.039062;
568524;-0.035156;0.039062;1.041016;
568664;-0.034180;0.039062;1.040039;
568814;-0.033203;0.039062;1.040039;
568954;-0.034180;0.040039;1.040039;
569094;-0.034180;0.037109;1.039062;
569244;-0.034180;0.038086;1.040039;
569384;-0.035156;0.038086;1.039062;
569524;-0.034180;0.039062;1.039062;
569664;-0.034180;0.039062;1.038086;
569804;-0.034180;0.037109;1.041016;
569944;-0.034180;0.039062;1.039062;
570089;-0.034180;0.039062;1.040039;
570234;-0.034180;0.039062;1.041016;
570369;-0.035156;0.039062;1.039062;
570519;-0.032227;0.040039;1.039062;
570650;-0.034180;0.039062;1.039062;
570789;-0.033203;0.039062;1.039062;
570934;-0.034180;0.039062;1.039062;
571079;-0.034180;0.039062;1.039062;
571224;-0.032227;0.039062;1.040039;
571360;-0.035156;0.038086;1.039062;
571499;-0.033203;0.038086;1.040039;
571639;-0.035156;0.038086;1.039062;
571789;-0.034180;0.041016;1.038086;
571930;-0.034180;0.037109;1.039062;
572069;-0.035156;0.040039;1.039062;
572209;-0.034180;0.039062;1.038086;
572364;-0.033203;0.039062;1.039062;
572504;-0.034180;0.038086;1.039062;
572644;-0.033203;0.039062;1.039062;
572784;-0.035156;0.036133;1.040039;
572924;-0.035156;0.038086;1.040039;
573064;-0.035156;0.039062;1.038086;
573204;-0.034180;0.040039;1.039062;
573354;-0.035156;0.039062;1.040039;
573494;-0.035156;0.039062;1.039062;
573634;-0.034180;0.038086;1.039062;
573774;-0.035156;0.038086;1.040039;
573914;-0.033203;0.038086;1.039062;
574064;-0.035156;0.039062;1.040039;
574204;-0.035156;0.039062;1.039062;
574339;-0.036133;0.039062;1.039062;
574480;-0.034180;0.038086;1.039062;
574629;-0.034180;0.039062;1.040039;
574769;-0.034180;0.038086;1.040039;
574899;-0.034180;0.039062;1.039062;
575039;-0.035156;0.039062;1.038086;
575191;-0.034180;0.039062;1.040039;
575329;-0.034180;0.039062;1.038086;
575469;-0.034180;0.040039;1.038086;
575599;-0.035156;0.037109;1.038086;
575729;-0.035156;0.039062;1.040039;
575859;-0.035156;0.039062;1.039062;
575999;-0.034180;0.037109;1.038086;
576144;-0.034180;0.038086;1.039062;
576294;-0.034180;0.040039;1.040039;
576434;-0.035156;0.038086;1.039062;
576574;-0.034180;0.039062;1.040039;
576724;-0.033203;0.038086;1.039062;
576864;-0.034180;0.038086;1.039062;
577004;-0.034180;0.038086;1.039062;
577144;-0.033203;0.039062;1.039062;
577284;-0.034180;0.040039;1.040039;
577424;-0.035156;0.040039;1.039062;
577564;-0.035156;0.039062;1.039062;
577704;-0.035156;0.040039;1.039062;
577844;-0.035156;0.039062;1.039062;
577994;-0.033203;0.040039;1.040039;
578129;-0.035156;0.039062;1.040039;
578273;-0.033203;0.039062;1.040039;
578410;-0.035156;0.038086;1.039062;
578561;-0.035156;0.038086;1.038086;
578699;-0.034180;0.038086;1.039062;
578830;-0.033203;0.038086;1.039062;
578981;-0.034180;0.037109;1.038086;
579124;-0.034180;0.039062;1.040039;
579259;-0.034180;0.039062;1.038086;
579389;-0.034180;0.039062;1.038086;
579529;-0.033203;0.039062;1.039062;
579659;-0.035156;0.038086;1.039062;
579799;-0.034180;0.039062;1.040039;
579944;-0.035156;0.037109;1.039062;
580084;-0.035156;0.038086;1.039062;
580224;-0.034180;0.038086;1.038086;
580364;-0.034180;0.039062;1.040039;
580514;-0.034180;0.039062;1.041016;
580654;-0.034180;0.040039;1.040039;
580794;-0.033203;0.039062;1.039062;
580944;-0.034180;0.037109;1.040039;
581084;-0.034180;0.039062;1.039062;
581234;-0.032227;0.040039;1.039062;
581374;-0.034180;0.039062;1.040039;
581514;-0.034180;0.039062;1.040039;
581664;-0.034180;0.040039;1.039062;
581804;-0.035156;0.039062;1.040039;
581941;-0.035156;0.039062;1.040039;
582089;-0.034180;0.039062;1.037109;
582229;-0.034180;0.040039;1.038086;
582379;-0.034180;0.039062;1.039062;
582519;-0.034180;0.037109;1.039062;
582650;-0.035156;0.039062;1.040039;
582789;-0.035156;0.038086;1.039062;
582939;-0.035156;0.039062;1.039062;
583079;-0.033203;0.039062;1.039062;
583219;-0.034180;0.038086;1.040039;
583369;-0.034180;0.040039;1.040039;
583514;-0.034180;0.040039;1.040039;
583654;-0.034180;0.039062;1.040039;
583794;-0.035156;0.038086;1.040039;
583934;-0.034180;0.039062;1.040039;
584074;-0.034180;0.037109;1.039062;
584214;-0.035156;0.038086;1.039062;
584354;-0.034180;0.039062;1.039062;
584494;-0.034180;0.038086;1.040039;
584634;-0.034180;0.039062;1.039062;
584774;-0.035156;0.040039;1.040039;
584924;-0.035156;0.038086;1.039062;
585064;-0.034180;0.038086;1.040039;
585204;-0.035156;0.038086;1.041016;
585354;-0.033203;0.038086;1.038086;
585484;-0.034180;0.039062;1.038086;
585621;-0.034180;0.039062;1.040039;
585749;-0.034180;0.038086;1.039062;
585899;-0.035156;0.038086;1.039062;
586040;-0.035156;0.039062;1.040039;
586179;-0.033203;0.039062;1.040039;
586319;-0.033203;0.038086;1.040039;
586461;-0.034180;0.038086;1.040039;
586589;-0.034180;0.039062;1.039062;
586729;-0.035156;0.039062;1.040039;
586869;-0.034180;0.038086;1.039062;
586999;-0.034180;0.039062;1.040039;
587139;-0.034180;0.039062;1.039062;
587269;-0.035156;0.038086;1.039062;
587414;-0.033203;0.041016;1.038086;
587554;-0.033203;0.039062;1.039062;
587694;-0.034180;0.039062;1.041016;
587834;-0.034180;0.039062;1.040039;
587974;-0.034180;0.040039;1.040039;
588114;-0.035156;0.038086;1.039062;
588264;-0.035156;0.040039;1.040039;
588404;-0.036133;0.039062;1.039062;
588544;-0.034180;0.038086;1.038086;
588694;-0.035156;0.037109;1.039062;
588834;-0.036133;0.039062;1.039062;
588984;-0.034180;0.041016;1.040039;
589124;-0.035156;0.038086;1.039062;
589264;-0.034180;0.039062;1.040039;
589399;-0.033203;0.040039;1.039062;
589539;-0.033203;0.039062;1.039062;
589689;-0.035156;0.039062;1.039062;
589834;-0.034180;0.039062;1.038086;
589979;-0.033203;0.039062;1.039062;
590119;-0.035156;0.040039;1.039062;
590249;-0.035156;0.038086;1.039062;
590381;-0.035156;0.039062;1.039062;
590531;-0.034180;0.039062;1.039062;
590669;-0.035156;0.040039;1.039062;
590819;-0.035156;0.038086;1.039062;
590974;-0.035156;0.040039;1.039062;
591114;-0.034180;0.038086;1.039062;
591254;-0.034180;0.039062;1.039062;
591394;-0.035156;0.039062;1.038086;
591534;-0.033203;0.039062;1.039062;
591674;-0.036133;0.037109;1.040039;
591814;-0.034180;0.039062;1.039062;
591954;-0.035156;0.037109;1.040039;
592094;-0.033203;0.039062;1.039062;
592244;-0.034180;0.038086;1.038086;
592384;-0.036133;0.039062;1.039062;
592524;-0.034180;0.040039;1.039062;
592664;-0.035156;0.039062;1.039062;
592804;-0.034180;0.040039;1.038086;
592939;-0.034180;0.039062;1.040039;
593071;-0.035156;0.038086;1.038086;
593201;-0.034180;0.038086;1.039062;
593350;-0.034180;0.039062;1.038086;
593489;-0.034180;0.039062;1.040039;
593639;-0.035156;0.038086;1.040039;
593780;-0.034180;0.038086;1.040039;
593919;-0.035156;0.038086;1.040039;
594069;-0.034180;0.039062;1.039062;
594210;-0.035156;0.039062;1.039062;
594349;-0.035156;0.039062;1.040039;
594489;-0.034180;0.037109;1.039062;
594634;-0.034180;0.039062;1.041016;
594769;-0.035156;0.038086;1.039062;
594909;-0.033203;0.039062;1.038086;
595064;-0.035156;0.039062;1.038086;
595204;-0.034180;0.038086;1.039062;
595354;-0.034180;0.039062;1.039062;
595494;-0.035156;0.037109;1.040039;
595634;-0.034180;0.039062;1.041016;
595774;-0.035156;0.037109;1.039062;
595914;-0.034180;0.038086;1.040039;
596064;-0.035156;0.039062;1.039062;
596204;-0.034180;0.037109;1.037109;
596344;-0.034180;0.039062;1.040039;
596484;-0.034180;0.038086;1.040039;
596624;-0.034180;0.039062;1.038086;
596774;-0.035156;0.038086;1.041016;
596914;-0.035156;0.037109;1.040039;
597049;-0.033203;0.039062;1.038086;
597179;-0.033203;0.040039;1.039062;
597309;-0.036133;0.038086;1.040039;
597439;-0.034180;0.038086;1.041016;
597579;-0.034180;0.038086;1.041016;
597729;-0.033203;0.040039;1.039062;
597869;-0.034180;0.040039;1.039062;
598019;-0.035156;0.038086;1.039062;
598159;-0.034180;0.041016;1.040039;
598299;-0.034180;0.038086;1.038086;
598441;-0.035156;0.040039;1.040039;
598584;-0.035156;0.040039;1.039062;
598724;-0.034180;0.039062;1.040039;
598864;-0.035156;0.039062;1.039062;
599004;-0.033203;0.040039;1.039062;
599144;-0.035156;0.038086;1.040039;
599284;-0.033203;0.040039;1.039062;
599424;-0.034180;0.039062;1.040039;
599564;-0.035156;0.039062;1.040039;
599704;-0.033203;0.040039;1.041016;
599844;-0.035156;0.039062;1.040039;
599994;-0.034180;0.040039;1.040039;
600134;-0.036133;0.038086;1.039062;
600274;-0.034180;0.038086;1.039062;
600414;-0.034180;0.039062;1.040039;
600550;-0.034180;0.039062;1.040039;
600689;-0.035156;0.039062;1.041992;
600839;-0.035156;0.038086;1.039062;
600989;-0.035156;0.039062;1.039062;
601141;-0.035156;0.039062;1.039062;
601279;-0.035156;0.039062;1.039062;
601414;-0.035156;0.038086;1.040039;
601539;-0.034180;0.040039;1.040039;
601680;-0.035156;0.038086;1.041016;
601809;-0.033203;0.037109;1.039062;
601950;-0.035156;0.039062;1.039062;
602089;-0.034180;0.040039;1.037109;
602219;-0.034180;0.039062;1.040039;
602364;-0.034180;0.040039;1.040039;
602504;-0.033203;0.039062;1.038086;
602644;-0.034180;0.040039;1.041016;
602784;-0.035156;0.039062;1.038086;
602924;-0.034180;0.039062;1.039062;
603064;-0.036133;0.039062;1.041016;
603214;-0.034180;0.041016;1.039062;
603354;-0.034180;0.038086;1.039062;
603494;-0.034180;0.041016;1.039062;
603634;-0.033203;0.038086;1.040039;
603774;-0.033203;0.040039;1.039062;
603914;-0.034180;0.039062;1.040039;
604054;-0.035156;0.040039;1.041016;
604194;-0.035156;0.039062;1.039062;
604339;-0.035156;0.039062;1.041016;
604489;-0.035156;0.040039;1.040039;
604619;-0.035156;0.037109;1.038086;
604760;-0.034180;0.037109;1.039062;
604899;-0.035156;0.038086;1.040039;
605049;-0.034180;0.039062;1.038086;
605189;-0.035156;0.039062;1.039062;
605330;-0.035156;0.038086;1.038086;
605464;-0.033203;0.040039;1.038086;
605599;-0.034180;0.037109;1.040039;
605734;-0.035156;0.038086;1.040039;
605874;-0.035156;0.038086;1.037109;
606009;-0.035156;0.038086;1.039062;
606164;-0.035156;0.039062;1.038086;
606311;-0.035156;0.038086;1.037109;
606449;-0.035156;0.038086;1.040039;
606584;-0.034180;0.040039;1.039062;
606724;-0.033203;0.038086;1.040039;
606864;-0.034180;0.040039;1.040039;
607004;-0.033203;0.040039;1.040039;
607144;-0.035156;0.039062;1.038086;
607284;-0.034180;0.040039;1.040039;
607424;-0.034180;0.040039;1.038086;
607564;-0.034180;0.038086;1.039062;
607704;-0.034180;0.038086;1.039062;
607844;-0.035156;0.038086;1.037109;
607984;-0.035156;0.037109;1.040039;
608124;-0.035156;0.038086;1.038086;
608264;-0.034180;0.040039;1.039062;
608404;-0.034180;0.039062;1.040039;
608539;-0.034180;0.038086;1.038086;
608691;-0.033203;0.040039;1.039062;
608824;-0.034180;0.039062;1.041016;
608960;-0.035156;0.038086;1.038086;
609109;-0.034180;0.040039;1.040039;
609264;-0.034180;0.040039;1.039062;
609404;-0.035156;0.038086;1.039062;
609544;-0.034180;0.038086;1.039062;
609679;-0.035156;0.039062;1.040039;
609829;-0.034180;0.039062;1.039062;
609979;-0.033203;0.039062;1.040039;
610119;-0.035156;0.038086;1.040039;
610259;-0.034180;0.040039;1.039062;
610399;-0.036133;0.038086;1.039062;
610540;-0.035156;0.038086;1.040039;
610684;-0.034180;0.038086;1.039062;
610824;-0.034180;0.037109;1.039062;
610960;-0.035156;0.040039;1.039062;
611091;-0.035156;0.040039;1.040039;
611234;-0.035156;0.040039;1.041016;
611369;-0.034180;0.040039;1.039062;
611514;-0.034180;0.039062;1.040039;
611649;-0.035156;0.041016;1.039062;
611779;-0.034180;0.039062;1.039062;
611919;-0.034180;0.039062;1.040039;
612054;-0.034180;0.040039;1.039062;
612194;-0.034180;0.041016;1.039062;
612334;-0.034180;0.040039;1.040039;
612474;-0.035156;0.039062;1.039062;
612614;-0.034180;0.040039;1.038086;
612764;-0.035156;0.039062;1.040039;
612904;-0.035156;0.039062;1.040039;
613044;-0.034180;0.040039;1.038086;
613184;-0.034180;0.039062;1.041016;
613324;-0.036133;0.039062;1.039062;
613464;-0.034180;0.039062;1.039062;
613604;-0.036133;0.039062;1.041016;
613744;-0.035156;0.038086;1.038086;
613884;-0.033203;0.039062;1.040039;
614019;-0.034180;0.040039;1.038086;
614152;-0.034180;0.040039;1.039062;
614289;-0.035156;0.040039;1.040039;
614434;-0.035156;0.040039;1.040039;
614574;-0.034180;0.038086;1.039062;
614710;-0.035156;0.040039;1.040039;
614839;-0.034180;0.039062;1.039062;
614971;-0.034180;0.039062;1.040039;
615111;-0.033203;0.039062;1.041992;
615249;-0.035156;0.039062;1.040039;
615389;-0.034180;0.040039;1.040039;
615530;-0.034180;0.040039;1.039062;
615669;-0.033203;0.040039;1.039062;
615800;-0.035156;0.040039;1.041016;
615954;-0.034180;0.039062;1.039062;
616094;-0.035156;0.039062;1.040039;
616234;-0.035156;0.038086;1.040039;
616374;-0.035156;0.039062;1.039062;
616514;-0.035156;0.038086;1.039062;
616654;-0.034180;0.038086;1.039062;
616794;-0.034180;0.038086;1.041016;
616944;-0.035156;0.039062;1.040039;
617084;-0.035156;0.039062;1.040039;
617224;-0.034180;0.039062;1.039062;
617364;-0.034180;0.041016;1.040039;
617504;-0.035156;0.038086;1.039062;
617644;-0.035156;0.039062;1.039062;
617784;-0.035156;0.040039;1.041016;
617919;-0.033203;0.039062;1.039062;
618070;-0.033203;0.039062;1.039062;
618219;-0.034180;0.039062;1.039062;
618359;-0.035156;0.039062;1.038086;
618494;-0.034180;0.038086;1.038086;
618639;-0.035156;0.039062;1.041016;
618774;-0.034180;0.038086;1.038086;
618919;-0.034180;0.040039;1.040039;
619049;-0.034180;0.038086;1.038086;
619189;-0.035156;0.039062;1.038086;
619339;-0.034180;0.039062;1.039062;
619484;-0.035156;0.039062;1.040039;
619624;-0.034180;0.039062;1.039062;
619764;-0.034180;0.038086;1.039062;
619904;-0.035156;0.039062;1.038086;
620044;-0.035156;0.040039;1.039062;
620184;-0.036133;0.040039;1.041016;
620334;-0.034180;0.038086;1.040039;
620474;-0.034180;0.039062;1.038086;
620614;-0.033203;0.040039;1.039062;
620754;-0.034180;0.039062;1.040039;
620894;-0.034180;0.039062;1.040039;
621034;-0.035156;0.038086;1.039062;
621174;-0.035156;0.038086;1.037109;
621324;-0.034180;0.038086;1.039062;
621464;-0.034180;0.040039;1.039062;
621589;-0.034180;0.039062;1.040039;
621719;-0.035156;0.039062;1.040039;
621852;-0.034180;0.038086;1.038086;
621999;-0.033203;0.039062;1.039062;
622149;-0.035156;0.041016;1.039062;
622289;-0.035156;0.039062;1.040039;
622429;-0.034180;0.039062;1.040039;
622579;-0.034180;0.041016;1.040039;
622720;-0.035156;0.039062;1.039062;
622864;-0.034180;0.040039;1.039062;
623004;-0.034180;0.040039;1.039062;
623144;-0.035156;0.039062;1.038086;
623284;-0.034180;0.039062;1.039062;
623424;-0.035156;0.039062;1.040039;
623564;-0.035156;0.039062;1.040039;
623704;-0.034180;0.040039;1.039062;
623844;-0.034180;0.038086;1.039062;
623984;-0.034180;0.039062;1.039062;
624124;-0.033203;0.039062;1.039062;
624264;-0.034180;0.038086;1.039062;
624404;-0.034180;0.039062;1.039062;
624544;-0.034180;0.040039;1.041016;
624684;-0.034180;0.039062;1.039062;
624819;-0.034180;0.039062;1.039062;
624969;-0.035156;0.039062;1.040039;
625099;-0.034180;0.040039;1.039062;
625251;-0.034180;0.037109;1.038086;
625389;-0.035156;0.039062;1.040039;
625539;-0.035156;0.039062;1.039062;
625679;-0.034180;0.038086;1.040039;
625819;-0.035156;0.039062;1.040039;
625949;-0.034180;0.041992;1.039062;
626083;-0.034180;0.039062;1.040039;
626219;-0.034180;0.038086;1.040039;
626349;-0.033203;0.039062;1.039062;
626489;-0.035156;0.038086;1.040039;
626634;-0.034180;0.038086;1.039062;
626774;-0.035156;0.038086;1.038086;
626924;-0.035156;0.039062;1.038086;
627064;-0.034180;0.040039;1.039062;
627204;-0.034180;0.038086;1.040039;
627344;-0.033203;0.039062;1.038086;
627484;-0.034180;0.040039;1.039062;
627634;-0.034180;0.040039;1.038086;
627774;-0.034180;0.040039;1.039062;
627914;-0.033203;0.039062;1.040039;
628054;-0.035156;0.039062;1.038086;
628194;-0.034180;0.040039;1.041992;
628334;-0.034180;0.038086;1.039062;
628474;-0.035156;0.039062;1.040039;
628599;-0.034180;0.038086;1.040039;
628749;-0.035156;0.038086;1.038086;
628889;-0.034180;0.040039;1.039062;
629021;-0.034180;0.039062;1.038086;
629154;-0.035156;0.038086;1.040039;
629304;-0.035156;0.040039;1.040039;
629429;-0.033203;0.041992;1.040039;
629569;-0.034180;0.039062;1.041016;
629709;-0.033203;0.039062;1.037109;
629859;-0.036133;0.038086;1.039062;
629999;-0.035156;0.040039;1.040039;
630149;-0.035156;0.039062;1.046875;
630289;-0.035156;0.038086;1.035156;
630434;-0.034180;0.040039;1.038086;
630584;-0.034180;0.038086;1.040039;
630724;-0.034180;0.039062;1.038086;
630874;-0.035156;0.039062;1.039062;
631014;-0.034180;0.040039;1.037109;
631154;-0.033203;0.039062;1.040039;
631294;-0.034180;0.038086;1.039062;
631434;-0.034180;0.038086;1.038086;
