Time;acc_x;acc_y;acc_z;

2364;-0.034180;0.039062;1.039062;
2513;-0.034180;0.039062;1.038086;
2653;-0.033203;0.039062;1.039062;
2793;-0.035156;0.037109;1.039062;
2933;-0.033203;0.039062;1.036133;
3073;-0.034180;0.040039;1.038086;
3213;-0.034180;0.038086;1.045898;
3354;-0.034180;0.040039;1.039062;
3494;-0.033203;0.039062;1.039062;
3633;-0.035156;0.038086;1.038086;
3773;-0.033203;0.039062;1.038086;
3913;-0.034180;0.040039;1.038086;
4054;-0.034180;0.038086;1.039062;
4194;-0.033203;0.039062;1.039062;
4333;-0.035156;0.038086;1.040039;
4473;-0.036133;0.037109;1.039062;
4614;-0.034180;0.039062;1.038086;
4753;-0.034180;0.038086;1.040039;
4889;-0.034180;0.037109;1.038086;
5020;-0.033203;0.037109;1.037109;
5160;-0.035156;0.039062;1.038086;
5300;-0.034180;0.038086;1.039062;
5429;-0.034180;0.039062;1.039062;
5579;-0.033203;0.039062;1.039062;
5729;-0.033203;0.038086;1.039062;
5869;-0.034180;0.039062;1.038086;
6004;-0.033203;0.040039;1.040039;
6139;-0.034180;0.040039;1.039062;
6269;-0.035156;0.038086;1.039062;
6409;-0.034180;0.037109;1.037109;
6539;-0.034180;0.037109;1.039062;
6683;-0.033203;0.037109;1.036133;
6819;-0.033203;0.039062;1.038086;
6964;-0.034180;0.039062;1.038086;
7103;-0.033203;0.040039;1.038086;
7243;-0.035156;0.039062;1.039062;
7383;-0.035156;0.040039;1.037109;
7519;-0.034180;0.038086;1.037109;
7664;-0.034180;0.039062;1.039062;
7814;-0.034180;0.039062;1.039062;
7954;-0.034180;0.038086;1.039062;
8094;-0.034180;0.040039;1.040039;
8229;-0.033203;0.038086;1.038086;
8373;-0.034180;0.040039;1.040039;
8513;-0.034180;0.039062;1.039062;
8649;-0.033203;0.039062;1.038086;
8799;-0.035156;0.038086;1.040039;
8929;-0.034180;0.039062;1.039062;
9081;-0.034180;0.037109;1.037109;
9219;-0.035156;0.038086;1.039062;
9369;-0.034180;0.039062;1.040039;
9509;-0.034180;0.039062;1.038086;
9643;-0.034180;0.039062;1.039062;
9780;-0.034180;0.038086;1.038086;
9909;-0.034180;0.040039;1.039062;
10039;-0.034180;0.039062;1.039062;
10189;-0.034180;0.039062;1.039062;
10330;-0.034180;0.039062;1.039062;
10479;-0.034180;0.039062;1.039062;
10629;-0.033203;0.040039;1.040039;
10759;-0.033203;0.039062;1.038086;
10909;-0.035156;0.039062;1.039062;
11050;-0.035156;0.039062;1.039062;
11179;-0.034180;0.039062;1.038086;
11319;-0.035156;0.038086;1.038086;
11463;-0.033203;0.037109;1.037109;
11603;-0.033203;0.038086;1.038086;
11750;-0.035156;0.039062;1.039062;
11899;-0.034180;0.038086;1.039062;
12029;-0.034180;0.039062;1.038086;
12179;-0.034180;0.040039;1.039062;
12323;-0.034180;0.039062;1.039062;
12474;-0.034180;0.039062;1.040039;
12614;-0.033203;0.036133;1.039062;
12754;-0.033203;0.040039;1.038086;
12899;-0.035156;0.038086;1.038086;
13039;-0.034180;0.036133;1.039062;
13184;-0.035156;0.038086;1.038086;
13324;-0.034180;0.038086;1.039062;
13464;-0.033203;0.039062;1.039062;
13600;-0.036133;0.039062;1.038086;
13739;-0.035156;0.038086;1.038086;
13884;-0.034180;0.040039;1.040039;
14020;-0.034180;0.040039;1.039062;
14170;-0.034180;0.038086;1.038086;
14309;-0.034180;0.039062;1.038086;
14449;-0.035156;0.040039;1.038086;
14590;-0.035156;0.038086;1.039062;
14739;-0.033203;0.039062;1.039062;
14889;-0.033203;0.038086;1.038086;
15039;-0.034180;0.040039;1.040039;
15170;-0.033203;0.039062;1.039062;
15319;-0.035156;0.039062;1.040039;
15469;-0.034180;0.039062;1.039062;
15619;-0.034180;0.037109;1.039062;
15761;-0.034180;0.041016;1.039062;
15899;-0.035156;0.039062;1.039062;
16039;-0.034180;0.038086;1.037109;
16179;-0.035156;0.038086;1.038086;
16319;-0.034180;0.040039;1.038086;
16459;-0.035156;0.038086;1.039062;
16604;-0.034180;0.038086;1.039062;
16744;-0.033203;0.039062;1.040039;
16883;-0.035156;0.038086;1.038086;
17023;-0.034180;0.039062;1.040039;
17160;-0.034180;0.038086;1.040039;
17309;-0.034180;0.039062;1.039062;
17449;-0.035156;0.037109;1.039062;
17603;-0.035156;0.037109;1.039062;
17754;-0.034180;0.038086;1.038086;
17894;-0.034180;0.039062;1.039062;
18030;-0.035156;0.038086;1.039062;
18169;-0.035156;0.038086;1.040039;
18299;-0.034180;0.038086;1.038086;
18429;-0.034180;0.040039;1.040039;
18569;-0.033203;0.039062;1.040039;
18709;-0.034180;0.037109;1.038086;
18859;-0.033203;0.038086;1.038086;
18999;-0.034180;0.039062;1.039062;
19143;-0.034180;0.039062;1.038086;
19279;-0.034180;0.040039;1.039062;
19420;-0.033203;0.040039;1.039062;
19569;-0.035156;0.038086;1.038086;
19699;-0.034180;0.037109;1.038086;
19839;-0.035156;0.039062;1.038086;
19989;-0.033203;0.040039;1.040039;
20139;-0.033203;0.038086;1.038086;
20279;-0.035156;0.039062;1.039062;
20409;-0.034180;0.039062;1.038086;
20559;-0.035156;0.039062;1.039062;
20699;-0.035156;0.039062;1.038086;
20849;-0.034180;0.038086;1.038086;
20989;-0.034180;0.038086;1.040039;
21139;-0.034180;0.037109;1.038086;
21289;-0.034180;0.041016;1.037109;
21419;-0.034180;0.040039;1.041016;
21549;-0.035156;0.038086;1.037109;
21689;-0.035156;0.039062;1.039062;
21824;-0.035156;0.037109;1.039062;
21964;-0.034180;0.039062;1.040039;
22109;-0.034180;0.037109;1.038086;
22239;-0.033203;0.040039;1.039062;
22369;-0.034180;0.038086;1.039062;
22514;-0.033203;0.039062;1.040039;
22653;-0.033203;0.039062;1.039062;
22794;-0.035156;0.040039;1.040039;
22929;-0.034180;0.040039;1.038086;
23069;-0.035156;0.036133;1.038086;
23204;-0.034180;0.038086;1.038086;
23354;-0.034180;0.036133;1.039062;
23494;-0.034180;0.038086;1.038086;
23644;-0.032227;0.038086;1.039062;
23779;-0.035156;0.037109;1.040039;
23919;-0.034180;0.037109;1.036133;
24069;-0.033203;0.039062;1.039062;
24199;-0.034180;0.039062;1.039062;
24339;-0.032227;0.040039;1.040039;
24473;-0.034180;0.037109;1.038086;
24619;-0.034180;0.038086;1.036133;
24769;-0.033203;0.039062;1.038086;
24909;-0.033203;0.041016;1.040039;
25049;-0.033203;0.040039;1.041992;
25199;-0.033203;0.038086;1.039062;
25339;-0.035156;0.038086;1.039062;
25480;-0.035156;0.037109;1.039062;
25629;-0.033203;0.038086;1.036133;
25759;-0.034180;0.039062;1.040039;
25899;-0.033203;0.037109;1.039062;
26039;-0.032227;0.039062;1.039062;
26189;-0.034180;0.038086;1.040039;
26339;-0.034180;0.037109;1.037109;
26479;-0.033203;0.039062;1.038086;
26619;-0.035156;0.040039;1.039062;
26759;-0.033203;0.040039;1.041016;
26899;-0.034180;0.039062;1.036133;
27029;-0.034180;0.039062;1.039062;
27179;-0.033203;0.038086;1.038086;
27309;-0.036133;0.038086;1.038086;
27449;-0.032227;0.039062;1.039062;
27589;-0.034180;0.039062;1.038086;
27729;-0.034180;0.038086;1.040039;
27869;-0.034180;0.038086;1.038086;
28009;-0.034180;0.039062;1.040039;
28153;-0.034180;0.038086;1.038086;
28294;-0.033203;0.039062;1.037109;
28433;-0.035156;0.037109;1.040039;
28569;-0.033203;0.039062;1.038086;
28709;-0.034180;0.039062;1.040039;
28863;-0.034180;0.040039;1.040039;
29003;-0.034180;0.038086;1.038086;
29144;-0.032227;0.040039;1.039062;
29279;-0.034180;0.038086;1.039062;
29409;-0.035156;0.038086;1.039062;
29564;-0.033203;0.041016;1.038086;
29704;-0.034180;0.040039;1.039062;
29844;-0.033203;0.040039;1.039062;
29983;-0.035156;0.037109;1.038086;
30119;-0.033203;0.039062;1.039062;
30249;-0.033203;0.039062;1.039062;
30389;-0.034180;0.038086;1.039062;
30519;-0.033203;0.040039;1.038086;
30649;-0.033203;0.039062;1.039062;
30799;-0.034180;0.038086;1.038086;
30950;-0.035156;0.038086;1.038086;
31089;-0.036133;0.040039;1.039062;
31229;-0.033203;0.039062;1.037109;
31369;-0.033203;0.037109;1.038086;
31509;-0.034180;0.036133;1.038086;
31650;-0.034180;0.039062;1.038086;
31799;-0.035156;0.037109;1.039062;
31939;-0.033203;0.040039;1.038086;
32089;-0.034180;0.040039;1.038086;
32229;-0.035156;0.039062;1.039062;
32359;-0.035156;0.039062;1.039062;
32510;-0.034180;0.037109;1.037109;
32649;-0.033203;0.037109;1.038086;
32799;-0.033203;0.038086;1.039062;
32940;-0.035156;0.040039;1.040039;
33074;-0.035156;0.038086;1.039062;
33219;-0.034180;0.038086;1.037109;
33359;-0.034180;0.038086;1.037109;
33509;-0.033203;0.038086;1.038086;
33649;-0.034180;0.036133;1.039062;
33783;-0.035156;0.038086;1.038086;
33933;-0.034180;0.040039;1.038086;
34073;-0.034180;0.039062;1.039062;
34224;-0.033203;0.039062;1.038086;
34362;-0.034180;0.041016;1.039062;
34503;-0.034180;0.039062;1.040039;
34634;-0.034180;0.037109;1.038086;
34769;-0.034180;0.038086;1.039062;
34909;-0.035156;0.039062;1.036133;
35039;-0.034180;0.038086;1.041016;
35169;-0.034180;0.039062;1.038086;
35304;-0.035156;0.039062;1.037109;
35439;-0.034180;0.039062;1.038086;
35589;-0.034180;0.039062;1.039062;
35740;-0.033203;0.040039;1.038086;
35879;-0.034180;0.038086;1.038086;
36009;-0.034180;0.039062;1.039062;
36154;-0.035156;0.037109;1.039062;
36290;-0.035156;0.038086;1.039062;
36439;-0.035156;0.037109;1.037109;
36569;-0.032227;0.038086;1.037109;
36719;-0.035156;0.038086;1.039062;
36849;-0.035156;0.039062;1.040039;
36979;-0.034180;0.039062;1.040039;
37119;-0.035156;0.039062;1.038086;
37259;-0.034180;0.038086;1.037109;
37409;-0.034180;0.039062;1.039062;
37539;-0.034180;0.038086;1.039062;
37680;-0.035156;0.038086;1.038086;
37829;-0.033203;0.040039;1.039062;
37959;-0.034180;0.038086;1.039062;
38094;-0.034180;0.039062;1.038086;
38229;-0.035156;0.037109;1.039062;
38359;-0.034180;0.037109;1.039062;
38499;-0.032227;0.038086;1.038086;
38643;-0.033203;0.040039;1.039062;
38784;-0.035156;0.039062;1.039062;
38924;-0.035156;0.039062;1.038086;
39060;-0.033203;0.038086;1.038086;
39189;-0.034180;0.038086;1.039062;
39324;-0.035156;0.039062;1.038086;
39464;-0.034180;0.040039;1.039062;
39603;-0.034180;0.039062;1.038086;
39750;-0.035156;0.037109;1.039062;
39889;-0.034180;0.039062;1.039062;
40029;-0.034180;0.039062;1.039062;
40179;-0.034180;0.038086;1.039062;
40319;-0.036133;0.039062;1.039062;
40469;-0.035156;0.039062;1.039062;
40609;-0.034180;0.040039;1.039062;
40749;-0.034180;0.039062;1.039062;
40899;-0.033203;0.039062;1.039062;
41049;-0.035156;0.037109;1.039062;
41190;-0.034180;0.038086;1.038086;
41329;-0.034180;0.038086;1.039062;
41470;-0.035156;0.038086;1.039062;
41609;-0.034180;0.038086;1.037109;
41743;-0.033203;0.039062;1.039062;
41879;-0.034180;0.038086;1.037109;
42019;-0.033203;0.039062;1.037109;
42159;-0.034180;0.038086;1.038086;
42299;-0.034180;0.040039;1.037109;
42439;-0.035156;0.038086;1.038086;
42573;-0.035156;0.040039;1.038086;
42711;-0.033203;0.037109;1.040039;
42840;-0.033203;0.039062;1.039062;
42984;-0.033203;0.038086;1.038086;
43123;-0.035156;0.040039;1.038086;
43263;-0.034180;0.039062;1.037109;
43404;-0.034180;0.039062;1.041016;
43539;-0.034180;0.038086;1.038086;
43669;-0.034180;0.036133;1.040039;
43813;-0.035156;0.039062;1.037109;
43964;-0.035156;0.039062;1.038086;
44104;-0.035156;0.038086;1.039062;
44241;-0.034180;0.040039;1.039062;
44370;-0.034180;0.040039;1.038086;
44509;-0.034180;0.039062;1.039062;
44639;-0.035156;0.038086;1.038086;
44770;-0.034180;0.038086;1.037109;
44909;-0.035156;0.039062;1.041016;
45050;-0.034180;0.039062;1.037109;
45179;-0.035156;0.038086;1.038086;
45319;-0.034180;0.039062;1.039062;
45459;-0.034180;0.037109;1.039062;
45591;-0.033203;0.040039;1.039062;
45729;-0.034180;0.039062;1.039062;
45869;-0.033203;0.040039;1.040039;
46009;-0.034180;0.040039;1.040039;
46149;-0.035156;0.040039;1.039062;
46279;-0.034180;0.038086;1.040039;
46419;-0.034180;0.039062;1.039062;
46549;-0.035156;0.037109;1.038086;
46699;-0.034180;0.038086;1.039062;
46844;-0.035156;0.039062;1.040039;
46984;-0.034180;0.039062;1.037109;
47119;-0.033203;0.038086;1.040039;
47259;-0.035156;0.038086;1.038086;
47399;-0.035156;0.038086;1.038086;
47549;-0.033203;0.038086;1.037109;
47699;-0.035156;0.038086;1.040039;
47829;-0.035156;0.037109;1.039062;
47979;-0.035156;0.040039;1.039062;
48119;-0.035156;0.039062;1.040039;
48259;-0.034180;0.038086;1.038086;
48409;-0.033203;0.039062;1.038086;
48554;-0.034180;0.037109;1.040039;
48694;-0.034180;0.038086;1.039062;
48834;-0.033203;0.039062;1.038086;
48983;-0.034180;0.038086;1.038086;
49123;-0.034180;0.040039;1.039062;
49259;-0.034180;0.038086;1.038086;
49410;-0.034180;0.039062;1.040039;
49539;-0.035156;0.038086;1.039062;
49683;-0.034180;0.039062;1.038086;
49824;-0.034180;0.039062;1.037109;
49974;-0.034180;0.039062;1.039062;
50109;-0.034180;0.038086;1.038086;
50240;-0.035156;0.037109;1.039062;
50369;-0.036133;0.038086;1.037109;
50504;-0.033203;0.039062;1.039062;
50639;-0.034180;0.039062;1.039062;
50779;-0.033203;0.038086;1.043945;
50929;-0.034180;0.038086;1.039062;
51069;-0.034180;0.038086;1.038086;
51219;-0.035156;0.037109;1.039062;
51359;-0.034180;0.040039;1.040039;
51499;-0.033203;0.039062;1.038086;
51649;-0.033203;0.039062;1.038086;
51800;-0.035156;0.038086;1.038086;
51939;-0.034180;0.038086;1.039062;
52079;-0.034180;0.038086;1.038086;
52219;-0.034180;0.040039;1.039062;
52359;-0.034180;0.039062;1.039062;
52510;-0.033203;0.038086;1.038086;
52649;-0.034180;0.039062;1.040039;
52799;-0.034180;0.040039;1.039062;
52949;-0.033203;0.039062;1.038086;
53089;-0.033203;0.039062;1.038086;
53229;-0.034180;0.038086;1.038086;
53359;-0.035156;0.040039;1.039062;
53509;-0.033203;0.039062;1.039062;
53649;-0.033203;0.039062;1.038086;
53794;-0.033203;0.039062;1.039062;
53934;-0.034180;0.038086;1.037109;
54073;-0.034180;0.039062;1.039062;
54225;-0.033203;0.040039;1.040039;
54369;-0.033203;0.039062;1.037109;
54499;-0.034180;0.039062;1.039062;
54654;-0.034180;0.037109;1.037109;
54794;-0.034180;0.038086;1.038086;
54943;-0.034180;0.038086;1.039062;
55084;-0.035156;0.039062;1.038086;
55219;-0.034180;0.038086;1.039062;
55364;-0.034180;0.039062;1.038086;
55511;-0.035156;0.039062;1.039062;
55649;-0.034180;0.040039;1.039062;
55779;-0.034180;0.039062;1.039062;
55930;-0.034180;0.038086;1.038086;
56069;-0.032227;0.040039;1.039062;
56199;-0.034180;0.038086;1.038086;
56344;-0.033203;0.039062;1.038086;
56494;-0.033203;0.039062;1.038086;
56629;-0.035156;0.040039;1.039062;
56759;-0.034180;0.038086;1.040039;
56889;-0.035156;0.038086;1.037109;
57029;-0.034180;0.039062;1.039062;
57179;-0.035156;0.038086;1.039062;
57329;-0.034180;0.039062;1.037109;
57469;-0.035156;0.039062;1.039062;
57600;-0.033203;0.037109;1.038086;
57740;-0.034180;0.039062;1.039062;
57889;-0.033203;0.039062;1.039062;
58030;-0.034180;0.039062;1.040039;
58169;-0.034180;0.039062;1.038086;
58309;-0.033203;0.039062;1.038086;
58443;-0.033203;0.039062;1.039062;
58584;-0.034180;0.038086;1.040039;
58719;-0.033203;0.039062;1.039062;
58869;-0.035156;0.038086;1.038086;
59014;-0.034180;0.037109;1.040039;
59164;-0.034180;0.038086;1.038086;
59303;-0.033203;0.041016;1.040039;
59444;-0.034180;0.037109;1.039062;
59579;-0.034180;0.038086;1.040039;
59720;-0.034180;0.039062;1.040039;
59874;-0.034180;0.039062;1.039062;
60009;-0.035156;0.038086;1.038086;
60159;-0.034180;0.039062;1.037109;
60299;-0.034180;0.039062;1.039062;
60439;-0.034180;0.039062;1.040039;
60579;-0.034180;0.039062;1.038086;
60722;-0.034180;0.039062;1.040039;
60859;-0.035156;0.037109;1.037109;
61004;-0.033203;0.038086;1.036133;
61139;-0.034180;0.038086;1.040039;
61279;-0.034180;0.038086;1.039062;
61429;-0.034180;0.038086;1.038086;
61569;-0.034180;0.041016;1.039062;
61709;-0.035156;0.038086;1.038086;
61849;-0.034180;0.036133;1.038086;
61999;-0.033203;0.040039;1.039062;
62154;-0.034180;0.038086;1.038086;
62299;-0.034180;0.037109;1.038086;
62429;-0.034180;0.040039;1.038086;
62569;-0.035156;0.038086;1.039062;
62709;-0.035156;0.039062;1.038086;
62859;-0.034180;0.040039;1.041016;
63009;-0.032227;0.039062;1.040039;
63149;-0.033203;0.039062;1.039062;
63289;-0.035156;0.039062;1.038086;
63434;-0.034180;0.037109;1.037109;
63569;-0.035156;0.038086;1.040039;
63699;-0.035156;0.039062;1.039062;
63842;-0.033203;0.039062;1.038086;
63981;-0.033203;0.039062;1.037109;
64124;-0.033203;0.038086;1.039062;
64259;-0.035156;0.036133;1.040039;
64404;-0.033203;0.038086;1.040039;
64544;-0.033203;0.039062;1.039062;
64684;-0.035156;0.038086;1.038086;
64823;-0.034180;0.040039;1.039062;
64969;-0.033203;0.039062;1.039062;
65124;-0.033203;0.038086;1.038086;
65263;-0.036133;0.036133;1.039062;
65399;-0.033203;0.038086;1.037109;
65539;-0.033203;0.039062;1.038086;
65689;-0.034180;0.040039;1.039062;
65829;-0.034180;0.038086;1.037109;
65972;-0.034180;0.038086;1.038086;
66119;-0.034180;0.038086;1.038086;
66259;-0.033203;0.038086;1.038086;
66409;-0.033203;0.040039;1.040039;
66550;-0.034180;0.039062;1.037109;
66699;-0.033203;0.039062;1.038086;
66839;-0.035156;0.037109;1.038086;
66992;-0.035156;0.037109;1.038086;
67139;-0.033203;0.039062;1.038086;
67280;-0.034180;0.040039;1.039062;
67419;-0.035156;0.040039;1.039062;
67559;-0.035156;0.039062;1.038086;
67709;-0.035156;0.038086;1.038086;
67849;-0.034180;0.038086;1.038086;
67999;-0.034180;0.038086;1.038086;
68139;-0.033203;0.039062;1.039062;
68279;-0.034180;0.040039;1.039062;
68424;-0.035156;0.038086;1.038086;
68564;-0.035156;0.039062;1.040039;
68704;-0.034180;0.037109;1.038086;
68849;-0.033203;0.037109;1.039062;
68979;-0.033203;0.038086;1.038086;
69123;-0.033203;0.039062;1.039062;
69264;-0.035156;0.038086;1.039062;
69404;-0.033203;0.039062;1.038086;
69539;-0.033203;0.039062;1.038086;
69682;-0.034180;0.037109;1.040039;
69809;-0.035156;0.037109;1.037109;
69949;-0.035156;0.039062;1.038086;
70089;-0.034180;0.040039;1.038086;
70234;-0.034180;0.037109;1.039062;
70384;-0.033203;0.037109;1.038086;
70520;-0.034180;0.038086;1.039062;
70649;-0.033203;0.039062;1.037109;
70789;-0.035156;0.039062;1.039062;
70939;-0.035156;0.038086;1.040039;
71089;-0.034180;0.040039;1.039062;
71230;-0.033203;0.038086;1.038086;
71369;-0.034180;0.039062;1.039062;
71509;-0.034180;0.040039;1.038086;
71659;-0.034180;0.037109;1.038086;
71799;-0.036133;0.037109;1.040039;
71934;-0.035156;0.039062;1.038086;
72069;-0.033203;0.039062;1.039062;
72210;-0.034180;0.039062;1.039062;
72349;-0.034180;0.037109;1.040039;
72489;-0.034180;0.039062;1.040039;
72640;-0.034180;0.039062;1.038086;
72789;-0.033203;0.040039;1.039062;
72929;-0.034180;0.038086;1.038086;
73079;-0.035156;0.038086;1.039062;
73229;-0.032227;0.040039;1.038086;
73369;-0.034180;0.039062;1.038086;
73514;-0.035156;0.038086;1.039062;
73649;-0.035156;0.039062;1.039062;
73789;-0.034180;0.036133;1.039062;
73929;-0.034180;0.038086;1.037109;
74070;-0.035156;0.038086;1.040039;
74209;-0.034180;0.040039;1.039062;
74359;-0.033203;0.040039;1.038086;
74499;-0.035156;0.039062;1.039062;
74653;-0.034180;0.037109;1.037109;
74789;-0.034180;0.038086;1.039062;
74930;-0.034180;0.039062;1.039062;
75074;-0.034180;0.039062;1.037109;
75214;-0.034180;0.038086;1.039062;
75354;-0.035156;0.038086;1.038086;
75494;-0.034180;0.041016;1.039062;
75629;-0.034180;0.039062;1.039062;
75769;-0.033203;0.038086;1.037109;
75913;-0.033203;0.039062;1.037109;
76063;-0.034180;0.039062;1.039062;
76204;-0.035156;0.038086;1.038086;
76339;-0.034180;0.039062;1.039062;
76490;-0.035156;0.039062;1.040039;
76619;-0.033203;0.038086;1.039062;
76759;-0.033203;0.040039;1.039062;
76904;-0.033203;0.039062;1.038086;
77053;-0.034180;0.041016;1.040039;
77179;-0.034180;0.040039;1.039062;
77314;-0.035156;0.038086;1.040039;
77449;-0.033203;0.039062;1.038086;
77589;-0.034180;0.039062;1.037109;
77739;-0.034180;0.038086;1.039062;
77879;-0.034180;0.040039;1.040039;
78031;-0.035156;0.039062;1.039062;
78169;-0.034180;0.039062;1.039062;
78311;-0.034180;0.039062;1.038086;
78451;-0.034180;0.037109;1.040039;
78589;-0.034180;0.038086;1.037109;
78729;-0.035156;0.038086;1.039062;
78870;-0.034180;0.039062;1.039062;
79009;-0.034180;0.039062;1.040039;
79159;-0.034180;0.038086;1.038086;
79304;-0.034180;0.039062;1.037109;
79442;-0.033203;0.037109;1.037109;
79579;-0.035156;0.037109;1.039062;
79710;-0.034180;0.039062;1.037109;
79854;-0.034180;0.039062;1.037109;
79989;-0.034180;0.038086;1.040039;
80122;-0.035156;0.039062;1.040039;
80249;-0.033203;0.039062;1.039062;
80379;-0.034180;0.038086;1.040039;
80524;-0.035156;0.037109;1.037109;
80673;-0.035156;0.037109;1.038086;
80809;-0.034180;0.040039;1.040039;
80963;-0.034180;0.039062;1.038086;
81103;-0.033203;0.040039;1.039062;
81239;-0.033203;0.039062;1.039062;
81379;-0.034180;0.039062;1.040039;
81530;-0.033203;0.038086;1.039062;
81660;-0.034180;0.038086;1.039062;
81790;-0.035156;0.039062;1.039062;
81939;-0.034180;0.037109;1.037109;
82079;-0.035156;0.039062;1.038086;
82229;-0.034180;0.038086;1.038086;
82380;-0.033203;0.040039;1.038086;
82519;-0.035156;0.038086;1.040039;
82659;-0.033203;0.037109;1.040039;
82800;-0.036133;0.038086;1.040039;
82929;-0.034180;0.039062;1.037109;
83059;-0.035156;0.038086;1.037109;
83199;-0.035156;0.038086;1.039062;
83349;-0.033203;0.039062;1.038086;
83499;-0.034180;0.038086;1.037109;
83639;-0.034180;0.040039;1.039062;
83769;-0.034180;0.039062;1.037109;
83909;-0.034180;0.040039;1.039062;
84049;-0.034180;0.040039;1.039062;
84189;-0.034180;0.037109;1.037109;
84339;-0.034180;0.038086;1.039062;
84484;-0.034180;0.039062;1.040039;
84619;-0.033203;0.039062;1.038086;
84749;-0.034180;0.040039;1.038086;
84879;-0.034180;0.039062;1.039062;
85019;-0.033203;0.038086;1.039062;
85169;-0.034180;0.038086;1.038086;
85323;-0.035156;0.038086;1.037109;
85463;-0.034180;0.040039;1.039062;
85614;-0.033203;0.038086;1.037109;
85749;-0.034180;0.038086;1.040039;
85893;-0.035156;0.038086;1.039062;
86020;-0.034180;0.038086;1.037109;
86164;-0.033203;0.039062;1.038086;
86309;-0.035156;0.038086;1.039062;
86454;-0.034180;0.039062;1.039062;
86604;-0.034180;0.038086;1.039062;
86744;-0.035156;0.038086;1.039062;
86879;-0.033203;0.039062;1.037109;
87029;-0.034180;0.037109;1.038086;
87169;-0.035156;0.038086;1.039062;
87319;-0.034180;0.039062;1.038086;
87459;-0.034180;0.039062;1.038086;
87589;-0.034180;0.039062;1.038086;
87733;-0.035156;0.038086;1.038086;
87879;-0.034180;0.038086;1.039062;
88030;-0.033203;0.037109;1.037109;
88169;-0.033203;0.039062;1.039062;
88319;-0.034180;0.039062;1.038086;
88470;-0.034180;0.039062;1.039062;
88609;-0.034180;0.037109;1.038086;
88749;-0.034180;0.038086;1.036133;
88904;-0.034180;0.040039;1.040039;
89049;-0.034180;0.039062;1.039062;
89189;-0.035156;0.038086;1.039062;
89319;-0.034180;0.038086;1.036133;
89469;-0.034180;0.038086;1.037109;
89609;-0.035156;0.039062;1.039062;
89749;-0.035156;0.038086;1.038086;
89890;-0.034180;0.040039;1.039062;
90023;-0.034180;0.039062;1.039062;
90159;-0.035156;0.038086;1.039062;
90299;-0.034180;0.039062;1.038086;
90449;-0.034180;0.039062;1.039062;
90579;-0.034180;0.038086;1.039062;
90734;-0.035156;0.038086;1.039062;
90874;-0.033203;0.039062;1.039062;
91023;-0.033203;0.040039;1.038086;
91163;-0.035156;0.039062;1.039062;
91299;-0.036133;0.038086;1.039062;
91454;-0.034180;0.037109;1.038086;
91594;-0.034180;0.038086;1.038086;
91734;-0.033203;0.040039;1.038086;
91869;-0.035156;0.038086;1.038086;
92004;-0.034180;0.040039;1.038086;
92144;-0.032227;0.039062;1.039062;
92289;-0.034180;0.040039;1.040039;
92429;-0.035156;0.037109;1.038086;
92569;-0.035156;0.037109;1.040039;
92719;-0.033203;0.039062;1.038086;
92849;-0.033203;0.039062;1.036133;
92999;-0.033203;0.038086;1.038086;
93139;-0.033203;0.039062;1.038086;
93289;-0.033203;0.039062;1.037109;
93419;-0.035156;0.040039;1.040039;
93559;-0.035156;0.038086;1.038086;
93699;-0.034180;0.037109;1.038086;
93849;-0.034180;0.038086;1.037109;
93984;-0.033203;0.040039;1.040039;
94119;-0.035156;0.038086;1.039062;
94259;-0.034180;0.039062;1.038086;
94399;-0.033203;0.040039;1.039062;
94549;-0.034180;0.037109;1.039062;
94689;-0.034180;0.038086;1.039062;
94819;-0.035156;0.038086;1.039062;
94959;-0.035156;0.038086;1.038086;
95114;-0.034180;0.038086;1.040039;
95249;-0.033203;0.040039;1.039062;
95379;-0.035156;0.036133;1.038086;
95509;-0.035156;0.037109;1.039062;
95649;-0.033203;0.039062;1.039062;
95794;-0.033203;0.039062;1.039062;
95933;-0.035156;0.037109;1.039062;
96073;-0.035156;0.037109;1.039062;
96214;-0.033203;0.039062;1.038086;
96350;-0.034180;0.038086;1.037109;
96499;-0.034180;0.039062;1.038086;
96644;-0.035156;0.038086;1.039062;
96784;-0.033203;0.039062;1.039062;
96924;-0.035156;0.038086;1.037109;
97061;-0.034180;0.038086;1.038086;
97204;-0.034180;0.038086;1.039062;
97344;-0.033203;0.039062;1.037109;
97479;-0.035156;0.038086;1.040039;
97619;-0.034180;0.039062;1.040039;
97769;-0.034180;0.039062;1.039062;
97909;-0.034180;0.038086;1.038086;
98059;-0.034180;0.038086;1.039062;
98209;-0.034180;0.038086;1.039062;
98349;-0.033203;0.039062;1.038086;
98489;-0.034180;0.040039;1.040039;
98619;-0.035156;0.039062;1.040039;
98769;-0.034180;0.038086;1.038086;
98909;-0.035156;0.038086;1.038086;
99059;-0.033203;0.038086;1.039062;
99199;-0.033203;0.039062;1.038086;
99339;-0.034180;0.038086;1.039062;
99489;-0.033203;0.038086;1.039062;
99639;-0.034180;0.040039;1.039062;
99770;-0.034180;0.040039;1.038086;
99909;-0.035156;0.038086;1.039062;
100050;-0.034180;0.039062;1.038086;
100200;-0.034180;0.039062;1.040039;
100339;-0.034180;0.039062;1.040039;
100494;-0.034180;0.040039;1.040039;
100629;-0.035156;0.040039;1.038086;
100770;-0.035156;0.039062;1.037109;
100923;-0.034180;0.037109;1.038086;
101064;-0.035156;0.039062;1.039062;
101204;-0.034180;0.039062;1.038086;
101339;-0.033203;0.038086;1.039062;
101474;-0.035156;0.037109;1.039062;
101613;-0.035156;0.038086;1.039062;
101754;-0.036133;0.039062;1.038086;
101904;-0.033203;0.038086;1.039062;
102032;-0.033203;0.039062;1.038086;
102179;-0.034180;0.039062;1.039062;
102309;-0.034180;0.039062;1.039062;
102444;-0.034180;0.039062;1.039062;
102579;-0.034180;0.037109;1.038086;
102709;-0.034180;0.039062;1.039062;
102849;-0.035156;0.038086;1.039062;
102980;-0.033203;0.039062;1.039062;
103109;-0.034180;0.039062;1.038086;
103249;-0.035156;0.039062;1.041016;
103384;-0.035156;0.039062;1.039062;
103519;-0.034180;0.038086;1.039062;
103664;-0.034180;0.039062;1.040039;
103821;-0.034180;0.039062;1.039062;
103969;-0.034180;0.038086;1.039062;
104109;-0.034180;0.038086;1.039062;
104249;-0.033203;0.039062;1.037109;
104389;-0.033203;0.039062;1.039062;
104540;-0.033203;0.039062;1.040039;
104690;-0.033203;0.040039;1.038086;
104829;-0.033203;0.041016;1.039062;
104964;-0.035156;0.038086;1.037109;
105100;-0.034180;0.038086;1.039062;
105249;-0.035156;0.035156;1.039062;
105399;-0.034180;0.038086;1.038086;
105549;-0.035156;0.037109;1.038086;
105699;-0.034180;0.039062;1.040039;
105839;-0.033203;0.036133;1.038086;
105989;-0.034180;0.037109;1.038086;
106133;-0.033203;0.039062;1.039062;
106271;-0.036133;0.038086;1.039062;
106409;-0.034180;0.040039;1.037109;
106539;-0.034180;0.038086;1.040039;
106690;-0.035156;0.039062;1.038086;
106839;-0.034180;0.040039;1.039062;
106979;-0.035156;0.038086;1.040039;
107119;-0.034180;0.039062;1.038086;
107262;-0.035156;0.038086;1.038086;
107402;-0.035156;0.039062;1.040039;
107543;-0.034180;0.039062;1.039062;
107679;-0.035156;0.039062;1.038086;
107819;-0.035156;0.037109;1.039062;
107972;-0.034180;0.039062;1.040039;
108119;-0.034180;0.039062;1.039062;
108249;-0.035156;0.039062;1.040039;
108394;-0.033203;0.039062;1.038086;
108533;-0.035156;0.038086;1.039062;
108683;-0.035156;0.039062;1.040039;
108819;-0.033203;0.040039;1.039062;
108959;-0.034180;0.038086;1.039062;
109104;-0.034180;0.039062;1.039062;
109243;-0.034180;0.037109;1.038086;
109384;-0.035156;0.039062;1.038086;
109519;-0.034180;0.038086;1.038086;
109660;-0.034180;0.040039;1.040039;
109809;-0.034180;0.038086;1.039062;
109959;-0.033203;0.038086;1.038086;
110109;-0.033203;0.039062;1.039062;
110259;-0.035156;0.039062;1.038086;
110390;-0.033203;0.039062;1.039062;
110530;-0.035156;0.037109;1.039062;
110673;-0.034180;0.039062;1.039062;
110803;-0.035156;0.037109;1.039062;
110939;-0.033203;0.039062;1.039062;
111070;-0.033203;0.038086;1.037109;
111209;-0.035156;0.039062;1.040039;
111339;-0.035156;0.038086;1.038086;
111480;-0.034180;0.039062;1.039062;
111629;-0.035156;0.037109;1.041016;
111779;-0.035156;0.037109;1.039062;
111909;-0.033203;0.040039;1.040039;
112049;-0.032227;0.039062;1.038086;
112194;-0.034180;0.039062;1.037109;
112329;-0.034180;0.038086;1.039062;
112469;-0.035156;0.038086;1.038086;
112619;-0.034180;0.037109;1.040039;
112772;-0.033203;0.040039;1.040039;
112924;-0.034180;0.037109;1.040039;
113060;-0.034180;0.039062;1.040039;
113209;-0.036133;0.039062;1.038086;
113360;-0.033203;0.040039;1.039062;
113499;-0.034180;0.038086;1.039062;
113649;-0.035156;0.038086;1.038086;
113799;-0.034180;0.039062;1.040039;
113939;-0.035156;0.038086;1.039062;
114079;-0.034180;0.039062;1.038086;
114219;-0.034180;0.038086;1.038086;
114349;-0.033203;0.039062;1.038086;
114484;-0.034180;0.037109;1.040039;
114619;-0.033203;0.041016;1.039062;
114759;-0.034180;0.040039;1.039062;
114889;-0.035156;0.038086;1.039062;
115020;-0.034180;0.040039;1.039062;
115159;-0.034180;0.038086;1.037109;
115304;-0.033203;0.039062;1.038086;
115444;-0.035156;0.039062;1.039062;
115584;-0.035156;0.038086;1.040039;
115719;-0.034180;0.039062;1.040039;
115869;-0.034180;0.038086;1.038086;
116004;-0.034180;0.039062;1.038086;
116153;-0.034180;0.038086;1.038086;
116293;-0.034180;0.039062;1.038086;
116434;-0.034180;0.039062;1.038086;
116559;-0.035156;0.040039;1.040039;
116699;-0.034180;0.040039;1.039062;
116834;-0.033203;0.040039;1.039062;
116979;-0.034180;0.039062;1.037109;
117119;-0.033203;0.038086;1.039062;
117254;-0.036133;0.037109;1.038086;
117379;-0.034180;0.041016;1.039062;
117519;-0.033203;0.040039;1.038086;
117659;-0.034180;0.040039;1.039062;
117789;-0.033203;0.038086;1.038086;
117929;-0.034180;0.040039;1.041016;
118060;-0.034180;0.038086;1.040039;
118199;-0.034180;0.039062;1.039062;
118339;-0.034180;0.039062;1.040039;
118479;-0.033203;0.037109;1.037109;
118623;-0.033203;0.039062;1.038086;
118774;-0.035156;0.037109;1.039062;
118919;-0.033203;0.038086;1.038086;
119059;-0.034180;0.039062;1.040039;
119209;-0.035156;0.037109;1.039062;
119350;-0.035156;0.037109;1.038086;
119489;-0.035156;0.038086;1.037109;
119619;-0.034180;0.039062;1.038086;
119759;-0.033203;0.039062;1.039062;
119899;-0.034180;0.038086;1.039062;
120054;-0.034180;0.038086;1.038086;
120194;-0.035156;0.039062;1.040039;
120339;-0.035156;0.039062;1.038086;
120479;-0.033203;0.039062;1.039062;
120629;-0.034180;0.039062;1.039062;
120774;-0.034180;0.038086;1.039062;
120924;-0.035156;0.038086;1.040039;
121063;-0.033203;0.039062;1.039062;
121199;-0.034180;0.038086;1.039062;
121329;-0.034180;0.039062;1.039062;
121484;-0.033203;0.039062;1.038086;
121623;-0.035156;0.038086;1.039062;
121764;-0.033203;0.039062;1.039062;
121913;-0.035156;0.039062;1.039062;
122053;-0.034180;0.039062;1.040039;
122209;-0.034180;0.039062;1.039062;
122349;-0.034180;0.037109;1.038086;
122479;-0.034180;0.038086;1.040039;
122629;-0.033203;0.041016;1.039062;
122769;-0.034180;0.040039;1.039062;
122919;-0.035156;0.038086;1.039062;
123069;-0.035156;0.039062;1.039062;
123219;-0.034180;0.036133;1.038086;
123359;-0.034180;0.038086;1.039062;
123499;-0.034180;0.038086;1.037109;
123639;-0.033203;0.038086;1.038086;
123769;-0.034180;0.038086;1.040039;
123909;-0.034180;0.038086;1.038086;
124044;-0.034180;0.039062;1.039062;
124169;-0.034180;0.037109;1.037109;
124309;-0.033203;0.038086;1.039062;
124459;-0.035156;0.038086;1.039062;
124599;-0.034180;0.037109;1.040039;
124740;-0.033203;0.039062;1.039062;
124879;-0.033203;0.039062;1.040039;
125019;-0.035156;0.036133;1.036133;
125169;-0.035156;0.040039;1.039062;
125319;-0.033203;0.038086;1.040039;
125461;-0.034180;0.039062;1.038086;
125599;-0.034180;0.037109;1.039062;
125729;-0.033203;0.040039;1.038086;
125879;-0.035156;0.037109;1.038086;
126024;-0.035156;0.038086;1.039062;
126159;-0.034180;0.038086;1.037109;
126299;-0.032227;0.039062;1.040039;
126439;-0.033203;0.037109;1.038086;
126589;-0.033203;0.038086;1.039062;
126729;-0.035156;0.038086;1.039062;
126859;-0.033203;0.040039;1.038086;
127014;-0.033203;0.039062;1.039062;
127154;-0.034180;0.039062;1.039062;
127294;-0.033203;0.039062;1.037109;
127434;-0.034180;0.038086;1.040039;
127569;-0.035156;0.038086;1.038086;
127699;-0.034180;0.038086;1.040039;
127844;-0.034180;0.038086;1.039062;
127982;-0.034180;0.039062;1.039062;
128129;-0.036133;0.038086;1.040039;
128284;-0.034180;0.040039;1.039062;
128424;-0.034180;0.038086;1.039062;
128559;-0.034180;0.039062;1.038086;
128689;-0.034180;0.038086;1.038086;
128829;-0.033203;0.039062;1.040039;
128960;-0.035156;0.038086;1.038086;
129099;-0.035156;0.038086;1.040039;
129239;-0.033203;0.039062;1.039062;
129389;-0.035156;0.037109;1.038086;
129521;-0.034180;0.039062;1.040039;
129670;-0.035156;0.036133;1.040039;
129809;-0.035156;0.038086;1.040039;
129949;-0.033203;0.039062;1.039062;
130099;-0.034180;0.039062;1.039062;
130239;-0.034180;0.038086;1.038086;
130379;-0.035156;0.038086;1.039062;
130519;-0.034180;0.039062;1.039062;
130659;-0.034180;0.038086;1.039062;
130809;-0.034180;0.038086;1.040039;
130960;-0.034180;0.038086;1.038086;
131109;-0.034180;0.040039;1.038086;
131249;-0.034180;0.038086;1.038086;
131380;-0.034180;0.039062;1.039062;
131519;-0.033203;0.038086;1.038086;
131659;-0.034180;0.037109;1.039062;
131809;-0.034180;0.039062;1.039062;
131959;-0.034180;0.039062;1.037109;
132119;-0.033203;0.039062;1.040039;
132259;-0.035156;0.038086;1.037109;
132409;-0.034180;0.040039;1.039062;
132539;-0.034180;0.038086;1.039062;
132694;-0.034180;0.039062;1.037109;
132834;-0.033203;0.038086;1.040039;
132984;-0.035156;0.038086;1.040039;
133119;-0.034180;0.039062;1.040039;
133259;-0.034180;0.039062;1.039062;
133399;-0.035156;0.038086;1.038086;
133539;-0.035156;0.039062;1.040039;
133692;-0.035156;0.037109;1.039062;
133829;-0.034180;0.040039;1.040039;
133974;-0.034180;0.038086;1.038086;
134114;-0.035156;0.039062;1.040039;
134254;-0.035156;0.039062;1.040039;
134389;-0.034180;0.039062;1.039062;
134529;-0.034180;0.037109;1.039062;
134661;-0.034180;0.039062;1.038086;
134810;-0.034180;0.038086;1.038086;
134960;-0.035156;0.038086;1.039062;
135099;-0.033203;0.038086;1.037109;
135244;-0.033203;0.039062;1.040039;
135379;-0.035156;0.038086;1.039062;
135512;-0.035156;0.038086;1.041016;
135652;-0.035156;0.037109;1.037109;
135789;-0.033203;0.040039;1.039062;
135919;-0.035156;0.038086;1.039062;
136069;-0.033203;0.040039;1.039062;
136199;-0.033203;0.038086;1.038086;
136350;-0.034180;0.040039;1.040039;
136489;-0.035156;0.039062;1.040039;
136629;-0.034180;0.040039;1.039062;
136759;-0.035156;0.038086;1.039062;
136899;-0.033203;0.038086;1.040039;
137039;-0.034180;0.040039;1.040039;
137179;-0.034180;0.039062;1.039062;
137319;-0.033203;0.039062;1.038086;
137469;-0.035156;0.038086;1.039062;
137614;-0.034180;0.039062;1.040039;
137759;-0.035156;0.038086;1.038086;
137902;-0.033203;0.040039;1.040039;
138029;-0.034180;0.038086;1.037109;
138180;-0.034180;0.039062;1.039062;
138319;-0.034180;0.036133;1.039062;
138469;-0.034180;0.039062;1.040039;
138599;-0.034180;0.040039;1.038086;
138730;-0.036133;0.039062;1.039062;
138869;-0.034180;0.039062;1.040039;
139019;-0.034180;0.036133;1.040039;
139149;-0.035156;0.037109;1.040039;
139299;-0.034180;0.039062;1.039062;
139444;-0.036133;0.038086;1.039062;
139594;-0.035156;0.039062;1.039062;
139734;-0.034180;0.037109;1.039062;
139870;-0.032227;0.039062;1.038086;
139999;-0.034180;0.039062;1.039062;
140139;-0.034180;0.038086;1.040039;
140294;-0.034180;0.038086;1.039062;
140433;-0.034180;0.038086;1.040039;
140573;-0.035156;0.037109;1.039062;
140709;-0.033203;0.040039;1.040039;
140849;-0.034180;0.039062;1.040039;
140989;-0.033203;0.039062;1.039062;
141129;-0.034180;0.038086;1.037109;
141279;-0.034180;0.040039;1.040039;
141413;-0.034180;0.038086;1.038086;
141549;-0.034180;0.039062;1.039062;
141699;-0.034180;0.038086;1.038086;
141839;-0.035156;0.039062;1.039062;
141981;-0.035156;0.038086;1.038086;
142131;-0.033203;0.039062;1.039062;
142279;-0.033203;0.039062;1.038086;
142419;-0.035156;0.039062;1.040039;
142569;-0.035156;0.038086;1.039062;
142704;-0.033203;0.039062;1.039062;
142839;-0.033203;0.039062;1.036133;
142979;-0.034180;0.039062;1.038086;
143129;-0.034180;0.039062;1.040039;
143269;-0.035156;0.037109;1.038086;
143409;-0.034180;0.038086;1.037109;
143549;-0.033203;0.039062;1.039062;
143689;-0.034180;0.039062;1.039062;
143839;-0.034180;0.038086;1.040039;
143979;-0.035156;0.038086;1.038086;
144122;-0.034180;0.039062;1.038086;
144263;-0.035156;0.038086;1.040039;
144399;-0.035156;0.038086;1.040039;
144539;-0.033203;0.038086;1.037109;
144684;-0.034180;0.038086;1.039062;
144824;-0.034180;0.039062;1.039062;
144964;-0.034180;0.037109;1.037109;
145109;-0.034180;0.040039;1.037109;
145249;-0.034180;0.038086;1.040039;
145389;-0.034180;0.038086;1.037109;
145544;-0.035156;0.039062;1.038086;
145683;-0.034180;0.038086;1.039062;
145824;-0.033203;0.040039;1.038086;
145969;-0.035156;0.037109;1.039062;
146109;-0.035156;0.039062;1.040039;
146249;-0.033203;0.038086;1.038086;
146389;-0.035156;0.039062;1.039062;
146530;-0.034180;0.037109;1.039062;
146669;-0.033203;0.039062;1.041016;
146799;-0.034180;0.038086;1.040039;
146940;-0.033203;0.040039;1.037109;
147089;-0.035156;0.039062;1.038086;
147219;-0.035156;0.038086;1.040039;
147369;-0.035156;0.038086;1.040039;
147509;-0.034180;0.037109;1.038086;
147659;-0.034180;0.038086;1.038086;
147799;-0.033203;0.037109;1.037109;
147929;-0.034180;0.039062;1.040039;
148069;-0.034180;0.040039;1.039062;
148209;-0.034180;0.038086;1.039062;
148351;-0.034180;0.038086;1.040039;
148489;-0.035156;0.040039;1.041992;
148639;-0.033203;0.036133;1.039062;
148779;-0.033203;0.039062;1.039062;
148919;-0.034180;0.039062;1.038086;
149050;-0.034180;0.039062;1.040039;
149189;-0.035156;0.037109;1.038086;
149319;-0.034180;0.039062;1.038086;
149459;-0.034180;0.039062;1.037109;
149610;-0.035156;0.040039;1.039062;
149740;-0.034180;0.039062;1.038086;
149879;-0.034180;0.037109;1.038086;
150029;-0.034180;0.038086;1.041016;
150171;-0.034180;0.038086;1.037109;
150319;-0.034180;0.037109;1.038086;
150464;-0.035156;0.039062;1.040039;
150599;-0.034180;0.039062;1.038086;
150729;-0.035156;0.038086;1.040039;
150871;-0.034180;0.040039;1.038086;
150999;-0.036133;0.038086;1.039062;
151139;-0.033203;0.041016;1.037109;
151281;-0.034180;0.038086;1.038086;
151423;-0.033203;0.039062;1.040039;
151563;-0.034180;0.039062;1.038086;
151703;-0.034180;0.039062;1.038086;
151844;-0.035156;0.038086;1.039062;
151979;-0.034180;0.039062;1.041016;
152124;-0.033203;0.039062;1.039062;
152274;-0.034180;0.039062;1.041016;
152409;-0.034180;0.039062;1.037109;
152539;-0.034180;0.039062;1.040039;
152670;-0.035156;0.039062;1.041016;
152809;-0.034180;0.038086;1.038086;
152940;-0.035156;0.039062;1.041016;
153079;-0.035156;0.038086;1.040039;
153229;-0.035156;0.039062;1.041016;
153380;-0.034180;0.039062;1.039062;
153519;-0.033203;0.038086;1.039062;
153653;-0.035156;0.039062;1.038086;
153780;-0.034180;0.038086;1.038086;
153919;-0.034180;0.039062;1.040039;
154059;-0.033203;0.039062;1.039062;
154199;-0.035156;0.038086;1.039062;
154339;-0.034180;0.037109;1.039062;
154479;-0.034180;0.039062;1.039062;
154619;-0.034180;0.039062;1.038086;
154769;-0.034180;0.039062;1.041016;
154909;-0.035156;0.039062;1.040039;
155050;-0.036133;0.037109;1.038086;
155179;-0.035156;0.038086;1.040039;
155319;-0.035156;0.039062;1.039062;
155459;-0.033203;0.039062;1.038086;
155600;-0.034180;0.038086;1.039062;
155739;-0.034180;0.037109;1.038086;
155889;-0.033203;0.038086;1.039062;
156039;-0.035156;0.039062;1.039062;
156179;-0.034180;0.040039;1.037109;
156324;-0.034180;0.039062;1.038086;
156459;-0.034180;0.038086;1.040039;
156599;-0.035156;0.037109;1.038086;
156729;-0.034180;0.038086;1.039062;
156869;-0.034180;0.038086;1.039062;
157014;-0.034180;0.040039;1.037109;
157164;-0.035156;0.038086;1.039062;
157304;-0.034180;0.038086;1.041016;
157439;-0.034180;0.039062;1.040039;
157589;-0.033203;0.038086;1.039062;
157733;-0.034180;0.037109;1.041016;
157874;-0.032227;0.040039;1.039062;
158014;-0.035156;0.037109;1.039062;
158159;-0.035156;0.039062;1.038086;
158309;-0.034180;0.041016;1.038086;
158439;-0.034180;0.039062;1.038086;
158589;-0.035156;0.038086;1.038086;
158729;-0.034180;0.037109;1.037109;
158869;-0.033203;0.038086;1.039062;
159009;-0.034180;0.038086;1.038086;
159149;-0.034180;0.040039;1.039062;
159284;-0.035156;0.038086;1.040039;
159424;-0.034180;0.037109;1.038086;
159569;-0.034180;0.036133;1.039062;
159710;-0.034180;0.040039;1.040039;
159859;-0.035156;0.039062;1.037109;
159999;-0.034180;0.040039;1.040039;
160149;-0.035156;0.038086;1.040039;
160289;-0.033203;0.038086;1.039062;
160419;-0.034180;0.037109;1.036133;
160549;-0.034180;0.039062;1.039062;
160699;-0.033203;0.039062;1.039062;
160839;-0.035156;0.038086;1.038086;
160979;-0.033203;0.039062;1.040039;
161129;-0.035156;0.038086;1.037109;
161280;-0.034180;0.039062;1.039062;
161429;-0.034180;0.039062;1.041016;
161579;-0.035156;0.038086;1.038086;
161714;-0.034180;0.039062;1.040039;
161851;-0.033203;0.040039;1.039062;
161979;-0.034180;0.041016;1.039062;
162119;-0.034180;0.041992;1.039062;
162259;-0.034180;0.039062;1.040039;
162409;-0.034180;0.037109;1.038086;
162559;-0.034180;0.038086;1.040039;
162699;-0.034180;0.038086;1.039062;
162839;-0.034180;0.039062;1.040039;
162980;-0.035156;0.040039;1.038086;
163109;-0.034180;0.038086;1.040039;
163249;-0.035156;0.038086;1.040039;
163399;-0.034180;0.039062;1.039062;
163540;-0.034180;0.037109;1.041016;
163679;-0.034180;0.038086;1.039062;
163809;-0.034180;0.039062;1.040039;
163939;-0.034180;0.039062;1.040039;
164084;-0.034180;0.039062;1.039062;
164224;-0.034180;0.038086;1.038086;
164364;-0.035156;0.037109;1.040039;
164500;-0.033203;0.038086;1.039062;
164629;-0.034180;0.040039;1.040039;
164760;-0.034180;0.038086;1.040039;
164904;-0.033203;0.040039;1.038086;
165044;-0.034180;0.039062;1.039062;
165193;-0.035156;0.039062;1.040039;
165329;-0.033203;0.040039;1.039062;
165469;-0.035156;0.039062;1.039062;
165609;-0.034180;0.040039;1.040039;
165759;-0.033203;0.039062;1.038086;
165899;-0.033203;0.040039;1.040039;
166039;-0.034180;0.039062;1.039062;
166179;-0.034180;0.038086;1.039062;
166323;-0.035156;0.039062;1.039062;
166464;-0.034180;0.040039;1.040039;
166599;-0.034180;0.038086;1.039062;
166749;-0.034180;0.039062;1.038086;
166889;-0.034180;0.037109;1.039062;
167030;-0.034180;0.037109;1.039062;
167179;-0.034180;0.040039;1.038086;
167319;-0.034180;0.040039;1.039062;
167469;-0.035156;0.039062;1.040039;
167614;-0.034180;0.039062;1.039062;
167764;-0.035156;0.038086;1.040039;
167913;-0.035156;0.038086;1.038086;
168050;-0.035156;0.039062;1.039062;
168201;-0.035156;0.038086;1.039062;
168349;-0.033203;0.041016;1.039062;
168489;-0.034180;0.038086;1.039062;
168629;-0.035156;0.040039;1.039062;
168760;-0.034180;0.039062;1.038086;
168899;-0.034180;0.040039;1.040039;
169039;-0.032227;0.039062;1.040039;
169179;-0.033203;0.038086;1.039062;
169333;-0.035156;0.037109;1.040039;
169469;-0.034180;0.039062;1.037109;
169619;-0.034180;0.038086;1.039062;
169759;-0.035156;0.039062;1.039062;
169899;-0.034180;0.039062;1.039062;
170049;-0.035156;0.037109;1.040039;
170189;-0.033203;0.038086;1.040039;
170334;-0.034180;0.039062;1.038086;
170474;-0.034180;0.040039;1.038086;
170614;-0.035156;0.039062;1.039062;
170749;-0.034180;0.039062;1.039062;
170893;-0.034180;0.038086;1.039062;
171039;-0.034180;0.040039;1.041016;
171184;-0.034180;0.038086;1.039062;
171323;-0.034180;0.038086;1.039062;
171464;-0.034180;0.039062;1.038086;
171599;-0.036133;0.038086;1.040039;
171739;-0.034180;0.039062;1.040039;
171879;-0.034180;0.039062;1.040039;
172023;-0.034180;0.039062;1.038086;
172159;-0.033203;0.040039;1.038086;
172299;-0.035156;0.037109;1.038086;
172439;-0.035156;0.037109;1.039062;
172589;-0.032227;0.039062;1.040039;
172729;-0.034180;0.037109;1.038086;
172879;-0.035156;0.038086;1.039062;
173029;-0.034180;0.038086;1.040039;
173169;-0.034180;0.039062;1.038086;
173319;-0.034180;0.037109;1.038086;
173469;-0.035156;0.038086;1.039062;
173619;-0.034180;0.039062;1.038086;
173759;-0.033203;0.039062;1.038086;
173909;-0.033203;0.038086;1.037109;
174059;-0.034180;0.039062;1.039062;
174209;-0.034180;0.037109;1.039062;
174351;-0.034180;0.039062;1.039062;
174499;-0.035156;0.039062;1.039062;
174629;-0.035156;0.040039;1.040039;
174769;-0.034180;0.039062;1.039062;
174909;-0.034180;0.039062;1.039062;
175053;-0.034180;0.038086;1.038086;
175199;-0.034180;0.040039;1.039062;
175349;-0.034180;0.038086;1.041016;
175489;-0.033203;0.039062;1.039062;
175629;-0.033203;0.040039;1.039062;
175779;-0.035156;0.040039;1.040039;
175919;-0.035156;0.040039;1.039062;
176059;-0.033203;0.038086;1.038086;
176209;-0.035156;0.037109;1.038086;
176344;-0.035156;0.039062;1.039062;
176489;-0.035156;0.039062;1.039062;
176634;-0.033203;0.038086;1.039062;
176773;-0.034180;0.038086;1.038086;
176914;-0.034180;0.040039;1.039062;
177049;-0.034180;0.039062;1.039062;
177200;-0.034180;0.040039;1.041016;
177329;-0.034180;0.039062;1.040039;
177484;-0.035156;0.039062;1.038086;
177624;-0.033203;0.038086;1.039062;
177764;-0.034180;0.039062;1.041016;
177909;-0.034180;0.039062;1.038086;
178049;-0.033203;0.039062;1.040039;
178189;-0.033203;0.038086;1.037109;
178329;-0.033203;0.038086;1.039062;
178469;-0.035156;0.036133;1.038086;
178609;-0.036133;0.037109;1.039062;
178744;-0.033203;0.040039;1.039062;
178879;-0.035156;0.037109;1.038086;
179019;-0.034180;0.041992;1.038086;
179149;-0.036133;0.038086;1.039062;
179299;-0.034180;0.038086;1.040039;
179439;-0.034180;0.039062;1.039062;
179589;-0.034180;0.037109;1.038086;
179719;-0.033203;0.039062;1.039062;
179859;-0.035156;0.039062;1.039062;
179999;-0.034180;0.039062;1.038086;
180139;-0.035156;0.038086;1.039062;
180279;-0.034180;0.039062;1.038086;
180429;-0.034180;0.038086;1.040039;
180579;-0.034180;0.039062;1.040039;
180709;-0.035156;0.038086;1.038086;
180849;-0.033203;0.040039;1.039062;
180989;-0.034180;0.040039;1.039062;
181119;-0.034180;0.039062;1.040039;
181249;-0.034180;0.039062;1.039062;
181389;-0.034180;0.040039;1.040039;
181539;-0.034180;0.038086;1.037109;
181679;-0.033203;0.038086;1.040039;
181819;-0.034180;0.038086;1.040039;
181974;-0.033203;0.039062;1.039062;
182114;-0.033203;0.040039;1.040039;
182264;-0.035156;0.038086;1.040039;
182403;-0.034180;0.040039;1.039062;
182539;-0.032227;0.040039;1.041016;
182684;-0.033203;0.039062;1.039062;
182824;-0.032227;0.040039;1.038086;
182964;-0.034180;0.037109;1.038086;
183099;-0.034180;0.039062;1.040039;
183239;-0.033203;0.039062;1.037109;
183379;-0.033203;0.039062;1.040039;
183524;-0.034180;0.038086;1.037109;
183659;-0.033203;0.039062;1.039062;
183810;-0.034180;0.038086;1.040039;
183959;-0.034180;0.039062;1.039062;
184099;-0.034180;0.037109;1.038086;
184249;-0.034180;0.038086;1.039062;
184400;-0.033203;0.039062;1.036133;
184539;-0.034180;0.040039;1.039062;
184679;-0.034180;0.038086;1.039062;
184824;-0.033203;0.039062;1.038086;
184974;-0.033203;0.039062;1.039062;
185109;-0.034180;0.038086;1.037109;
185239;-0.035156;0.039062;1.039062;
185379;-0.035156;0.039062;1.039062;
185509;-0.032227;0.039062;1.038086;
185649;-0.035156;0.037109;1.037109;
185789;-0.034180;0.040039;1.040039;
185939;-0.034180;0.038086;1.037109;
186079;-0.034180;0.037109;1.036133;
186229;-0.034180;0.040039;1.039062;
186369;-0.035156;0.039062;1.038086;
186519;-0.033203;0.038086;1.040039;
186669;-0.034180;0.037109;1.038086;
186819;-0.034180;0.041016;1.039062;
186963;-0.033203;0.039062;1.040039;
187113;-0.034180;0.038086;1.039062;
187254;-0.034180;0.039062;1.039062;
187394;-0.033203;0.040039;1.039062;
187530;-0.036133;0.038086;1.039062;
187670;-0.035156;0.039062;1.040039;
187809;-0.034180;0.036133;1.038086;
187943;-0.035156;0.038086;1.039062;
188094;-0.034180;0.037109;1.039062;
188244;-0.034180;0.039062;1.037109;
188384;-0.033203;0.040039;1.038086;
188533;-0.034180;0.039062;1.039062;
188669;-0.034180;0.038086;1.039062;
188819;-0.035156;0.038086;1.038086;
188949;-0.034180;0.038086;1.039062;
189089;-0.034180;0.037109;1.039062;
189220;-0.034180;0.040039;1.040039;
189369;-0.034180;0.038086;1.039062;
189509;-0.034180;0.040039;1.039062;
189649;-0.033203;0.039062;1.036133;
189789;-0.033203;0.039062;1.039062;
189929;-0.033203;0.041016;1.039062;
190069;-0.034180;0.040039;1.040039;
190219;-0.034180;0.038086;1.038086;
190359;-0.035156;0.038086;1.038086;
190499;-0.034180;0.038086;1.039062;
190634;-0.034180;0.038086;1.039062;
190774;-0.033203;0.039062;1.038086;
190919;-0.033203;0.038086;1.039062;
191059;-0.034180;0.041016;1.040039;
191199;-0.034180;0.040039;1.039062;
191339;-0.032227;0.040039;1.040039;
191479;-0.034180;0.038086;1.039062;
191609;-0.034180;0.039062;1.039062;
191759;-0.034180;0.039062;1.040039;
191909;-0.035156;0.037109;1.040039;
192049;-0.034180;0.038086;1.038086;
192199;-0.034180;0.039062;1.041016;
192344;-0.036133;0.038086;1.040039;
192494;-0.035156;0.036133;1.039062;
192634;-0.034180;0.038086;1.039062;
192769;-0.034180;0.038086;1.039062;
192924;-0.034180;0.038086;1.039062;
193063;-0.034180;0.039062;1.038086;
193204;-0.034180;0.036133;1.038086;
193339;-0.034180;0.038086;1.039062;
193479;-0.035156;0.038086;1.038086;
193611;-0.034180;0.038086;1.040039;
193754;-0.034180;0.038086;1.040039;
193903;-0.034180;0.040039;1.040039;
194044;-0.034180;0.038086;1.039062;
194193;-0.035156;0.037109;1.039062;
194329;-0.034180;0.039062;1.039062;
194464;-0.033203;0.038086;1.039062;
194599;-0.032227;0.039062;1.041992;
194749;-0.034180;0.040039;1.039062;
194899;-0.033203;0.037109;1.038086;
195039;-0.034180;0.039062;1.040039;
195189;-0.034180;0.039062;1.040039;
195330;-0.034180;0.039062;1.037109;
195474;-0.033203;0.038086;1.039062;
195620;-0.034180;0.038086;1.039062;
195759;-0.034180;0.038086;1.036133;
195909;-0.033203;0.038086;1.039062;
196059;-0.034180;0.038086;1.039062;
196209;-0.034180;0.037109;1.037109;
196349;-0.034180;0.038086;1.039062;
196489;-0.035156;0.037109;1.041992;
196629;-0.033203;0.038086;1.040039;
196769;-0.033203;0.039062;1.039062;
196899;-0.033203;0.038086;1.037109;
197039;-0.034180;0.038086;1.039062;
197179;-0.035156;0.038086;1.039062;
197329;-0.033203;0.038086;1.041016;
197469;-0.033203;0.039062;1.038086;
197619;-0.035156;0.037109;1.038086;
197760;-0.034180;0.039062;1.038086;
197902;-0.034180;0.039062;1.038086;
198040;-0.033203;0.039062;1.040039;
198184;-0.034180;0.039062;1.041016;
198319;-0.033203;0.038086;1.038086;
198454;-0.034180;0.039062;1.040039;
198604;-0.034180;0.037109;1.039062;
198744;-0.033203;0.038086;1.038086;
198884;-0.033203;0.038086;1.038086;
199009;-0.035156;0.039062;1.040039;
199149;-0.033203;0.039062;1.038086;
199284;-0.033203;0.039062;1.041992;
199423;-0.034180;0.037109;1.039062;
199564;-0.033203;0.039062;1.038086;
199714;-0.035156;0.040039;1.040039;
199849;-0.034180;0.038086;1.041016;
199994;-0.033203;0.039062;1.039062;
200130;-0.034180;0.038086;1.037109;
200269;-0.034180;0.040039;1.039062;
200399;-0.034180;0.039062;1.039062;
200540;-0.034180;0.037109;1.040039;
200683;-0.035156;0.039062;1.040039;
200829;-0.033203;0.038086;1.038086;
200959;-0.033203;0.038086;1.039062;
201099;-0.035156;0.039062;1.040039;
201240;-0.034180;0.038086;1.040039;
201389;-0.035156;0.038086;1.039062;
201539;-0.033203;0.040039;1.039062;
201679;-0.034180;0.040039;1.040039;
201819;-0.034180;0.039062;1.038086;
201959;-0.034180;0.038086;1.038086;
202102;-0.035156;0.038086;1.039062;
202239;-0.034180;0.037109;1.039062;
202389;-0.034180;0.038086;1.038086;
202539;-0.034180;0.037109;1.040039;
202670;-0.034180;0.038086;1.038086;
202809;-0.033203;0.040039;1.039062;
202949;-0.034180;0.038086;1.038086;
203089;-0.034180;0.039062;1.039062;
203229;-0.034180;0.038086;1.038086;
203379;-0.034180;0.039062;1.039062;
203519;-0.034180;0.038086;1.038086;
203660;-0.034180;0.039062;1.039062;
203799;-0.036133;0.038086;1.041016;
203939;-0.034180;0.038086;1.040039;
204089;-0.034180;0.038086;1.039062;
204234;-0.035156;0.038086;1.039062;
204374;-0.034180;0.040039;1.040039;
204524;-0.033203;0.039062;1.041016;
204659;-0.034180;0.037109;1.039062;
204794;-0.034180;0.037109;1.040039;
204939;-0.035156;0.038086;1.038086;
205089;-0.034180;0.039062;1.039062;
205244;-0.035156;0.038086;1.040039;
205384;-0.034180;0.040039;1.040039;
205533;-0.034180;0.038086;1.038086;
205669;-0.033203;0.039062;1.038086;
205799;-0.033203;0.041016;1.039062;
205933;-0.034180;0.038086;1.039062;
206074;-0.034180;0.038086;1.039062;
206213;-0.035156;0.039062;1.038086;
206344;-0.034180;0.039062;1.040039;
206480;-0.034180;0.038086;1.041016;
206629;-0.034180;0.038086;1.038086;
206779;-0.034180;0.037109;1.038086;
206929;-0.035156;0.038086;1.039062;
207069;-0.034180;0.039062;1.039062;
207209;-0.034180;0.038086;1.040039;
207349;-0.033203;0.040039;1.038086;
207484;-0.035156;0.038086;1.039062;
207629;-0.034180;0.039062;1.039062;
207769;-0.033203;0.038086;1.038086;
207909;-0.034180;0.040039;1.040039;
208049;-0.033203;0.040039;1.038086;
208199;-0.033203;0.039062;1.040039;
208339;-0.032227;0.039062;1.038086;
208479;-0.034180;0.039062;1.039062;
208612;-0.034180;0.039062;1.039062;
208739;-0.034180;0.037109;1.039062;
208879;-0.033203;0.039062;1.040039;
209029;-0.034180;0.038086;1.039062;
209179;-0.034180;0.040039;1.041016;
209319;-0.035156;0.039062;1.039062;
209469;-0.033203;0.038086;1.039062;
209609;-0.034180;0.037109;1.039062;
209754;-0.034180;0.039062;1.039062;
209889;-0.034180;0.038086;1.040039;
210024;-0.034180;0.038086;1.039062;
210164;-0.034180;0.037109;1.038086;
210304;-0.035156;0.038086;1.039062;
210444;-0.036133;0.037109;1.039062;
210579;-0.034180;0.039062;1.038086;
210719;-0.034180;0.039062;1.039062;
210854;-0.034180;0.037109;1.038086;
210993;-0.034180;0.037109;1.038086;
211134;-0.034180;0.038086;1.040039;
211269;-0.034180;0.040039;1.038086;
211411;-0.035156;0.038086;1.039062;
211559;-0.034180;0.040039;1.040039;
211699;-0.033203;0.039062;1.038086;
211849;-0.033203;0.038086;1.040039;
211989;-0.034180;0.038086;1.040039;
212139;-0.034180;0.039062;1.037109;
212279;-0.034180;0.040039;1.040039;
212410;-0.033203;0.038086;1.038086;
212559;-0.034180;0.038086;1.039062;
212700;-0.034180;0.039062;1.039062;
212839;-0.035156;0.037109;1.039062;
212979;-0.034180;0.039062;1.039062;
213119;-0.034180;0.039062;1.039062;
213269;-0.033203;0.040039;1.039062;
213409;-0.035156;0.039062;1.039062;
213549;-0.035156;0.038086;1.040039;
213689;-0.035156;0.039062;1.039062;
213829;-0.035156;0.039062;1.039062;
213961;-0.034180;0.038086;1.040039;
214099;-0.035156;0.038086;1.038086;
214229;-0.034180;0.037109;1.039062;
214374;-0.034180;0.038086;1.038086;
214519;-0.034180;0.039062;1.038086;
214661;-0.033203;0.041016;1.038086;
214799;-0.034180;0.039062;1.040039;
214939;-0.034180;0.040039;1.040039;
215069;-0.036133;0.040039;1.039062;
215199;-0.034180;0.039062;1.039062;
215344;-0.034180;0.039062;1.038086;
215484;-0.034180;0.039062;1.039062;
215634;-0.034180;0.038086;1.039062;
215774;-0.035156;0.037109;1.040039;
215909;-0.035156;0.038086;1.040039;
216052;-0.035156;0.040039;1.040039;
216184;-0.033203;0.040039;1.038086;
216320;-0.032227;0.040039;1.039062;
216473;-0.034180;0.038086;1.040039;
216619;-0.034180;0.039062;1.039062;
216764;-0.034180;0.038086;1.040039;
216903;-0.033203;0.039062;1.038086;
217039;-0.034180;0.037109;1.038086;
217179;-0.034180;0.037109;1.039062;
217309;-0.035156;0.038086;1.038086;
217460;-0.033203;0.038086;1.038086;
217599;-0.034180;0.039062;1.038086;
217749;-0.033203;0.038086;1.039062;
217889;-0.034180;0.038086;1.040039;
218029;-0.035156;0.039062;1.038086;
218169;-0.035156;0.039062;1.040039;
218310;-0.035156;0.038086;1.039062;
218449;-0.033203;0.038086;1.040039;
218589;-0.035156;0.039062;1.038086;
218729;-0.034180;0.038086;1.038086;
218871;-0.034180;0.038086;1.038086;
219000;-0.033203;0.041016;1.038086;
219129;-0.035156;0.038086;1.038086;
219279;-0.035156;0.038086;1.039062;
219409;-0.034180;0.038086;1.038086;
219560;-0.035156;0.038086;1.039062;
219699;-0.035156;0.038086;1.038086;
219849;-0.035156;0.039062;1.040039;
219979;-0.034180;0.039062;1.039062;
220119;-0.034180;0.037109;1.038086;
220264;-0.035156;0.036133;1.038086;
220409;-0.035156;0.039062;1.039062;
220559;-0.033203;0.041016;1.038086;
220703;-0.034180;0.040039;1.039062;
220844;-0.034180;0.037109;1.038086;
220984;-0.033203;0.039062;1.040039;
221119;-0.034180;0.038086;1.038086;
221249;-0.034180;0.037109;1.037109;
221389;-0.034180;0.038086;1.039062;
221534;-0.034180;0.038086;1.040039;
221674;-0.034180;0.039062;1.038086;
221824;-0.035156;0.039062;1.039062;
221959;-0.034180;0.039062;1.039062;
222103;-0.033203;0.037109;1.039062;
222229;-0.032227;0.040039;1.039062;
222360;-0.033203;0.038086;1.040039;
222500;-0.035156;0.040039;1.040039;
222639;-0.034180;0.039062;1.039062;
222789;-0.033203;0.038086;1.038086;
222939;-0.035156;0.039062;1.041016;
223069;-0.034180;0.039062;1.041016;
223213;-0.034180;0.039062;1.039062;
223339;-0.034180;0.037109;1.040039;
223479;-0.034180;0.039062;1.038086;
223629;-0.033203;0.039062;1.038086;
223769;-0.034180;0.038086;1.041016;
223919;-0.035156;0.037109;1.039062;
224059;-0.034180;0.040039;1.039062;
224189;-0.034180;0.040039;1.038086;
224333;-0.035156;0.038086;1.039062;
224479;-0.033203;0.038086;1.037109;
224629;-0.034180;0.039062;1.039062;
224769;-0.033203;0.039062;1.039062;
224899;-0.033203;0.040039;1.039062;
225049;-0.034180;0.040039;1.039062;
225189;-0.035156;0.040039;1.040039;
225329;-0.034180;0.037109;1.038086;
225459;-0.034180;0.039062;1.039062;
225589;-0.034180;0.037109;1.037109;
225734;-0.034180;0.040039;1.040039;
225874;-0.034180;0.038086;1.037109;
226013;-0.034180;0.038086;1.038086;
226153;-0.034180;0.038086;1.039062;
226289;-0.034180;0.039062;1.039062;
226443;-0.035156;0.038086;1.038086;
226583;-0.035156;0.039062;1.039062;
226723;-0.035156;0.038086;1.039062;
226859;-0.034180;0.039062;1.040039;
227009;-0.034180;0.037109;1.041016;
227140;-0.033203;0.039062;1.040039;
227274;-0.034180;0.039062;1.038086;
227409;-0.034180;0.039062;1.039062;
227540;-0.034180;0.040039;1.038086;
227679;-0.035156;0.039062;1.039062;
227809;-0.034180;0.039062;1.039062;
227949;-0.033203;0.039062;1.037109;
228079;-0.034180;0.038086;1.040039;
228220;-0.033203;0.040039;1.039062;
228359;-0.034180;0.039062;1.040039;
228489;-0.033203;0.038086;1.038086;
228629;-0.035156;0.038086;1.039062;
228759;-0.033203;0.039062;1.039062;
228909;-0.035156;0.039062;1.040039;
229039;-0.035156;0.038086;1.039062;
229189;-0.035156;0.041992;1.039062;
229329;-0.035156;0.037109;1.039062;
229479;-0.033203;0.039062;1.037109;
229619;-0.035156;0.038086;1.038086;
229770;-0.034180;0.039062;1.040039;
229909;-0.034180;0.038086;1.038086;
230059;-0.035156;0.039062;1.040039;
230199;-0.034180;0.039062;1.039062;
230349;-0.034180;0.039062;1.037109;
230499;-0.035156;0.040039;1.040039;
230649;-0.035156;0.038086;1.037109;
230799;-0.033203;0.039062;1.039062;
230954;-0.033203;0.038086;1.040039;
231104;-0.034180;0.037109;1.038086;
231243;-0.034180;0.039062;1.039062;
231383;-0.033203;0.038086;1.039062;
231509;-0.034180;0.039062;1.039062;
231643;-0.035156;0.040039;1.038086;
231782;-0.034180;0.038086;1.040039;
231929;-0.034180;0.039062;1.038086;
232059;-0.032227;0.040039;1.039062;
232204;-0.034180;0.039062;1.040039;
232344;-0.032227;0.039062;1.039062;
232484;-0.035156;0.038086;1.039062;
232619;-0.034180;0.038086;1.039062;
232779;-0.034180;0.038086;1.038086;
232929;-0.034180;0.038086;1.040039;
233069;-0.034180;0.040039;1.040039;
233210;-0.034180;0.039062;1.040039;
233359;-0.034180;0.041016;1.040039;
233499;-0.035156;0.038086;1.039062;
233654;-0.035156;0.037109;1.039062;
233799;-0.034180;0.037109;1.039062;
233929;-0.035156;0.038086;1.039062;
234074;-0.032227;0.038086;1.040039;
234199;-0.035156;0.036133;1.040039;
234330;-0.035156;0.038086;1.039062;
234469;-0.035156;0.037109;1.039062;
234619;-0.035156;0.037109;1.039062;
234759;-0.034180;0.039062;1.039062;
234909;-0.034180;0.038086;1.039062;
235049;-0.033203;0.038086;1.038086;
235199;-0.034180;0.039062;1.039062;
235339;-0.034180;0.038086;1.038086;
235479;-0.034180;0.038086;1.037109;
235609;-0.035156;0.039062;1.041016;
235739;-0.033203;0.039062;1.039062;
235879;-0.034180;0.039062;1.040039;
236029;-0.033203;0.040039;1.038086;
236169;-0.033203;0.039062;1.038086;
236319;-0.034180;0.038086;1.039062;
236470;-0.034180;0.037109;1.038086;
236614;-0.034180;0.039062;1.038086;
236754;-0.034180;0.040039;1.040039;
236894;-0.034180;0.039062;1.038086;
237034;-0.033203;0.039062;1.039062;
237183;-0.034180;0.039062;1.039062;
237319;-0.033203;0.039062;1.039062;
237459;-0.035156;0.039062;1.039062;
237600;-0.034180;0.040039;1.039062;
237744;-0.034180;0.039062;1.039062;
237883;-0.035156;0.039062;1.040039;
238023;-0.034180;0.038086;1.038086;
238165;-0.035156;0.037109;1.039062;
238310;-0.035156;0.038086;1.039062;
238459;-0.033203;0.039062;1.039062;
238599;-0.035156;0.040039;1.040039;
238751;-0.033203;0.040039;1.040039;
238879;-0.034180;0.039062;1.039062;
239019;-0.035156;0.039062;1.040039;
239150;-0.033203;0.037109;1.039062;
239289;-0.035156;0.037109;1.038086;
239420;-0.034180;0.038086;1.038086;
239559;-0.034180;0.038086;1.040039;
239689;-0.034180;0.038086;1.040039;
239829;-0.035156;0.039062;1.040039;
239979;-0.034180;0.038086;1.039062;
240130;-0.034180;0.038086;1.039062;
240279;-0.034180;0.039062;1.039062;
240424;-0.034180;0.037109;1.039062;
240573;-0.035156;0.040039;1.040039;
240700;-0.034180;0.038086;1.038086;
240839;-0.034180;0.039062;1.039062;
240970;-0.034180;0.038086;1.038086;
241109;-0.035156;0.038086;1.040039;
241239;-0.033203;0.039062;1.040039;
241379;-0.034180;0.040039;1.040039;
241520;-0.034180;0.040039;1.039062;
241659;-0.033203;0.040039;1.039062;
241789;-0.035156;0.038086;1.040039;
241934;-0.033203;0.038086;1.039062;
242069;-0.035156;0.039062;1.041016;
242209;-0.034180;0.039062;1.039062;
242359;-0.034180;0.038086;1.040039;
242509;-0.035156;0.038086;1.040039;
242649;-0.034180;0.039062;1.040039;
242781;-0.033203;0.040039;1.040039;
242919;-0.034180;0.039062;1.040039;
243069;-0.033203;0.039062;1.039062;
243200;-0.034180;0.040039;1.039062;
243341;-0.035156;0.038086;1.040039;
243479;-0.034180;0.040039;1.039062;
243629;-0.034180;0.037109;1.038086;
243774;-0.034180;0.040039;1.041016;
243919;-0.034180;0.038086;1.040039;
244059;-0.033203;0.040039;1.039062;
244199;-0.034180;0.040039;1.040039;
244353;-0.035156;0.038086;1.038086;
244494;-0.034180;0.038086;1.040039;
244633;-0.034180;0.038086;1.040039;
244769;-0.035156;0.038086;1.039062;
244900;-0.034180;0.037109;1.040039;
245044;-0.034180;0.039062;1.038086;
245179;-0.034180;0.041016;1.038086;
245309;-0.034180;0.038086;1.039062;
245454;-0.033203;0.039062;1.040039;
245593;-0.036133;0.038086;1.039062;
245734;-0.034180;0.039062;1.039062;
245869;-0.036133;0.038086;1.039062;
246009;-0.033203;0.040039;1.039062;
246159;-0.034180;0.037109;1.038086;
246309;-0.034180;0.041016;1.040039;
246459;-0.035156;0.038086;1.038086;
246609;-0.036133;0.039062;1.041016;
246739;-0.035156;0.038086;1.039062;
246879;-0.034180;0.037109;1.040039;
247009;-0.034180;0.037109;1.039062;
247139;-0.035156;0.038086;1.039062;
247289;-0.034180;0.039062;1.039062;
247429;-0.034180;0.038086;1.039062;
247569;-0.033203;0.039062;1.040039;
247720;-0.034180;0.038086;1.038086;
247859;-0.033203;0.040039;1.039062;
247999;-0.034180;0.037109;1.039062;
248139;-0.033203;0.040039;1.040039;
248280;-0.035156;0.039062;1.039062;
248424;-0.034180;0.039062;1.039062;
248574;-0.034180;0.037109;1.037109;
248719;-0.035156;0.039062;1.040039;
248859;-0.034180;0.040039;1.039062;
248989;-0.035156;0.039062;1.040039;
249129;-0.035156;0.039062;1.039062;
249279;-0.034180;0.039062;1.040039;
249409;-0.035156;0.040039;1.040039;
249549;-0.035156;0.039062;1.039062;
249689;-0.035156;0.039062;1.040039;
249840;-0.034180;0.038086;1.039062;
249989;-0.034180;0.040039;1.040039;
250124;-0.034180;0.038086;1.038086;
250274;-0.034180;0.039062;1.039062;
250414;-0.035156;0.039062;1.038086;
250554;-0.033203;0.039062;1.040039;
250691;-0.035156;0.039062;1.040039;
250829;-0.033203;0.038086;1.038086;
250974;-0.033203;0.039062;1.038086;
251113;-0.035156;0.038086;1.040039;
251254;-0.033203;0.039062;1.040039;
251393;-0.036133;0.038086;1.039062;
251529;-0.033203;0.038086;1.039062;
251684;-0.035156;0.037109;1.039062;
251824;-0.034180;0.039062;1.038086;
251963;-0.034180;0.039062;1.039062;
252099;-0.035156;0.040039;1.038086;
252239;-0.035156;0.039062;1.038086;
252379;-0.035156;0.037109;1.040039;
252520;-0.034180;0.039062;1.037109;
252669;-0.034180;0.040039;1.039062;
252810;-0.036133;0.038086;1.039062;
252954;-0.034180;0.038086;1.039062;
253100;-0.034180;0.039062;1.039062;
253249;-0.034180;0.036133;1.038086;
253379;-0.035156;0.037109;1.040039;
253529;-0.034180;0.037109;1.040039;
253669;-0.034180;0.039062;1.039062;
253809;-0.034180;0.038086;1.038086;
253949;-0.034180;0.041016;1.037109;
254079;-0.034180;0.038086;1.038086;
254219;-0.035156;0.039062;1.039062;
254369;-0.034180;0.037109;1.039062;
254499;-0.034180;0.037109;1.040039;
254639;-0.034180;0.039062;1.038086;
254769;-0.034180;0.039062;1.039062;
254914;-0.035156;0.038086;1.039062;
255049;-0.034180;0.040039;1.039062;
255179;-0.034180;0.039062;1.039062;
255309;-0.034180;0.039062;1.038086;
255449;-0.034180;0.039062;1.040039;
255590;-0.034180;0.039062;1.040039;
255729;-0.034180;0.038086;1.037109;
255871;-0.035156;0.039062;1.039062;
256009;-0.034180;0.038086;1.038086;
256161;-0.033203;0.039062;1.040039;
256299;-0.034180;0.040039;1.038086;
256429;-0.034180;0.038086;1.039062;
256559;-0.034180;0.039062;1.039062;
256709;-0.035156;0.039062;1.040039;
256853;-0.034180;0.038086;1.040039;
256993;-0.035156;0.039062;1.040039;
257134;-0.035156;0.038086;1.039062;
257279;-0.034180;0.038086;1.038086;
257429;-0.034180;0.038086;1.040039;
257583;-0.034180;0.040039;1.040039;
257724;-0.033203;0.039062;1.039062;
257864;-0.035156;0.038086;1.040039;
258004;-0.034180;0.039062;1.039062;
258144;-0.034180;0.039062;1.038086;
258279;-0.036133;0.038086;1.041016;
258409;-0.035156;0.041016;1.039062;
258539;-0.033203;0.040039;1.038086;
258679;-0.034180;0.037109;1.038086;
258819;-0.033203;0.040039;1.040039;
258949;-0.034180;0.039062;1.039062;
259089;-0.035156;0.038086;1.037109;
259229;-0.033203;0.039062;1.040039;
259370;-0.032227;0.039062;1.039062;
259509;-0.034180;0.039062;1.039062;
259640;-0.034180;0.040039;1.040039;
259779;-0.034180;0.039062;1.039062;
259929;-0.035156;0.038086;1.037109;
260073;-0.034180;0.039062;1.037109;
260219;-0.034180;0.038086;1.040039;
260359;-0.033203;0.040039;1.039062;
260509;-0.034180;0.038086;1.039062;
260659;-0.035156;0.038086;1.039062;
260809;-0.034180;0.039062;1.040039;
260951;-0.034180;0.038086;1.039062;
261099;-0.033203;0.040039;1.038086;
261241;-0.035156;0.039062;1.039062;
261379;-0.033203;0.039062;1.038086;
261514;-0.034180;0.038086;1.041016;
261654;-0.032227;0.039062;1.038086;
261790;-0.034180;0.039062;1.039062;
261929;-0.033203;0.040039;1.038086;
262079;-0.034180;0.040039;1.039062;
262210;-0.035156;0.039062;1.039062;
262361;-0.034180;0.038086;1.039062;
262499;-0.035156;0.039062;1.039062;
262649;-0.035156;0.039062;1.038086;
262799;-0.034180;0.039062;1.038086;
262939;-0.035156;0.038086;1.039062;
263079;-0.034180;0.038086;1.038086;
263220;-0.035156;0.039062;1.038086;
263371;-0.035156;0.039062;1.040039;
263509;-0.034180;0.039062;1.039062;
263649;-0.034180;0.037109;1.040039;
263789;-0.034180;0.039062;1.039062;
263929;-0.033203;0.039062;1.037109;
264079;-0.033203;0.039062;1.040039;
264309;-0.033203;0.040039;1.038086;
264459;-0.034180;0.040039;1.039062;
264609;-0.035156;0.039062;1.039062;
264749;-0.034180;0.040039;1.039062;
264891;-0.034180;0.038086;1.038086;
265033;-0.035156;0.038086;1.038086;
265170;-0.033203;0.037109;1.038086;
265309;-0.035156;0.039062;1.038086;
265449;-0.034180;0.039062;1.038086;
265589;-0.035156;0.039062;1.038086;
265729;-0.035156;0.041016;1.039062;
265860;-0.034180;0.039062;1.039062;
265999;-0.035156;0.039062;1.039062;
266139;-0.035156;0.039062;1.038086;
266283;-0.034180;0.040039;1.038086;
266433;-0.035156;0.039062;1.039062;
266573;-0.035156;0.040039;1.040039;
266709;-0.035156;0.039062;1.038086;
266859;-0.035156;0.037109;1.041016;
266989;-0.035156;0.039062;1.040039;
267133;-0.034180;0.036133;1.038086;
267264;-0.034180;0.039062;1.039062;
267403;-0.034180;0.039062;1.038086;
267544;-0.035156;0.039062;1.039062;
267683;-0.034180;0.039062;1.040039;
267820;-0.035156;0.038086;1.039062;
267954;-0.033203;0.039062;1.039062;
268089;-0.033203;0.038086;1.039062;
268229;-0.034180;0.038086;1.038086;
268369;-0.034180;0.038086;1.038086;
268499;-0.033203;0.039062;1.038086;
268639;-0.034180;0.039062;1.040039;
268779;-0.033203;0.039062;1.039062;
268929;-0.034180;0.040039;1.040039;
269059;-0.035156;0.039062;1.039062;
269189;-0.035156;0.037109;1.038086;
269320;-0.033203;0.038086;1.038086;
269459;-0.035156;0.038086;1.038086;
269599;-0.035156;0.040039;1.040039;
269729;-0.035156;0.038086;1.038086;
269879;-0.033203;0.040039;1.039062;
270019;-0.035156;0.038086;1.041016;
270169;-0.034180;0.038086;1.040039;
270319;-0.034180;0.039062;1.041016;
270459;-0.034180;0.039062;1.038086;
270599;-0.034180;0.039062;1.039062;
270740;-0.033203;0.038086;1.039062;
270869;-0.034180;0.038086;1.039062;
271011;-0.033203;0.039062;1.041016;
271153;-0.033203;0.040039;1.038086;
271294;-0.033203;0.039062;1.038086;
271434;-0.036133;0.039062;1.039062;
271574;-0.035156;0.038086;1.039062;
271714;-0.034180;0.038086;1.039062;
271849;-0.034180;0.038086;1.039062;
271989;-0.034180;0.037109;1.037109;
272130;-0.035156;0.039062;1.037109;
272283;-0.034180;0.040039;1.039062;
272423;-0.035156;0.038086;1.038086;
272563;-0.034180;0.039062;1.038086;
272699;-0.034180;0.040039;1.037109;
272839;-0.034180;0.040039;1.039062;
272980;-0.034180;0.040039;1.040039;
273124;-0.034180;0.038086;1.039062;
273259;-0.034180;0.040039;1.040039;
273400;-0.035156;0.039062;1.039062;
273550;-0.034180;0.039062;1.039062;
273699;-0.035156;0.037109;1.041016;
273839;-0.035156;0.037109;1.039062;
273989;-0.033203;0.039062;1.039062;
274129;-0.035156;0.039062;1.038086;
274259;-0.035156;0.039062;1.039062;
274399;-0.035156;0.038086;1.040039;
274529;-0.032227;0.041016;1.039062;
274670;-0.035156;0.039062;1.040039;
274809;-0.034180;0.040039;1.038086;
274949;-0.034180;0.038086;1.039062;
275089;-0.034180;0.039062;1.039062;
275230;-0.035156;0.038086;1.038086;
275379;-0.034180;0.039062;1.040039;
275519;-0.034180;0.040039;1.040039;
275659;-0.033203;0.040039;1.040039;
275809;-0.034180;0.039062;1.039062;
275939;-0.034180;0.040039;1.040039;
276070;-0.035156;0.037109;1.039062;
276201;-0.035156;0.037109;1.039062;
276343;-0.035156;0.041016;1.041016;
276479;-0.033203;0.041016;1.039062;
276619;-0.036133;0.039062;1.039062;
276750;-0.034180;0.038086;1.039062;
276879;-0.033203;0.038086;1.038086;
277023;-0.034180;0.039062;1.038086;
277174;-0.034180;0.039062;1.039062;
277313;-0.034180;0.038086;1.037109;
277449;-0.033203;0.039062;1.039062;
277589;-0.033203;0.038086;1.039062;
277734;-0.034180;0.038086;1.040039;
277874;-0.034180;0.038086;1.038086;
277999;-0.034180;0.040039;1.038086;
278129;-0.034180;0.040039;1.040039;
278259;-0.035156;0.036133;1.040039;
278399;-0.035156;0.038086;1.041016;
278541;-0.034180;0.038086;1.038086;
278689;-0.035156;0.039062;1.038086;
278829;-0.035156;0.039062;1.039062;
278979;-0.035156;0.037109;1.040039;
279120;-0.034180;0.038086;1.040039;
279264;-0.035156;0.038086;1.038086;
279394;-0.034180;0.040039;1.038086;
279529;-0.034180;0.039062;1.038086;
279679;-0.034180;0.039062;1.040039;
279829;-0.033203;0.040039;1.040039;
279980;-0.034180;0.039062;1.038086;
280119;-0.034180;0.039062;1.038086;
280269;-0.035156;0.040039;1.040039;
280409;-0.035156;0.039062;1.039062;
280559;-0.033203;0.039062;1.038086;
280699;-0.035156;0.039062;1.038086;
280830;-0.035156;0.039062;1.038086;
280979;-0.034180;0.037109;1.038086;
281119;-0.035156;0.038086;1.038086;
281269;-0.033203;0.039062;1.039062;
281399;-0.034180;0.039062;1.038086;
281534;-0.034180;0.039062;1.038086;
281669;-0.034180;0.038086;1.038086;
281809;-0.035156;0.039062;1.040039;
281949;-0.035156;0.037109;1.038086;
282100;-0.035156;0.039062;1.038086;
282249;-0.035156;0.039062;1.039062;
282389;-0.034180;0.039062;1.038086;
282543;-0.034180;0.039062;1.039062;
282679;-0.035156;0.039062;1.039062;
282820;-0.035156;0.039062;1.039062;
282963;-0.034180;0.039062;1.040039;
283109;-0.035156;0.038086;1.039062;
283259;-0.035156;0.039062;1.038086;
283403;-0.036133;0.037109;1.039062;
283543;-0.035156;0.040039;1.040039;
283683;-0.035156;0.039062;1.038086;
283819;-0.034180;0.040039;1.040039;
283964;-0.034180;0.038086;1.039062;
284109;-0.034180;0.038086;1.039062;
284244;-0.034180;0.039062;1.038086;
284384;-0.035156;0.039062;1.039062;
284524;-0.035156;0.039062;1.039062;
284664;-0.034180;0.038086;1.039062;
284789;-0.034180;0.040039;1.038086;
284919;-0.034180;0.038086;1.039062;
285069;-0.035156;0.036133;1.039062;
285209;-0.033203;0.039062;1.038086;
285359;-0.035156;0.038086;1.040039;
285510;-0.034180;0.039062;1.038086;
285649;-0.033203;0.038086;1.039062;
285779;-0.034180;0.040039;1.041016;
285920;-0.033203;0.040039;1.039062;
286059;-0.035156;0.038086;1.039062;
286190;-0.036133;0.040039;1.041016;
286339;-0.034180;0.036133;1.038086;
286479;-0.033203;0.040039;1.039062;
286619;-0.034180;0.038086;1.038086;
286749;-0.033203;0.039062;1.038086;
286881;-0.034180;0.040039;1.040039;
287009;-0.034180;0.040039;1.040039;
287139;-0.034180;0.037109;1.039062;
287269;-0.034180;0.039062;1.038086;
287419;-0.034180;0.038086;1.040039;
287549;-0.035156;0.039062;1.040039;
287690;-0.034180;0.038086;1.039062;
287829;-0.035156;0.037109;1.038086;
287959;-0.034180;0.039062;1.039062;
288099;-0.035156;0.039062;1.039062;
288239;-0.035156;0.040039;1.039062;
288379;-0.034180;0.039062;1.038086;
288529;-0.033203;0.038086;1.040039;
288664;-0.034180;0.040039;1.040039;
288813;-0.035156;0.038086;1.038086;
288953;-0.034180;0.038086;1.038086;
289094;-0.033203;0.039062;1.040039;
289239;-0.035156;0.037109;1.040039;
289370;-0.034180;0.039062;1.038086;
289509;-0.035156;0.040039;1.039062;
289639;-0.034180;0.039062;1.039062;
289770;-0.033203;0.040039;1.040039;
289899;-0.035156;0.040039;1.039062;
290044;-0.035156;0.037109;1.038086;
290183;-0.035156;0.039062;1.038086;
290319;-0.034180;0.039062;1.039062;
290449;-0.034180;0.039062;1.039062;
290589;-0.035156;0.037109;1.037109;
290729;-0.034180;0.037109;1.037109;
290880;-0.035156;0.038086;1.039062;
291019;-0.036133;0.039062;1.037109;
291159;-0.034180;0.041016;1.041016;
291299;-0.034180;0.038086;1.040039;
291440;-0.034180;0.038086;1.039062;
291579;-0.034180;0.038086;1.040039;
291719;-0.035156;0.038086;1.037109;
291869;-0.033203;0.039062;1.039062;
292013;-0.034180;0.038086;1.038086;
292163;-0.033203;0.038086;1.038086;
292299;-0.035156;0.039062;1.038086;
292439;-0.034180;0.039062;1.039062;
292569;-0.035156;0.041016;1.040039;
292699;-0.034180;0.039062;1.038086;
292839;-0.033203;0.039062;1.040039;
292979;-0.035156;0.036133;1.038086;
293119;-0.033203;0.039062;1.038086;
293269;-0.036133;0.037109;1.039062;
293400;-0.036133;0.038086;1.039062;
293554;-0.034180;0.039062;1.039062;
293689;-0.034180;0.038086;1.038086;
293834;-0.035156;0.038086;1.038086;
293979;-0.033203;0.039062;1.038086;
294129;-0.033203;0.038086;1.039062;
294273;-0.034180;0.037109;1.039062;
294419;-0.034180;0.039062;1.040039;
294553;-0.034180;0.039062;1.039062;
294703;-0.034180;0.037109;1.038086;
294843;-0.034180;0.038086;1.041016;
294984;-0.035156;0.038086;1.038086;
295129;-0.034180;0.040039;1.040039;
295270;-0.036133;0.038086;1.039062;
295409;-0.034180;0.040039;1.038086;
295554;-0.034180;0.039062;1.039062;
295694;-0.034180;0.040039;1.041016;
295834;-0.033203;0.038086;1.039062;
295981;-0.034180;0.038086;1.038086;
296130;-0.035156;0.038086;1.041016;
296269;-0.035156;0.039062;1.039062;
296409;-0.034180;0.040039;1.038086;
296559;-0.033203;0.040039;1.039062;
296709;-0.034180;0.038086;1.039062;
296859;-0.034180;0.039062;1.040039;
296999;-0.035156;0.037109;1.039062;
297141;-0.034180;0.039062;1.038086;
297280;-0.035156;0.039062;1.040039;
297410;-0.035156;0.038086;1.039062;
297559;-0.033203;0.037109;1.037109;
297689;-0.033203;0.039062;1.039062;
297839;-0.035156;0.038086;1.038086;
297979;-0.035156;0.038086;1.038086;
298129;-0.034180;0.040039;1.038086;
298279;-0.036133;0.040039;1.040039;
298409;-0.036133;0.037109;1.039062;
298554;-0.033203;0.038086;1.039062;
298679;-0.034180;0.039062;1.038086;
298824;-0.035156;0.039062;1.039062;
298969;-0.033203;0.039062;1.040039;
299114;-0.034180;0.037109;1.039062;
299249;-0.034180;0.039062;1.039062;
299379;-0.034180;0.036133;1.038086;
299514;-0.034180;0.040039;1.040039;
299654;-0.034180;0.038086;1.038086;
299794;-0.034180;0.037109;1.039062;
299935;-0.033203;0.039062;1.040039;
300069;-0.034180;0.039062;1.036133;
300213;-0.033203;0.038086;1.038086;
300349;-0.035156;0.038086;1.040039;
300489;-0.034180;0.038086;1.038086;
300629;-0.034180;0.038086;1.039062;
300780;-0.035156;0.039062;1.041016;
300919;-0.035156;0.039062;1.037109;
301059;-0.033203;0.039062;1.040039;
301209;-0.033203;0.039062;1.039062;
301349;-0.034180;0.038086;1.038086;
301499;-0.033203;0.040039;1.039062;
301639;-0.035156;0.041992;1.040039;
301789;-0.033203;0.040039;1.039062;
301929;-0.034180;0.038086;1.038086;
302064;-0.035156;0.040039;1.040039;
302209;-0.034180;0.039062;1.038086;
302349;-0.034180;0.038086;1.039062;
302489;-0.034180;0.038086;1.039062;
302629;-0.035156;0.039062;1.037109;
302769;-0.035156;0.040039;1.039062;
302920;-0.035156;0.039062;1.039062;
303059;-0.034180;0.039062;1.039062;
303209;-0.035156;0.040039;1.039062;
303339;-0.035156;0.038086;1.038086;
303479;-0.035156;0.039062;1.038086;
303614;-0.034180;0.038086;1.040039;
303749;-0.034180;0.037109;1.037109;
303894;-0.034180;0.038086;1.038086;
304034;-0.034180;0.039062;1.038086;
304169;-0.034180;0.038086;1.037109;
304314;-0.034180;0.038086;1.041016;
304453;-0.035156;0.038086;1.038086;
304603;-0.035156;0.039062;1.039062;
304743;-0.034180;0.040039;1.039062;
304889;-0.035156;0.039062;1.041016;
305033;-0.034180;0.038086;1.038086;
305174;-0.034180;0.038086;1.039062;
305299;-0.035156;0.039062;1.038086;
305434;-0.032227;0.040039;1.038086;
305574;-0.034180;0.040039;1.039062;
305714;-0.035156;0.038086;1.040039;
305853;-0.034180;0.039062;1.039062;
305989;-0.034180;0.037109;1.038086;
306119;-0.035156;0.038086;1.038086;
306269;-0.034180;0.041016;1.039062;
306409;-0.034180;0.038086;1.038086;
306549;-0.034180;0.040039;1.040039;
306689;-0.034180;0.038086;1.040039;
306829;-0.034180;0.038086;1.038086;
306969;-0.033203;0.039062;1.039062;
307109;-0.034180;0.038086;1.039062;
307243;-0.034180;0.040039;1.038086;
307379;-0.035156;0.038086;1.040039;
307509;-0.035156;0.038086;1.039062;
307639;-0.033203;0.039062;1.039062;
307779;-0.035156;0.038086;1.038086;
307929;-0.033203;0.040039;1.038086;
308079;-0.033203;0.039062;1.039062;
308229;-0.034180;0.040039;1.038086;
308379;-0.035156;0.038086;1.039062;
308519;-0.035156;0.038086;1.039062;
308659;-0.034180;0.040039;1.041016;
308809;-0.034180;0.038086;1.038086;
308949;-0.035156;0.037109;1.039062;
309090;-0.034180;0.037109;1.039062;
309219;-0.034180;0.040039;1.039062;
309349;-0.034180;0.038086;1.040039;
309499;-0.033203;0.039062;1.040039;
309649;-0.034180;0.038086;1.039062;
309789;-0.033203;0.038086;1.039062;
309930;-0.035156;0.038086;1.038086;
310069;-0.034180;0.038086;1.039062;
310200;-0.034180;0.039062;1.039062;
310339;-0.034180;0.039062;1.040039;
310469;-0.033203;0.039062;1.037109;
310599;-0.035156;0.037109;1.039062;
310730;-0.035156;0.038086;1.038086;
310859;-0.034180;0.038086;1.040039;
310989;-0.034180;0.040039;1.039062;
311129;-0.033203;0.039062;1.039062;
311279;-0.035156;0.038086;1.039062;
311419;-0.034180;0.040039;1.039062;
311569;-0.035156;0.038086;1.039062;
311719;-0.034180;0.039062;1.039062;
311849;-0.035156;0.040039;1.039062;
311990;-0.034180;0.040039;1.038086;
312129;-0.034180;0.040039;1.040039;
312269;-0.034180;0.039062;1.039062;
312399;-0.035156;0.039062;1.041016;
312539;-0.035156;0.038086;1.039062;
312689;-0.035156;0.038086;1.038086;
312833;-0.034180;0.040039;1.040039;
312973;-0.034180;0.039062;1.040039;
313113;-0.034180;0.040039;1.038086;
313249;-0.034180;0.039062;1.040039;
313391;-0.034180;0.041016;1.038086;
313529;-0.033203;0.040039;1.041016;
313673;-0.034180;0.038086;1.040039;
313814;-0.034180;0.039062;1.040039;
313954;-0.035156;0.038086;1.040039;
314104;-0.034180;0.038086;1.039062;
314229;-0.033203;0.039062;1.038086;
314374;-0.034180;0.039062;1.041016;
314514;-0.036133;0.038086;1.038086;
314659;-0.033203;0.041016;1.039062;
314789;-0.034180;0.039062;1.038086;
314919;-0.034180;0.038086;1.039062;
315059;-0.034180;0.040039;1.040039;
315189;-0.034180;0.039062;1.039062;
315329;-0.034180;0.040039;1.039062;
315469;-0.035156;0.038086;1.040039;
315610;-0.035156;0.037109;1.039062;
315749;-0.035156;0.038086;1.038086;
315889;-0.033203;0.040039;1.039062;
316034;-0.035156;0.038086;1.039062;
316169;-0.033203;0.038086;1.038086;
316300;-0.034180;0.039062;1.040039;
316449;-0.034180;0.038086;1.038086;
316589;-0.034180;0.039062;1.038086;
316739;-0.034180;0.040039;1.039062;
316879;-0.034180;0.039062;1.039062;
317011;-0.035156;0.039062;1.040039;
317153;-0.034180;0.040039;1.040039;
317279;-0.035156;0.038086;1.038086;
317419;-0.034180;0.040039;1.039062;
317559;-0.034180;0.038086;1.038086;
317689;-0.034180;0.036133;1.039062;
317829;-0.034180;0.039062;1.038086;
317979;-0.033203;0.040039;1.040039;
318129;-0.034180;0.041016;1.040039;
318269;-0.034180;0.040039;1.039062;
318409;-0.034180;0.038086;1.039062;
318539;-0.035156;0.040039;1.038086;
318670;-0.034180;0.039062;1.039062;
318809;-0.033203;0.038086;1.038086;
318950;-0.034180;0.038086;1.040039;
319084;-0.034180;0.040039;1.039062;
319224;-0.035156;0.038086;1.039062;
319364;-0.033203;0.040039;1.039062;
319509;-0.035156;0.039062;1.039062;
319649;-0.034180;0.038086;1.039062;
319783;-0.034180;0.039062;1.040039;
319922;-0.034180;0.039062;1.038086;
320049;-0.034180;0.037109;1.039062;
320179;-0.034180;0.038086;1.039062;
320314;-0.033203;0.037109;1.037109;
320453;-0.034180;0.038086;1.038086;
320593;-0.034180;0.040039;1.040039;
320734;-0.034180;0.037109;1.040039;
320869;-0.034180;0.038086;1.038086;
321009;-0.033203;0.039062;1.038086;
321149;-0.035156;0.039062;1.038086;
321281;-0.034180;0.039062;1.040039;
321409;-0.032227;0.039062;1.040039;
321540;-0.034180;0.038086;1.038086;
321679;-0.034180;0.038086;1.039062;
321829;-0.035156;0.038086;1.038086;
321979;-0.036133;0.038086;1.039062;
322119;-0.035156;0.040039;1.040039;
322259;-0.034180;0.039062;1.040039;
322404;-0.034180;0.039062;1.038086;
322544;-0.035156;0.038086;1.039062;
322679;-0.034180;0.037109;1.039062;
322823;-0.034180;0.039062;1.038086;
322959;-0.034180;0.038086;1.038086;
323099;-0.035156;0.039062;1.039062;
323229;-0.034180;0.038086;1.037109;
323369;-0.034180;0.038086;1.041992;
323499;-0.034180;0.038086;1.038086;
323649;-0.033203;0.039062;1.040039;
323794;-0.034180;0.038086;1.040039;
323929;-0.033203;0.038086;1.039062;
324069;-0.033203;0.039062;1.040039;
324219;-0.035156;0.038086;1.040039;
324359;-0.035156;0.037109;1.039062;
324509;-0.034180;0.039062;1.037109;
324655;-0.035156;0.039062;1.040039;
324789;-0.034180;0.040039;1.038086;
324919;-0.035156;0.040039;1.038086;
325059;-0.034180;0.038086;1.039062;
325209;-0.033203;0.039062;1.039062;
325349;-0.034180;0.037109;1.039062;
325494;-0.033203;0.039062;1.040039;
325633;-0.035156;0.040039;1.039062;
325773;-0.034180;0.038086;1.039062;
325914;-0.034180;0.039062;1.041016;
326041;-0.034180;0.037109;1.039062;
326183;-0.034180;0.039062;1.038086;
326319;-0.034180;0.039062;1.039062;
326449;-0.033203;0.040039;1.037109;
326589;-0.036133;0.039062;1.038086;
326734;-0.032227;0.040039;1.039062;
326882;-0.033203;0.039062;1.038086;
327019;-0.034180;0.039062;1.040039;
327151;-0.034180;0.040039;1.039062;
327289;-0.034180;0.038086;1.039062;
327429;-0.034180;0.036133;1.037109;
327559;-0.034180;0.039062;1.038086;
327699;-0.035156;0.038086;1.040039;
327849;-0.034180;0.037109;1.039062;
327994;-0.034180;0.038086;1.038086;
328139;-0.033203;0.038086;1.040039;
328279;-0.035156;0.038086;1.039062;
328429;-0.033203;0.038086;1.038086;
328572;-0.033203;0.039062;1.039062;
328709;-0.034180;0.038086;1.040039;
328849;-0.033203;0.039062;1.038086;
328979;-0.035156;0.038086;1.040039;
329119;-0.034180;0.038086;1.039062;
329269;-0.035156;0.038086;1.039062;
329410;-0.035156;0.038086;1.038086;
329549;-0.034180;0.037109;1.039062;
329689;-0.033203;0.037109;1.037109;
329829;-0.034180;0.038086;1.038086;
329969;-0.033203;0.039062;1.039062;
330110;-0.034180;0.038086;1.037109;
330254;-0.034180;0.038086;1.039062;
330389;-0.034180;0.038086;1.040039;
330539;-0.033203;0.040039;1.040039;
330669;-0.034180;0.038086;1.040039;
330800;-0.035156;0.037109;1.039062;
330949;-0.035156;0.038086;1.039062;
331089;-0.035156;0.036133;1.038086;
331229;-0.033203;0.038086;1.038086;
331379;-0.033203;0.038086;1.039062;
331520;-0.035156;0.039062;1.038086;
331659;-0.034180;0.039062;1.038086;
331799;-0.035156;0.039062;1.039062;
331939;-0.034180;0.039062;1.039062;
332084;-0.034180;0.040039;1.040039;
332219;-0.035156;0.037109;1.039062;
332359;-0.034180;0.039062;1.039062;
332493;-0.034180;0.039062;1.039062;
332643;-0.033203;0.039062;1.039062;
332783;-0.034180;0.039062;1.039062;
332919;-0.034180;0.039062;1.040039;
333051;-0.034180;0.039062;1.040039;
333189;-0.033203;0.037109;1.038086;
333330;-0.034180;0.038086;1.039062;
333484;-0.035156;0.039062;1.041016;
333624;-0.033203;0.039062;1.038086;
333764;-0.032227;0.039062;1.039062;
333900;-0.034180;0.038086;1.039062;
334039;-0.033203;0.039062;1.039062;
334189;-0.034180;0.037109;1.038086;
334331;-0.034180;0.039062;1.039062;
334479;-0.034180;0.038086;1.038086;
334619;-0.033203;0.038086;1.039062;
334760;-0.034180;0.038086;1.039062;
334909;-0.036133;0.038086;1.039062;
335049;-0.033203;0.039062;1.039062;
335189;-0.034180;0.038086;1.040039;
335340;-0.034180;0.039062;1.038086;
335479;-0.034180;0.038086;1.038086;
335619;-0.035156;0.038086;1.040039;
335759;-0.034180;0.038086;1.037109;
335899;-0.035156;0.039062;1.040039;
336040;-0.033203;0.039062;1.039062;
336169;-0.035156;0.039062;1.038086;
336299;-0.034180;0.038086;1.037109;
336429;-0.035156;0.040039;1.040039;
336569;-0.034180;0.038086;1.039062;
336699;-0.034180;0.037109;1.038086;
336840;-0.034180;0.039062;1.039062;
336974;-0.033203;0.040039;1.039062;
337114;-0.034180;0.038086;1.038086;
337263;-0.035156;0.039062;1.039062;
337403;-0.034180;0.038086;1.039062;
337529;-0.034180;0.036133;1.037109;
337669;-0.033203;0.040039;1.039062;
337823;-0.035156;0.039062;1.039062;
337969;-0.034180;0.040039;1.039062;
338099;-0.034180;0.038086;1.039062;
338239;-0.034180;0.038086;1.039062;
338379;-0.034180;0.038086;1.038086;
338521;-0.034180;0.037109;1.039062;
338659;-0.033203;0.039062;1.038086;
338799;-0.035156;0.039062;1.039062;
338939;-0.034180;0.039062;1.038086;
339082;-0.035156;0.036133;1.040039;
339209;-0.034180;0.038086;1.037109;
339349;-0.034180;0.038086;1.040039;
339489;-0.034180;0.039062;1.040039;
339639;-0.033203;0.040039;1.038086;
339779;-0.034180;0.039062;1.039062;
339930;-0.034180;0.038086;1.038086;
340069;-0.034180;0.039062;1.041016;
340199;-0.034180;0.038086;1.039062;
340339;-0.034180;0.040039;1.039062;
340469;-0.034180;0.038086;1.038086;
340609;-0.033203;0.040039;1.040039;
340759;-0.035156;0.039062;1.040039;
340899;-0.034180;0.039062;1.039062;
341049;-0.034180;0.038086;1.039062;
341199;-0.035156;0.039062;1.037109;
341349;-0.036133;0.038086;1.039062;
341489;-0.033203;0.040039;1.039062;
341640;-0.034180;0.040039;1.038086;
341769;-0.036133;0.040039;1.040039;
341909;-0.035156;0.036133;1.037109;
342049;-0.034180;0.038086;1.041016;
342189;-0.034180;0.040039;1.037109;
342320;-0.033203;0.040039;1.039062;
342469;-0.034180;0.040039;1.038086;
342599;-0.034180;0.039062;1.039062;
342739;-0.033203;0.038086;1.039062;
342884;-0.033203;0.039062;1.038086;
343024;-0.035156;0.039062;1.039062;
343163;-0.034180;0.040039;1.039062;
343299;-0.035156;0.038086;1.039062;
343439;-0.035156;0.040039;1.039062;
343584;-0.034180;0.038086;1.038086;
343723;-0.034180;0.039062;1.039062;
343863;-0.034180;0.040039;1.039062;
344003;-0.033203;0.039062;1.039062;
344139;-0.035156;0.038086;1.039062;
344284;-0.034180;0.038086;1.039062;
344419;-0.034180;0.038086;1.039062;
344559;-0.035156;0.038086;1.039062;
344699;-0.036133;0.039062;1.039062;
344849;-0.033203;0.041016;1.039062;
344989;-0.033203;0.039062;1.038086;
345139;-0.034180;0.038086;1.038086;
345289;-0.035156;0.038086;1.040039;
345429;-0.034180;0.038086;1.039062;
345579;-0.033203;0.038086;1.039062;
345709;-0.035156;0.039062;1.040039;
345849;-0.034180;0.037109;1.038086;
345979;-0.034180;0.038086;1.040039;
346119;-0.034180;0.038086;1.039062;
346254;-0.034180;0.039062;1.039062;
346399;-0.034180;0.038086;1.038086;
346529;-0.033203;0.039062;1.038086;
346669;-0.034180;0.037109;1.039062;
346809;-0.034180;0.039062;1.040039;
346949;-0.034180;0.038086;1.038086;
347079;-0.034180;0.039062;1.039062;
347219;-0.034180;0.039062;1.038086;
347360;-0.034180;0.040039;1.039062;
347491;-0.034180;0.038086;1.037109;
347629;-0.034180;0.038086;1.041016;
347759;-0.033203;0.039062;1.038086;
347894;-0.035156;0.039062;1.039062;
348039;-0.034180;0.038086;1.040039;
348184;-0.033203;0.039062;1.039062;
348334;-0.035156;0.038086;1.039062;
348474;-0.034180;0.038086;1.038086;
348610;-0.034180;0.037109;1.038086;
348749;-0.034180;0.039062;1.039062;
348883;-0.034180;0.037109;1.036133;
349023;-0.035156;0.037109;1.039062;
349163;-0.034180;0.039062;1.039062;
349299;-0.034180;0.039062;1.039062;
349439;-0.034180;0.039062;1.039062;
349589;-0.035156;0.037109;1.039062;
349729;-0.034180;0.039062;1.039062;
349869;-0.035156;0.038086;1.039062;
350009;-0.035156;0.039062;1.039062;
350141;-0.033203;0.039062;1.038086;
350280;-0.034180;0.038086;1.040039;
350429;-0.035156;0.039062;1.039062;
350569;-0.033203;0.039062;1.039062;
350709;-0.035156;0.037109;1.039062;
350851;-0.034180;0.040039;1.040039;
350983;-0.033203;0.039062;1.038086;
351109;-0.035156;0.039062;1.040039;
351249;-0.034180;0.038086;1.039062;
351399;-0.033203;0.039062;1.039062;
351530;-0.034180;0.038086;1.039062;
351669;-0.033203;0.038086;1.038086;
351809;-0.035156;0.038086;1.038086;
351949;-0.033203;0.039062;1.039062;
352099;-0.034180;0.040039;1.040039;
352239;-0.035156;0.038086;1.040039;
352379;-0.033203;0.039062;1.040039;
352529;-0.034180;0.041016;1.040039;
352659;-0.035156;0.039062;1.039062;
352809;-0.034180;0.039062;1.040039;
352939;-0.035156;0.037109;1.039062;
353079;-0.034180;0.040039;1.038086;
353219;-0.035156;0.038086;1.040039;
353369;-0.034180;0.039062;1.039062;
353514;-0.035156;0.037109;1.038086;
353659;-0.034180;0.039062;1.041016;
353800;-0.035156;0.037109;1.037109;
353939;-0.033203;0.040039;1.040039;
354089;-0.035156;0.038086;1.040039;
354239;-0.033203;0.038086;1.039062;
354381;-0.034180;0.037109;1.039062;
354519;-0.034180;0.040039;1.039062;
354649;-0.034180;0.038086;1.039062;
354779;-0.034180;0.040039;1.041016;
354924;-0.034180;0.040039;1.039062;
355064;-0.034180;0.039062;1.039062;
355203;-0.033203;0.039062;1.039062;
355339;-0.035156;0.039062;1.039062;
355469;-0.034180;0.038086;1.040039;
355609;-0.035156;0.038086;1.040039;
355764;-0.034180;0.038086;1.039062;
355903;-0.034180;0.038086;1.039062;
356043;-0.034180;0.038086;1.039062;
356184;-0.033203;0.039062;1.038086;
356319;-0.034180;0.040039;1.038086;
356469;-0.035156;0.038086;1.039062;
356599;-0.034180;0.039062;1.040039;
356740;-0.035156;0.038086;1.038086;
356869;-0.034180;0.037109;1.039062;
357009;-0.033203;0.041016;1.038086;
357159;-0.033203;0.038086;1.039062;
357299;-0.034180;0.038086;1.041016;
357439;-0.034180;0.039062;1.040039;
357589;-0.034180;0.039062;1.040039;
357739;-0.033203;0.040039;1.040039;
357879;-0.034180;0.039062;1.039062;
358019;-0.034180;0.039062;1.039062;
358159;-0.033203;0.039062;1.040039;
358309;-0.034180;0.039062;1.039062;
358450;-0.033203;0.040039;1.038086;
358589;-0.034180;0.039062;1.039062;
358739;-0.034180;0.038086;1.040039;
358889;-0.033203;0.038086;1.039062;
359030;-0.034180;0.039062;1.039062;
359179;-0.033203;0.039062;1.037109;
359319;-0.034180;0.040039;1.040039;
359450;-0.034180;0.038086;1.040039;
359589;-0.034180;0.039062;1.040039;
359719;-0.034180;0.039062;1.039062;
359849;-0.035156;0.040039;1.040039;
359989;-0.035156;0.039062;1.040039;
360133;-0.035156;0.039062;1.039062;
360273;-0.034180;0.040039;1.039062;
360399;-0.033203;0.038086;1.037109;
360534;-0.033203;0.039062;1.039062;
360669;-0.033203;0.038086;1.038086;
360813;-0.033203;0.040039;1.038086;
360963;-0.035156;0.037109;1.039062;
361099;-0.034180;0.039062;1.040039;
361239;-0.034180;0.038086;1.039062;
361379;-0.034180;0.039062;1.039062;
361519;-0.035156;0.039062;1.039062;
361649;-0.034180;0.038086;1.039062;
361804;-0.035156;0.038086;1.039062;
361949;-0.033203;0.040039;1.038086;
362090;-0.033203;0.039062;1.039062;
362239;-0.034180;0.039062;1.038086;
362379;-0.032227;0.038086;1.039062;
362519;-0.034180;0.037109;1.038086;
362660;-0.034180;0.040039;1.041016;
362789;-0.034180;0.039062;1.041016;
362929;-0.035156;0.039062;1.039062;
363069;-0.033203;0.037109;1.038086;
363209;-0.033203;0.039062;1.040039;
363359;-0.035156;0.039062;1.039062;
363499;-0.034180;0.037109;1.040039;
363649;-0.034180;0.038086;1.038086;
363779;-0.034180;0.039062;1.038086;
363910;-0.033203;0.040039;1.039062;
364059;-0.034180;0.037109;1.041016;
364189;-0.034180;0.039062;1.040039;
364329;-0.035156;0.038086;1.039062;
364459;-0.033203;0.039062;1.038086;
364603;-0.035156;0.039062;1.038086;
364749;-0.034180;0.039062;1.040039;
364904;-0.032227;0.040039;1.038086;
365043;-0.034180;0.039062;1.039062;
365183;-0.035156;0.039062;1.039062;
365333;-0.033203;0.039062;1.039062;
365470;-0.033203;0.037109;1.039062;
365624;-0.035156;0.039062;1.040039;
365763;-0.034180;0.038086;1.037109;
365903;-0.034180;0.039062;1.039062;
366044;-0.034180;0.037109;1.039062;
366180;-0.033203;0.038086;1.039062;
366319;-0.035156;0.039062;1.039062;
366463;-0.034180;0.038086;1.040039;
366609;-0.035156;0.039062;1.039062;
366749;-0.034180;0.038086;1.038086;
366889;-0.035156;0.038086;1.039062;
367019;-0.035156;0.038086;1.039062;
367149;-0.033203;0.038086;1.038086;
367301;-0.034180;0.038086;1.038086;
367449;-0.034180;0.038086;1.039062;
367579;-0.035156;0.038086;1.040039;
367719;-0.035156;0.039062;1.041016;
367869;-0.034180;0.038086;1.040039;
368010;-0.035156;0.038086;1.040039;
368149;-0.033203;0.040039;1.040039;
368280;-0.034180;0.038086;1.039062;
368419;-0.033203;0.039062;1.037109;
368559;-0.035156;0.038086;1.040039;
368689;-0.034180;0.038086;1.039062;
368839;-0.033203;0.038086;1.041016;
368979;-0.034180;0.038086;1.038086;
369129;-0.034180;0.038086;1.038086;
369269;-0.034180;0.038086;1.039062;
369399;-0.034180;0.037109;1.038086;
369549;-0.034180;0.040039;1.041016;
369689;-0.034180;0.038086;1.039062;
369839;-0.034180;0.037109;1.039062;
369989;-0.035156;0.040039;1.040039;
370124;-0.035156;0.039062;1.039062;
370263;-0.034180;0.039062;1.039062;
370403;-0.034180;0.039062;1.039062;
370539;-0.034180;0.039062;1.039062;
370684;-0.033203;0.040039;1.040039;
370819;-0.035156;0.038086;1.040039;
370949;-0.033203;0.037109;1.038086;
371103;-0.034180;0.038086;1.039062;
371243;-0.035156;0.039062;1.040039;
371383;-0.033203;0.038086;1.038086;
371519;-0.034180;0.038086;1.038086;
371659;-0.035156;0.037109;1.040039;
371789;-0.035156;0.039062;1.038086;
371934;-0.034180;0.040039;1.039062;
372069;-0.034180;0.040039;1.039062;
372213;-0.034180;0.040039;1.038086;
372349;-0.033203;0.039062;1.039062;
372489;-0.034180;0.036133;1.038086;
372629;-0.034180;0.038086;1.039062;
372779;-0.034180;0.038086;1.039062;
372919;-0.034180;0.040039;1.040039;
373069;-0.035156;0.039062;1.040039;
373219;-0.035156;0.038086;1.038086;
373359;-0.033203;0.038086;1.039062;
373499;-0.033203;0.040039;1.039062;
373651;-0.034180;0.037109;1.039062;
373779;-0.035156;0.038086;1.039062;
373919;-0.034180;0.039062;1.039062;
374059;-0.034180;0.038086;1.037109;
374189;-0.034180;0.039062;1.040039;
374319;-0.034180;0.038086;1.038086;
374460;-0.035156;0.038086;1.038086;
374609;-0.034180;0.039062;1.040039;
374760;-0.035156;0.038086;1.038086;
374909;-0.034180;0.038086;1.037109;
375049;-0.034180;0.039062;1.039062;
375200;-0.035156;0.038086;1.040039;
375329;-0.035156;0.038086;1.038086;
375470;-0.034180;0.038086;1.039062;
375609;-0.035156;0.038086;1.040039;
375749;-0.034180;0.040039;1.039062;
375879;-0.034180;0.039062;1.038086;
376010;-0.034180;0.038086;1.039062;
376149;-0.034180;0.038086;1.037109;
376289;-0.035156;0.038086;1.039062;
376433;-0.035156;0.039062;1.039062;
376560;-0.035156;0.038086;1.038086;
376699;-0.034180;0.040039;1.038086;
376839;-0.034180;0.038086;1.039062;
376979;-0.034180;0.040039;1.040039;
377109;-0.033203;0.038086;1.038086;
377249;-0.034180;0.039062;1.039062;
377393;-0.034180;0.039062;1.038086;
377544;-0.034180;0.038086;1.038086;
377684;-0.033203;0.039062;1.038086;
377834;-0.033203;0.039062;1.039062;
377959;-0.035156;0.038086;1.038086;
378101;-0.033203;0.037109;1.039062;
378229;-0.034180;0.039062;1.040039;
378359;-0.033203;0.038086;1.039062;
378504;-0.036133;0.039062;1.039062;
378644;-0.034180;0.038086;1.038086;
378784;-0.033203;0.040039;1.038086;
378919;-0.034180;0.039062;1.038086;
379069;-0.035156;0.038086;1.038086;
379209;-0.034180;0.040039;1.039062;
379339;-0.035156;0.040039;1.040039;
379479;-0.035156;0.040039;1.039062;
379619;-0.035156;0.039062;1.039062;
379769;-0.035156;0.039062;1.040039;
379899;-0.035156;0.038086;1.040039;
380040;-0.034180;0.038086;1.039062;
380184;-0.035156;0.040039;1.040039;
380319;-0.033203;0.038086;1.039062;
380459;-0.034180;0.039062;1.039062;
380599;-0.035156;0.037109;1.040039;
380729;-0.034180;0.040039;1.039062;
380869;-0.033203;0.039062;1.038086;
381019;-0.034180;0.039062;1.039062;
381169;-0.033203;0.039062;1.040039;
381313;-0.034180;0.039062;1.038086;
381449;-0.035156;0.040039;1.039062;
381589;-0.035156;0.038086;1.040039;
381729;-0.034180;0.038086;1.039062;
381869;-0.035156;0.040039;1.038086;
382009;-0.034180;0.038086;1.038086;
382159;-0.034180;0.038086;1.040039;
382289;-0.034180;0.039062;1.039062;
382443;-0.034180;0.039062;1.040039;
382569;-0.034180;0.039062;1.039062;
382713;-0.034180;0.039062;1.038086;
382854;-0.033203;0.039062;1.039062;
382991;-0.035156;0.038086;1.038086;
383129;-0.034180;0.039062;1.038086;
383279;-0.035156;0.038086;1.039062;
383410;-0.035156;0.038086;1.038086;
383550;-0.034180;0.040039;1.038086;
383689;-0.034180;0.037109;1.038086;
383820;-0.034180;0.039062;1.039062;
383959;-0.034180;0.037109;1.038086;
384109;-0.034180;0.039062;1.041016;
384243;-0.034180;0.039062;1.038086;
384394;-0.033203;0.038086;1.038086;
384534;-0.035156;0.039062;1.039062;
384669;-0.035156;0.038086;1.039062;
384814;-0.035156;0.037109;1.039062;
384954;-0.035156;0.038086;1.040039;
385090;-0.035156;0.038086;1.039062;
385229;-0.034180;0.040039;1.040039;
385374;-0.034180;0.039062;1.038086;
385510;-0.034180;0.039062;1.039062;
385643;-0.033203;0.039062;1.039062;
385779;-0.035156;0.038086;1.039062;
385920;-0.034180;0.040039;1.039062;
386059;-0.034180;0.038086;1.039062;
386199;-0.033203;0.039062;1.039062;
386349;-0.034180;0.037109;1.038086;
386499;-0.034180;0.039062;1.040039;
386639;-0.034180;0.037109;1.039062;
386789;-0.033203;0.040039;1.037109;
386939;-0.033203;0.040039;1.039062;
387079;-0.035156;0.039062;1.038086;
387219;-0.034180;0.039062;1.040039;
387369;-0.035156;0.040039;1.039062;
387509;-0.035156;0.039062;1.039062;
387659;-0.034180;0.039062;1.039062;
387799;-0.033203;0.038086;1.039062;
387939;-0.034180;0.040039;1.039062;
388090;-0.034180;0.038086;1.039062;
388229;-0.033203;0.040039;1.038086;
388369;-0.035156;0.037109;1.039062;
388499;-0.034180;0.038086;1.039062;
388639;-0.035156;0.040039;1.040039;
388780;-0.036133;0.039062;1.039062;
388909;-0.033203;0.040039;1.039062;
389039;-0.033203;0.038086;1.039062;
389189;-0.033203;0.039062;1.038086;
389334;-0.034180;0.039062;1.039062;
389483;-0.036133;0.038086;1.039062;
389623;-0.034180;0.038086;1.039062;
389759;-0.034180;0.039062;1.039062;
389899;-0.035156;0.038086;1.039062;
390053;-0.034180;0.040039;1.040039;
390194;-0.034180;0.037109;1.037109;
390334;-0.035156;0.040039;1.039062;
390484;-0.034180;0.040039;1.039062;
390619;-0.033203;0.039062;1.039062;
390749;-0.035156;0.037109;1.039062;
390889;-0.034180;0.039062;1.039062;
391029;-0.035156;0.038086;1.039062;
391169;-0.035156;0.039062;1.040039;
391319;-0.033203;0.039062;1.039062;
391449;-0.034180;0.039062;1.040039;
391589;-0.034180;0.039062;1.038086;
391719;-0.034180;0.038086;1.040039;
391849;-0.034180;0.038086;1.038086;
391989;-0.035156;0.036133;1.039062;
392129;-0.035156;0.038086;1.038086;
392279;-0.034180;0.039062;1.040039;
392429;-0.033203;0.040039;1.038086;
392569;-0.034180;0.040039;1.040039;
392709;-0.033203;0.039062;1.040039;
392849;-0.035156;0.039062;1.041016;
392989;-0.034180;0.039062;1.039062;
393139;-0.033203;0.040039;1.041016;
393279;-0.035156;0.038086;1.040039;
393420;-0.035156;0.038086;1.039062;
393559;-0.034180;0.038086;1.039062;
393709;-0.034180;0.038086;1.039062;
393840;-0.035156;0.039062;1.039062;
393983;-0.035156;0.038086;1.039062;
394109;-0.034180;0.040039;1.039062;
394241;-0.034180;0.039062;1.040039;
394379;-0.034180;0.039062;1.039062;
394509;-0.034180;0.038086;1.039062;
394659;-0.034180;0.038086;1.040039;
394799;-0.034180;0.040039;1.040039;
394944;-0.034180;0.037109;1.038086;
395089;-0.034180;0.039062;1.039062;
395229;-0.036133;0.037109;1.038086;
395379;-0.035156;0.038086;1.039062;
395523;-0.033203;0.037109;1.039062;
395663;-0.034180;0.037109;1.038086;
395803;-0.034180;0.038086;1.039062;
395939;-0.035156;0.038086;1.039062;
396079;-0.034180;0.040039;1.041016;
396214;-0.034180;0.039062;1.040039;
396354;-0.033203;0.040039;1.038086;
396493;-0.034180;0.038086;1.039062;
396634;-0.033203;0.037109;1.039062;
396769;-0.034180;0.039062;1.040039;
396909;-0.035156;0.038086;1.040039;
397040;-0.034180;0.036133;1.040039;
397189;-0.034180;0.038086;1.038086;
397319;-0.033203;0.039062;1.039062;
397459;-0.033203;0.038086;1.039062;
397589;-0.035156;0.039062;1.039062;
397719;-0.033203;0.040039;1.040039;
397859;-0.033203;0.037109;1.038086;
397999;-0.034180;0.038086;1.037109;
398149;-0.035156;0.038086;1.039062;
398290;-0.034180;0.037109;1.040039;
398429;-0.034180;0.039062;1.039062;
398580;-0.035156;0.036133;1.040039;
398719;-0.035156;0.039062;1.040039;
398859;-0.034180;0.038086;1.039062;
398999;-0.034180;0.038086;1.039062;
399129;-0.034180;0.038086;1.039062;
399269;-0.034180;0.038086;1.040039;
399419;-0.035156;0.038086;1.039062;
399559;-0.033203;0.040039;1.039062;
399709;-0.034180;0.039062;1.039062;
399851;-0.035156;0.039062;1.040039;
399989;-0.034180;0.039062;1.039062;
400119;-0.033203;0.038086;1.040039;
400249;-0.034180;0.037109;1.039062;
400379;-0.034180;0.039062;1.041016;
400529;-0.034180;0.038086;1.040039;
400659;-0.034180;0.039062;1.040039;
400799;-0.034180;0.039062;1.039062;
400939;-0.033203;0.040039;1.040039;
401079;-0.034180;0.037109;1.038086;
401229;-0.034180;0.039062;1.039062;
401370;-0.035156;0.037109;1.039062;
401509;-0.034180;0.039062;1.039062;
401654;-0.034180;0.037109;1.038086;
401790;-0.033203;0.038086;1.039062;
401924;-0.035156;0.038086;1.039062;
402063;-0.035156;0.039062;1.038086;
402204;-0.034180;0.039062;1.039062;
402343;-0.036133;0.038086;1.039062;
402479;-0.034180;0.038086;1.039062;
402620;-0.035156;0.039062;1.038086;
402763;-0.034180;0.038086;1.039062;
402904;-0.034180;0.038086;1.038086;
403043;-0.034180;0.039062;1.038086;
403185;-0.034180;0.038086;1.040039;
403334;-0.033203;0.039062;1.037109;
403469;-0.035156;0.038086;1.039062;
403609;-0.034180;0.039062;1.039062;
403749;-0.035156;0.039062;1.038086;
403889;-0.035156;0.038086;1.040039;
404031;-0.034180;0.037109;1.038086;
404170;-0.034180;0.038086;1.039062;
404314;-0.034180;0.038086;1.039062;
404454;-0.034180;0.037109;1.038086;
404590;-0.034180;0.037109;1.038086;
404719;-0.033203;0.038086;1.037109;
404869;-0.036133;0.038086;1.039062;
405009;-0.034180;0.038086;1.038086;
405149;-0.035156;0.039062;1.041016;
405290;-0.034180;0.039062;1.039062;
405439;-0.034180;0.038086;1.040039;
405589;-0.034180;0.037109;1.038086;
405719;-0.035156;0.038086;1.039062;
405859;-0.035156;0.036133;1.037109;
405999;-0.035156;0.038086;1.039062;
406139;-0.034180;0.037109;1.038086;
406279;-0.034180;0.038086;1.039062;
406419;-0.034180;0.040039;1.039062;
406559;-0.034180;0.039062;1.039062;
406699;-0.033203;0.039062;1.038086;
406839;-0.034180;0.038086;1.038086;
406989;-0.033203;0.039062;1.039062;
407119;-0.035156;0.037109;1.039062;
407249;-0.034180;0.038086;1.039062;
407380;-0.034180;0.039062;1.039062;
407519;-0.034180;0.038086;1.039062;
407659;-0.034180;0.037109;1.039062;
407794;-0.035156;0.038086;1.039062;
407934;-0.034180;0.039062;1.039062;
408074;-0.033203;0.040039;1.039062;
408224;-0.034180;0.038086;1.038086;
408359;-0.035156;0.040039;1.039062;
408523;-0.033203;0.041016;1.038086;
408663;-0.034180;0.038086;1.039062;
408813;-0.035156;0.039062;1.039062;
408949;-0.034180;0.039062;1.039062;
409089;-0.034180;0.038086;1.039062;
409229;-0.035156;0.037109;1.039062;
409369;-0.035156;0.040039;1.040039;
409509;-0.035156;0.039062;1.038086;
409659;-0.034180;0.038086;1.038086;
409809;-0.034180;0.039062;1.039062;
409959;-0.035156;0.037109;1.038086;
410109;-0.033203;0.039062;1.038086;
410249;-0.033203;0.039062;1.038086;
410399;-0.033203;0.038086;1.038086;
410539;-0.034180;0.039062;1.040039;
410679;-0.035156;0.039062;1.038086;
410820;-0.034180;0.038086;1.039062;
410960;-0.033203;0.039062;1.039062;
411104;-0.034180;0.039062;1.039062;
411239;-0.034180;0.040039;1.037109;
411379;-0.034180;0.038086;1.040039;
411534;-0.035156;0.037109;1.039062;
411669;-0.033203;0.040039;1.039062;
411809;-0.035156;0.038086;1.038086;
411959;-0.034180;0.038086;1.039062;
412099;-0.034180;0.038086;1.038086;
412229;-0.034180;0.037109;1.039062;
412369;-0.034180;0.039062;1.038086;
412519;-0.033203;0.039062;1.038086;
412649;-0.035156;0.039062;1.040039;
412789;-0.034180;0.038086;1.038086;
412919;-0.034180;0.039062;1.040039;
413069;-0.034180;0.039062;1.038086;
413219;-0.034180;0.038086;1.039062;
413359;-0.034180;0.038086;1.039062;
413513;-0.035156;0.040039;1.040039;
413654;-0.033203;0.038086;1.039062;
413794;-0.033203;0.038086;1.040039;
413934;-0.034180;0.038086;1.040039;
414069;-0.033203;0.039062;1.038086;
414199;-0.035156;0.038086;1.039062;
414330;-0.033203;0.039062;1.039062;
414470;-0.035156;0.038086;1.039062;
414604;-0.033203;0.039062;1.039062;
414744;-0.034180;0.038086;1.039062;
414884;-0.034180;0.038086;1.037109;
415024;-0.034180;0.039062;1.039062;
415159;-0.034180;0.039062;1.037109;
415289;-0.035156;0.038086;1.038086;
415429;-0.034180;0.038086;1.038086;
415559;-0.035156;0.038086;1.038086;
415689;-0.034180;0.038086;1.039062;
415829;-0.034180;0.038086;1.040039;
415969;-0.033203;0.038086;1.039062;
416109;-0.035156;0.038086;1.040039;
416249;-0.034180;0.040039;1.039062;
416389;-0.035156;0.039062;1.040039;
416539;-0.035156;0.038086;1.039062;
416679;-0.035156;0.037109;1.038086;
416819;-0.034180;0.038086;1.039062;
416969;-0.034180;0.039062;1.040039;
417109;-0.034180;0.040039;1.039062;
417250;-0.035156;0.040039;1.039062;
417389;-0.033203;0.039062;1.038086;
417529;-0.034180;0.038086;1.039062;
417664;-0.034180;0.039062;1.039062;
417804;-0.034180;0.039062;1.038086;
417940;-0.034180;0.038086;1.039062;
418069;-0.034180;0.039062;1.040039;
418209;-0.035156;0.039062;1.039062;
418359;-0.034180;0.039062;1.039062;
418489;-0.035156;0.039062;1.040039;
418639;-0.035156;0.038086;1.038086;
418789;-0.034180;0.039062;1.041016;
418939;-0.035156;0.038086;1.039062;
419089;-0.036133;0.039062;1.038086;
419229;-0.034180;0.039062;1.040039;
419364;-0.034180;0.038086;1.039062;
419509;-0.034180;0.041016;1.039062;
419649;-0.033203;0.037109;1.039062;
419779;-0.033203;0.039062;1.040039;
419919;-0.034180;0.037109;1.039062;
420059;-0.033203;0.040039;1.039062;
420204;-0.035156;0.039062;1.040039;
420353;-0.035156;0.038086;1.041016;
420493;-0.034180;0.039062;1.039062;
420629;-0.033203;0.040039;1.039062;
420769;-0.035156;0.039062;1.039062;
420904;-0.034180;0.038086;1.039062;
421044;-0.034180;0.037109;1.040039;
421184;-0.034180;0.039062;1.041992;
421324;-0.035156;0.039062;1.039062;
421459;-0.035156;0.039062;1.040039;
421599;-0.034180;0.040039;1.039062;
421749;-0.034180;0.038086;1.040039;
421889;-0.034180;0.039062;1.040039;
422029;-0.035156;0.037109;1.039062;
422179;-0.034180;0.039062;1.040039;
422319;-0.034180;0.036133;1.039062;
422469;-0.035156;0.039062;1.039062;
422600;-0.033203;0.039062;1.038086;
422740;-0.034180;0.038086;1.040039;
422890;-0.033203;0.039062;1.039062;
423034;-0.033203;0.039062;1.040039;
423169;-0.034180;0.039062;1.039062;
423299;-0.033203;0.039062;1.039062;
423439;-0.033203;0.040039;1.039062;
423569;-0.034180;0.040039;1.041016;
423709;-0.035156;0.040039;1.039062;
423859;-0.034180;0.038086;1.038086;
424000;-0.035156;0.038086;1.041016;
424130;-0.034180;0.038086;1.037109;
424274;-0.036133;0.037109;1.041016;
424409;-0.035156;0.039062;1.039062;
424539;-0.034180;0.038086;1.039062;
424679;-0.034180;0.036133;1.039062;
424819;-0.033203;0.038086;1.039062;
424959;-0.034180;0.038086;1.037109;
425099;-0.034180;0.040039;1.040039;
425249;-0.034180;0.039062;1.040039;
425399;-0.033203;0.039062;1.039062;
425531;-0.035156;0.038086;1.039062;
425673;-0.034180;0.039062;1.039062;
425814;-0.035156;0.037109;1.037109;
425954;-0.035156;0.038086;1.039062;
426094;-0.033203;0.039062;1.038086;
426234;-0.035156;0.039062;1.040039;
426369;-0.033203;0.038086;1.039062;
426509;-0.034180;0.039062;1.039062;
426654;-0.035156;0.039062;1.039062;
426799;-0.034180;0.039062;1.039062;
426944;-0.034180;0.039062;1.040039;
427083;-0.034180;0.040039;1.040039;
427220;-0.033203;0.039062;1.038086;
427359;-0.035156;0.039062;1.039062;
427509;-0.036133;0.038086;1.041016;
427659;-0.033203;0.039062;1.039062;
427799;-0.033203;0.039062;1.040039;
427939;-0.034180;0.039062;1.038086;
428079;-0.034180;0.039062;1.040039;
428219;-0.034180;0.039062;1.038086;
428369;-0.034180;0.040039;1.040039;
428509;-0.034180;0.039062;1.039062;
428659;-0.034180;0.039062;1.039062;
428789;-0.035156;0.039062;1.040039;
428929;-0.034180;0.040039;1.040039;
429069;-0.034180;0.039062;1.040039;
429219;-0.035156;0.039062;1.039062;
429369;-0.034180;0.040039;1.040039;
429509;-0.034180;0.038086;1.039062;
429659;-0.035156;0.038086;1.039062;
429799;-0.035156;0.039062;1.039062;
429929;-0.034180;0.039062;1.040039;
430069;-0.033203;0.039062;1.039062;
430209;-0.034180;0.040039;1.040039;
430340;-0.035156;0.038086;1.039062;
430479;-0.033203;0.038086;1.040039;
430619;-0.035156;0.038086;1.039062;
430759;-0.034180;0.041016;1.039062;
430899;-0.035156;0.038086;1.040039;
431039;-0.034180;0.040039;1.038086;
431179;-0.034180;0.038086;1.040039;
431329;-0.035156;0.039062;1.039062;
431474;-0.034180;0.039062;1.038086;
431613;-0.035156;0.038086;1.040039;
431753;-0.036133;0.039062;1.038086;
431893;-0.035156;0.038086;1.040039;
432041;-0.034180;0.037109;1.039062;
432169;-0.034180;0.040039;1.040039;
432324;-0.036133;0.039062;1.039062;
432464;-0.034180;0.040039;1.040039;
432604;-0.034180;0.039062;1.038086;
432744;-0.034180;0.039062;1.040039;
432869;-0.034180;0.038086;1.039062;
432999;-0.034180;0.039062;1.040039;
433149;-0.034180;0.038086;1.039062;
433290;-0.034180;0.039062;1.039062;
433431;-0.034180;0.038086;1.039062;
433569;-0.034180;0.038086;1.038086;
433710;-0.035156;0.037109;1.038086;
433849;-0.034180;0.040039;1.039062;
433999;-0.035156;0.039062;1.039062;
434139;-0.035156;0.039062;1.039062;
434290;-0.033203;0.038086;1.038086;
434429;-0.035156;0.036133;1.038086;
434569;-0.034180;0.039062;1.040039;
434720;-0.034180;0.039062;1.038086;
434869;-0.033203;0.040039;1.040039;
435019;-0.033203;0.039062;1.039062;
435161;-0.034180;0.039062;1.039062;
435309;-0.035156;0.039062;1.039062;
435449;-0.034180;0.037109;1.038086;
435599;-0.034180;0.039062;1.040039;
435739;-0.033203;0.039062;1.039062;
435869;-0.034180;0.038086;1.039062;
436019;-0.033203;0.040039;1.039062;
436159;-0.035156;0.039062;1.039062;
436309;-0.034180;0.040039;1.039062;
436449;-0.034180;0.038086;1.038086;
436589;-0.034180;0.039062;1.041016;
436723;-0.033203;0.037109;1.038086;
436859;-0.034180;0.040039;1.038086;
437009;-0.035156;0.039062;1.038086;
437149;-0.034180;0.040039;1.038086;
437289;-0.035156;0.038086;1.039062;
437419;-0.033203;0.039062;1.039062;
437569;-0.035156;0.036133;1.039062;
437699;-0.035156;0.039062;1.038086;
437839;-0.034180;0.038086;1.038086;
437969;-0.035156;0.037109;1.038086;
438099;-0.034180;0.038086;1.038086;
438239;-0.034180;0.040039;1.041016;
438389;-0.034180;0.039062;1.039062;
438519;-0.033203;0.039062;1.040039;
438659;-0.035156;0.040039;1.040039;
438809;-0.034180;0.038086;1.039062;
438959;-0.034180;0.039062;1.040039;
439099;-0.035156;0.037109;1.039062;
439249;-0.036133;0.039062;1.039062;
439389;-0.035156;0.038086;1.039062;
439529;-0.034180;0.040039;1.040039;
439674;-0.034180;0.040039;1.037109;
439813;-0.034180;0.040039;1.040039;
439964;-0.036133;0.037109;1.040039;
440099;-0.035156;0.038086;1.039062;
440229;-0.035156;0.038086;1.037109;
440359;-0.034180;0.039062;1.039062;
440490;-0.034180;0.038086;1.039062;
440629;-0.035156;0.038086;1.039062;
440764;-0.033203;0.040039;1.041016;
440900;-0.034180;0.038086;1.038086;
441029;-0.034180;0.041992;1.040039;
441174;-0.034180;0.038086;1.038086;
441319;-0.035156;0.038086;1.038086;
441454;-0.035156;0.039062;1.040039;
441590;-0.034180;0.038086;1.038086;
441740;-0.035156;0.041016;1.040039;
441879;-0.035156;0.039062;1.039062;
442019;-0.034180;0.040039;1.040039;
442159;-0.035156;0.038086;1.038086;
442309;-0.035156;0.038086;1.038086;
442449;-0.034180;0.037109;1.038086;
442589;-0.034180;0.038086;1.037109;
442719;-0.034180;0.038086;1.040039;
442850;-0.034180;0.041016;1.039062;
442989;-0.034180;0.039062;1.039062;
443129;-0.035156;0.037109;1.037109;
443269;-0.034180;0.039062;1.039062;
443410;-0.035156;0.039062;1.040039;
443549;-0.035156;0.038086;1.039062;
443689;-0.035156;0.039062;1.039062;
443819;-0.034180;0.039062;1.039062;
443959;-0.034180;0.040039;1.039062;
444090;-0.035156;0.040039;1.040039;
444219;-0.034180;0.040039;1.040039;
444369;-0.035156;0.038086;1.039062;
444499;-0.034180;0.039062;1.039062;
444649;-0.034180;0.039062;1.038086;
444779;-0.034180;0.038086;1.038086;
444919;-0.034180;0.040039;1.039062;
445059;-0.035156;0.038086;1.038086;
445200;-0.033203;0.040039;1.041016;
445344;-0.034180;0.039062;1.040039;
445484;-0.034180;0.039062;1.038086;
445624;-0.033203;0.039062;1.040039;
445769;-0.033203;0.039062;1.038086;
445909;-0.034180;0.039062;1.039062;
446044;-0.034180;0.040039;1.039062;
446194;-0.035156;0.037109;1.038086;
446333;-0.034180;0.038086;1.041016;
446485;-0.034180;0.037109;1.037109;
446629;-0.033203;0.038086;1.039062;
446769;-0.034180;0.038086;1.040039;
446914;-0.033203;0.040039;1.040039;
447054;-0.035156;0.038086;1.040039;
447204;-0.035156;0.037109;1.038086;
447339;-0.035156;0.037109;1.041016;
447470;-0.034180;0.039062;1.038086;
447609;-0.034180;0.039062;1.039062;
447750;-0.034180;0.037109;1.039062;
447890;-0.035156;0.038086;1.038086;
448029;-0.033203;0.040039;1.040039;
448169;-0.033203;0.039062;1.039062;
448309;-0.035156;0.038086;1.041016;
448449;-0.034180;0.040039;1.039062;
448599;-0.035156;0.039062;1.038086;
448740;-0.035156;0.040039;1.040039;
448881;-0.034180;0.040039;1.040039;
449019;-0.033203;0.037109;1.039062;
449159;-0.034180;0.039062;1.039062;
449309;-0.034180;0.038086;1.039062;
449459;-0.035156;0.039062;1.040039;
449599;-0.035156;0.039062;1.037109;
449744;-0.035156;0.039062;1.038086;
449889;-0.035156;0.040039;1.040039;
450019;-0.035156;0.039062;1.038086;
450150;-0.035156;0.037109;1.039062;
450279;-0.034180;0.038086;1.039062;
450419;-0.034180;0.039062;1.040039;
450569;-0.034180;0.038086;1.038086;
450709;-0.034180;0.039062;1.038086;
450850;-0.034180;0.040039;1.040039;
450994;-0.034180;0.039062;1.040039;
451143;-0.035156;0.037109;1.041016;
451284;-0.033203;0.040039;1.037109;
451429;-0.033203;0.038086;1.039062;
451569;-0.034180;0.039062;1.039062;
451699;-0.035156;0.038086;1.038086;
451853;-0.034180;0.039062;1.040039;
451993;-0.034180;0.038086;1.039062;
452129;-0.032227;0.039062;1.039062;
452274;-0.033203;0.039062;1.039062;
452424;-0.034180;0.040039;1.038086;
452564;-0.035156;0.037109;1.039062;
452699;-0.036133;0.038086;1.038086;
452839;-0.033203;0.040039;1.038086;
452969;-0.033203;0.039062;1.038086;
453110;-0.035156;0.039062;1.039062;
453239;-0.035156;0.039062;1.039062;
453379;-0.034180;0.039062;1.039062;
453519;-0.034180;0.039062;1.039062;
453659;-0.034180;0.036133;1.038086;
453809;-0.033203;0.039062;1.039062;
453959;-0.034180;0.039062;1.039062;
454099;-0.034180;0.038086;1.038086;
454249;-0.033203;0.038086;1.039062;
454390;-0.035156;0.038086;1.040039;
454530;-0.035156;0.039062;1.039062;
454680;-0.034180;0.038086;1.038086;
454819;-0.035156;0.037109;1.040039;
454969;-0.035156;0.038086;1.038086;
455109;-0.034180;0.038086;1.040039;
455259;-0.035156;0.037109;1.039062;
455409;-0.034180;0.040039;1.039062;
455559;-0.034180;0.040039;1.038086;
455699;-0.033203;0.041016;1.039062;
455839;-0.035156;0.039062;1.039062;
455969;-0.034180;0.037109;1.039062;
456099;-0.034180;0.037109;1.039062;
456239;-0.033203;0.040039;1.039062;
456379;-0.035156;0.038086;1.040039;
456509;-0.034180;0.038086;1.039062;
456649;-0.035156;0.039062;1.039062;
456780;-0.034180;0.038086;1.039062;
456919;-0.033203;0.038086;1.040039;
457069;-0.035156;0.039062;1.039062;
457209;-0.035156;0.038086;1.039062;
457364;-0.034180;0.039062;1.039062;
457504;-0.034180;0.039062;1.038086;
457649;-0.034180;0.041016;1.040039;
457789;-0.035156;0.039062;1.040039;
457934;-0.035156;0.040039;1.040039;
458073;-0.035156;0.039062;1.039062;
458214;-0.035156;0.037109;1.038086;
458349;-0.034180;0.038086;1.039062;
458479;-0.035156;0.039062;1.038086;
458610;-0.034180;0.037109;1.038086;
458754;-0.034180;0.039062;1.038086;
458891;-0.034180;0.038086;1.040039;
459019;-0.034180;0.040039;1.040039;
459154;-0.035156;0.040039;1.039062;
459283;-0.035156;0.037109;1.040039;
459422;-0.034180;0.039062;1.038086;
459549;-0.035156;0.038086;1.039062;
459689;-0.034180;0.039062;1.040039;
459829;-0.035156;0.040039;1.039062;
459969;-0.035156;0.039062;1.040039;
460110;-0.034180;0.038086;1.039062;
460249;-0.034180;0.038086;1.039062;
460391;-0.033203;0.040039;1.038086;
460530;-0.035156;0.038086;1.039062;
460679;-0.034180;0.039062;1.038086;
460819;-0.034180;0.040039;1.040039;
460959;-0.033203;0.040039;1.039062;
461093;-0.034180;0.038086;1.040039;
461232;-0.033203;0.039062;1.039062;
461369;-0.035156;0.038086;1.038086;
461499;-0.034180;0.039062;1.038086;
461629;-0.035156;0.037109;1.039062;
461769;-0.033203;0.039062;1.038086;
461909;-0.035156;0.038086;1.038086;
462040;-0.033203;0.039062;1.038086;
462180;-0.035156;0.039062;1.039062;
462313;-0.035156;0.039062;1.038086;
462449;-0.034180;0.039062;1.039062;
462589;-0.034180;0.037109;1.040039;
462729;-0.035156;0.039062;1.040039;
462859;-0.034180;0.040039;1.040039;
462990;-0.035156;0.038086;1.039062;
463129;-0.034180;0.038086;1.037109;
463270;-0.035156;0.040039;1.039062;
463411;-0.035156;0.038086;1.040039;
463543;-0.034180;0.038086;1.038086;
463679;-0.034180;0.040039;1.038086;
463813;-0.035156;0.038086;1.039062;
463950;-0.033203;0.040039;1.039062;
464079;-0.035156;0.038086;1.040039;
464209;-0.035156;0.039062;1.038086;
464349;-0.035156;0.039062;1.039062;
464499;-0.034180;0.038086;1.038086;
464639;-0.034180;0.040039;1.040039;
464789;-0.035156;0.039062;1.040039;
464931;-0.034180;0.039062;1.040039;
465069;-0.035156;0.038086;1.040039;
465209;-0.034180;0.040039;1.039062;
465349;-0.035156;0.039062;1.039062;
465489;-0.034180;0.039062;1.039062;
465629;-0.034180;0.039062;1.040039;
465779;-0.036133;0.038086;1.041016;
465914;-0.034180;0.040039;1.040039;
466043;-0.034180;0.039062;1.038086;
466179;-0.033203;0.040039;1.038086;
466313;-0.033203;0.041016;1.039062;
466439;-0.035156;0.039062;1.039062;
466584;-0.035156;0.039062;1.040039;
466724;-0.034180;0.039062;1.037109;
466859;-0.035156;0.040039;1.040039;
466989;-0.033203;0.039062;1.037109;
467119;-0.035156;0.039062;1.040039;
467264;-0.033203;0.038086;1.039062;
467404;-0.034180;0.038086;1.039062;
467543;-0.035156;0.038086;1.039062;
467684;-0.035156;0.039062;1.039062;
467829;-0.034180;0.038086;1.037109;
467970;-0.035156;0.039062;1.039062;
468109;-0.036133;0.038086;1.038086;
468249;-0.035156;0.038086;1.038086;
468394;-0.034180;0.038086;1.039062;
468529;-0.035156;0.039062;1.038086;
468659;-0.034180;0.039062;1.039062;
468789;-0.034180;0.039062;1.040039;
468919;-0.035156;0.038086;1.039062;
469060;-0.033203;0.039062;1.039062;
469189;-0.035156;0.040039;1.039062;
469329;-0.034180;0.039062;1.038086;
469479;-0.035156;0.037109;1.038086;
469629;-0.035156;0.039062;1.039062;
469779;-0.034180;0.038086;1.039062;
469919;-0.033203;0.038086;1.038086;
470069;-0.033203;0.040039;1.041016;
470210;-0.034180;0.037109;1.039062;
470354;-0.034180;0.040039;1.039062;
470499;-0.035156;0.037109;1.039062;
470634;-0.035156;0.039062;1.039062;
470769;-0.035156;0.038086;1.039062;
470899;-0.035156;0.037109;1.039062;
471029;-0.033203;0.040039;1.039062;
471169;-0.034180;0.038086;1.037109;
471309;-0.034180;0.039062;1.039062;
471459;-0.035156;0.038086;1.039062;
471599;-0.034180;0.039062;1.040039;
471729;-0.033203;0.041016;1.039062;
471874;-0.034180;0.039062;1.038086;
472014;-0.035156;0.039062;1.039062;
472149;-0.034180;0.039062;1.038086;
472304;-0.034180;0.039062;1.039062;
472449;-0.035156;0.039062;1.039062;
472579;-0.033203;0.040039;1.039062;
472729;-0.035156;0.037109;1.039062;
472859;-0.033203;0.039062;1.040039;
472999;-0.034180;0.039062;1.038086;
473130;-0.034180;0.037109;1.037109;
473259;-0.034180;0.039062;1.040039;
473409;-0.033203;0.041016;1.039062;
473540;-0.035156;0.039062;1.041016;
473679;-0.034180;0.038086;1.039062;
473819;-0.034180;0.039062;1.038086;
473969;-0.035156;0.039062;1.039062;
