Time;acc_x;acc_y;acc_z;

118953;0.034180;0.024414;1.114258;
119169;0.035156;0.024414;1.113281;
119319;0.033203;0.022461;1.133789;
119459;0.036133;0.028320;1.146484;
119599;0.033203;0.031250;1.130859;
119740;0.035156;0.030273;1.133789;
119879;0.032227;0.023438;1.113281;
120019;0.035156;0.027344;1.126953;
120159;0.035156;0.026367;1.134766;
120299;0.032227;0.028320;1.125000;
120439;0.033203;0.026367;1.122070;
120579;0.033203;0.027344;1.124023;
120719;0.034180;0.028320;1.128906;
120859;0.032227;0.030273;1.133789;
120999;0.031250;0.024414;1.125000;
121139;0.035156;0.026367;1.122070;
121279;0.034180;0.026367;1.125977;
121419;0.034180;0.027344;1.121094;
121555;0.035156;0.025391;1.120117;
121705;0.031250;0.027344;1.121094;
121856;0.032227;0.025391;1.113281;
122019;0.035156;0.023438;1.115234;
122159;0.032227;0.028320;1.117188;
122299;0.031250;0.026367;1.108398;
122439;0.033203;0.029297;1.108398;
122579;0.032227;0.027344;1.103516;
122715;0.032227;0.025391;1.106445;
122866;0.033203;0.027344;1.109375;
123029;0.036133;0.033203;1.120117;
123169;0.031250;0.027344;1.099609;
123309;0.032227;0.031250;1.105469;
123459;0.033203;0.033203;1.109375;
123595;0.032227;0.026367;1.102539;
123749;0.032227;0.025391;1.105469;
123889;0.033203;0.027344;1.115234;
124025;0.029297;0.029297;1.104492;
124185;0.034180;0.029297;1.108398;
124345;0.033203;0.030273;1.107422;
124506;0.035156;0.032227;1.112305;
124646;0.032227;0.028320;1.106445;
124789;0.034180;0.027344;1.108398;
124929;0.031250;0.034180;1.103516;
125079;0.032227;0.029297;1.089844;
125220;0.033203;0.025391;1.098633;
125369;0.032227;0.027344;1.111328;
125509;0.031250;0.029297;1.096680;
125645;0.030273;0.032227;1.096680;
125789;0.029297;0.031250;1.105469;
125929;0.032227;0.027344;1.092773;
126069;0.030273;0.025391;1.104492;
126209;0.033203;0.031250;1.105469;
126345;0.032227;0.028320;1.096680;
126499;0.030273;0.025391;1.087891;
126639;0.029297;0.026367;1.088867;
126796;0.033203;0.030273;1.090820;
126955;0.032227;0.027344;1.082031;
127115;0.030273;0.032227;1.091797;
127266;0.031250;0.028320;1.090820;
127420;0.032227;0.032227;1.079102;
127555;0.032227;0.031250;1.083008;
127719;0.029297;0.027344;1.078125;
127859;0.030273;0.025391;1.073242;
127999;0.031250;0.031250;1.080078;
128135;0.031250;0.029297;1.082031;
128279;0.031250;0.025391;1.075195;
128410;0.032227;0.028320;1.079102;
128549;0.032227;0.027344;1.070312;
128689;0.031250;0.028320;1.074219;
128829;0.028320;0.030273;1.072266;
128966;0.030273;0.027344;1.061523;
129109;0.031250;0.022461;1.057617;
129250;0.030273;0.026367;1.064453;
129395;0.029297;0.027344;1.060547;
129555;0.029297;0.031250;1.062500;
129715;0.030273;0.035156;1.060547;
129875;0.029297;0.034180;1.067383;
130039;0.028320;0.035156;1.056641;
130179;0.028320;0.032227;1.044922;
130320;0.028320;0.039062;1.054688;
130460;0.027344;0.036133;1.056641;
130599;0.028320;0.034180;1.048828;
130739;0.026367;0.037109;1.039062;
130879;0.027344;0.040039;1.030273;
131030;0.028320;0.040039;1.034180;
131169;0.027344;0.041992;1.041016;
131309;0.025391;0.038086;1.026367;
131449;0.027344;0.040039;1.030273;
131589;0.029297;0.041992;1.025391;
131729;0.026367;0.041016;1.022461;
131870;0.025391;0.041016;1.018555;
132005;0.026367;0.040039;1.030273;
132166;0.022461;0.042969;1.019531;
132315;0.028320;0.041016;1.027344;
132465;0.026367;0.035156;1.025391;
132629;0.026367;0.041992;1.028320;
132769;0.028320;0.040039;1.024414;
132909;0.024414;0.042969;1.026367;
133049;0.025391;0.040039;1.020508;
133189;0.028320;0.041016;1.017578;
133329;0.024414;0.039062;1.023438;
133469;0.024414;0.043945;1.015625;
133605;0.024414;0.041992;1.009766;
133759;0.021484;0.040039;1.014648;
133899;0.025391;0.041992;1.008789;
134039;0.027344;0.041992;1.022461;
134176;0.026367;0.044922;1.019531;
134329;0.026367;0.042969;1.018555;
134470;0.026367;0.044922;1.011719;
134625;0.023438;0.041016;1.004883;
134786;0.026367;0.040039;1.008789;
134945;0.026367;0.041992;1.008789;
135095;0.024414;0.038086;1.005859;
135259;0.026367;0.040039;1.007812;
135399;0.023438;0.039062;0.999023;
135535;0.026367;0.040039;1.011719;
135689;0.024414;0.040039;1.003906;
135829;0.025391;0.039062;1.001953;
135970;0.026367;0.038086;1.012695;
136105;0.025391;0.037109;1.010742;
136259;0.023438;0.037109;1.003906;
136409;0.023438;0.039062;1.011719;
136549;0.026367;0.040039;1.008789;
136691;0.027344;0.036133;1.012695;
136850;0.026367;0.037109;1.014648;
136999;0.028320;0.038086;1.012695;
137141;0.025391;0.041016;1.014648;
137306;0.025391;0.039062;1.018555;
137465;0.025391;0.039062;1.014648;
137615;0.026367;0.038086;1.017578;
137775;0.026367;0.039062;1.016602;
137939;0.027344;0.037109;1.018555;
138079;0.027344;0.040039;1.021484;
138220;0.026367;0.040039;1.012695;
138355;0.025391;0.038086;1.010742;
138509;0.026367;0.037109;1.018555;
138649;0.026367;0.038086;1.011719;
138790;0.024414;0.037109;1.012695;
138925;0.023438;0.039062;1.011719;
139079;0.026367;0.039062;1.015625;
139220;0.028320;0.038086;1.014648;
139359;0.025391;0.031250;1.017578;
139509;0.027344;0.036133;1.009766;
139649;0.026367;0.035156;1.022461;
139789;0.024414;0.036133;1.021484;
139935;0.028320;0.035156;1.013672;
140086;0.027344;0.036133;1.022461;
140245;0.026367;0.038086;1.019531;
140406;0.025391;0.035156;1.017578;
140550;0.029297;0.037109;1.017578;
140689;0.026367;0.041016;1.017578;
140830;0.027344;0.036133;1.017578;
140969;0.025391;0.035156;1.017578;
141109;0.030273;0.038086;1.022461;
141249;0.026367;0.038086;1.017578;
141389;0.025391;0.035156;1.017578;
141525;0.025391;0.035156;1.025391;
141657;0.026367;0.038086;1.015625;
141809;0.027344;0.035156;1.022461;
141949;0.026367;0.041016;1.036133;
142090;0.027344;0.037109;1.024414;
142225;0.029297;0.036133;1.026367;
142390;0.027344;0.038086;1.022461;
142525;0.028320;0.037109;1.026367;
142675;0.025391;0.035156;1.024414;
142835;0.026367;0.039062;1.036133;
142985;0.028320;0.036133;1.029297;
143149;0.027344;0.039062;1.032227;
143289;0.028320;0.032227;1.036133;
143429;0.029297;0.038086;1.034180;
143565;0.027344;0.035156;1.021484;
143710;0.026367;0.037109;1.032227;
143849;0.026367;0.041992;1.037109;
143990;0.028320;0.038086;1.029297;
144127;0.031250;0.037109;1.039062;
144280;0.027344;0.036133;1.033203;
144420;0.026367;0.036133;1.028320;
144559;0.026367;0.041016;1.033203;
144695;0.027344;0.033203;1.026367;
144849;0.027344;0.035156;1.013672;
144989;0.026367;0.037109;1.027344;
145135;0.028320;0.036133;1.035156;
145285;0.028320;0.036133;1.027344;
145435;0.028320;0.036133;1.034180;
145585;0.027344;0.035156;1.025391;
145739;0.026367;0.034180;1.022461;
145875;0.026367;0.036133;1.020508;
146019;0.027344;0.033203;1.033203;
146159;0.028320;0.038086;1.034180;
146300;0.029297;0.040039;1.036133;
146440;0.028320;0.037109;1.034180;
146580;0.027344;0.032227;1.026367;
146720;0.027344;0.038086;1.023438;
146859;0.028320;0.039062;1.035156;
147009;0.025391;0.039062;1.029297;
147150;0.029297;0.036133;1.029297;
147289;0.026367;0.037109;1.029297;
147429;0.025391;0.037109;1.019531;
147570;0.024414;0.038086;1.025391;
147709;0.029297;0.041016;1.033203;
147850;0.026367;0.035156;1.009766;
147985;0.027344;0.036133;1.028320;
148146;0.025391;0.035156;1.023438;
148306;0.029297;0.037109;1.031250;
148466;0.027344;0.035156;1.032227;
148610;0.027344;0.038086;1.033203;
148759;0.029297;0.038086;1.034180;
148899;0.028320;0.036133;1.026367;
149035;0.027344;0.036133;1.038086;
149189;0.028320;0.039062;1.037109;
149330;0.027344;0.037109;1.034180;
149479;0.026367;0.037109;1.025391;
149615;0.028320;0.039062;1.031250;
149776;0.028320;0.035156;1.026367;
149929;0.027344;0.033203;1.026367;
150069;0.027344;0.036133;1.034180;
150209;0.028320;0.037109;1.029297;
150355;0.028320;0.042969;1.026367;
150509;0.030273;0.037109;1.029297;
150654;0.026367;0.039062;1.029297;
150817;0.028320;0.034180;1.023438;
150965;0.026367;0.037109;1.033203;
151125;0.027344;0.038086;1.032227;
151270;0.028320;0.041016;1.022461;
151420;0.024414;0.039062;1.019531;
151559;0.030273;0.037109;1.027344;
151706;0.026367;0.038086;1.026367;
151859;0.026367;0.036133;1.024414;
152009;0.029297;0.035156;1.025391;
152149;0.026367;0.036133;1.024414;
152299;0.027344;0.040039;1.027344;
152436;0.028320;0.037109;1.013672;
152589;0.025391;0.035156;1.012695;
152729;0.028320;0.038086;1.018555;
152869;0.027344;0.034180;1.021484;
153005;0.025391;0.036133;1.018555;
153159;0.025391;0.033203;1.020508;
153315;0.026367;0.036133;1.018555;
153475;0.028320;0.038086;1.023438;
153625;0.027344;0.032227;1.018555;
153775;0.027344;0.038086;1.028320;
153929;0.027344;0.039062;1.028320;
154070;0.026367;0.033203;1.029297;
154209;0.028320;0.041016;1.024414;
154349;0.028320;0.035156;1.024414;
154489;0.026367;0.039062;1.017578;
154639;0.025391;0.038086;1.020508;
154779;0.026367;0.038086;1.026367;
154920;0.029297;0.036133;1.019531;
155060;0.026367;0.039062;1.027344;
155200;0.026367;0.038086;1.024414;
155340;0.026367;0.038086;1.017578;
155489;0.026367;0.036133;1.024414;
155629;0.028320;0.039062;1.016602;
155769;0.026367;0.034180;1.016602;
155915;0.026367;0.036133;1.027344;
156075;0.028320;0.038086;1.027344;
156236;0.027344;0.038086;1.023438;
156400;0.028320;0.035156;1.021484;
156550;0.024414;0.035156;1.019531;
156689;0.027344;0.036133;1.020508;
156829;0.026367;0.037109;1.011719;
156969;0.026367;0.034180;1.018555;
157109;0.027344;0.033203;1.018555;
157259;0.027344;0.032227;1.020508;
157409;0.025391;0.036133;1.018555;
157549;0.028320;0.034180;1.023438;
157689;0.027344;0.034180;1.025391;
157830;0.025391;0.033203;1.015625;
157969;0.026367;0.037109;1.019531;
158109;0.027344;0.036133;1.025391;
158249;0.028320;0.033203;1.020508;
158397;0.027344;0.035156;1.022461;
158555;0.027344;0.034180;1.018555;
158715;0.027344;0.034180;1.024414;
158869;0.029297;0.035156;1.027344;
159009;0.029297;0.033203;1.022461;
159149;0.026367;0.037109;1.020508;
159289;0.027344;0.035156;1.018555;
159430;0.028320;0.037109;1.017578;
159570;0.025391;0.039062;1.028320;
159710;0.027344;0.038086;1.025391;
159859;0.026367;0.031250;1.015625;
160000;0.025391;0.038086;1.026367;
160139;0.027344;0.037109;1.026367;
160289;0.025391;0.039062;1.026367;
160429;0.024414;0.039062;1.023438;
160569;0.027344;0.034180;1.026367;
160719;0.026367;0.035156;1.021484;
160855;0.028320;0.035156;1.018555;
161015;0.027344;0.034180;1.018555;
161175;0.028320;0.031250;1.013672;
161330;0.025391;0.036133;1.022461;
161469;0.026367;0.033203;1.015625;
161609;0.027344;0.035156;1.005859;
161749;0.027344;0.039062;1.015625;
161889;0.028320;0.032227;1.019531;
162030;0.025391;0.033203;1.016602;
162169;0.026367;0.036133;1.020508;
162319;0.026367;0.035156;1.021484;
162460;0.026367;0.035156;1.010742;
162599;0.029297;0.035156;1.026367;
162740;0.025391;0.034180;1.024414;
162880;0.026367;0.035156;1.015625;
163019;0.028320;0.039062;1.028320;
163159;0.028320;0.032227;1.014648;
163305;0.024414;0.036133;1.013672;
163455;0.025391;0.040039;1.024414;
163595;0.027344;0.033203;1.022461;
163755;0.028320;0.040039;1.015625;
163910;0.027344;0.038086;1.024414;
164049;0.027344;0.036133;1.017578;
164189;0.029297;0.034180;1.017578;
164330;0.027344;0.037109;1.026367;
164470;0.027344;0.037109;1.023438;
164609;0.026367;0.036133;1.015625;
164749;0.026367;0.040039;1.024414;
164889;0.027344;0.043945;1.029297;
165029;0.028320;0.041016;1.022461;
165170;0.025391;0.035156;1.020508;
165309;0.028320;0.037109;1.018555;
165449;0.028320;0.037109;1.026367;
165589;0.027344;0.040039;1.026367;
165739;0.026367;0.036133;1.021484;
165879;0.028320;0.030273;1.021484;
166026;0.028320;0.037109;1.021484;
166186;0.026367;0.034180;1.017578;
166346;0.028320;0.032227;1.013672;
166489;0.026367;0.033203;1.021484;
166629;0.027344;0.032227;1.024414;
166769;0.027344;0.038086;1.019531;
166909;0.026367;0.035156;1.017578;
167049;0.030273;0.039062;1.019531;
167199;0.028320;0.033203;1.027344;
167339;0.028320;0.038086;1.028320;
167479;0.026367;0.034180;1.020508;
167619;0.027344;0.036133;1.013672;
167759;0.027344;0.038086;1.011719;
167895;0.029297;0.039062;1.020508;
168049;0.027344;0.035156;1.022461;
168189;0.026367;0.037109;1.021484;
168330;0.026367;0.033203;1.022461;
168475;0.026367;0.036133;1.019531;
168627;0.025391;0.038086;1.017578;
168786;0.028320;0.038086;1.028320;
168935;0.026367;0.034180;1.019531;
169079;0.028320;0.034180;1.021484;
169215;0.028320;0.037109;1.024414;
169366;0.028320;0.035156;1.013672;
169529;0.026367;0.032227;1.017578;
169679;0.029297;0.035156;1.012695;
169819;0.026367;0.038086;1.016602;
169959;0.029297;0.041016;1.030273;
170105;0.028320;0.036133;1.017578;
170260;0.028320;0.038086;1.020508;
170409;0.027344;0.035156;1.013672;
170550;0.027344;0.039062;1.021484;
170695;0.026367;0.039062;1.024414;
170849;0.027344;0.034180;1.026367;
170999;0.026367;0.035156;1.022461;
171140;0.028320;0.032227;1.019531;
171290;0.027344;0.038086;1.014648;
171415;0.026367;0.037109;1.019531;
171565;0.028320;0.041016;1.025391;
171705;0.027344;0.039062;1.023438;
171866;0.027344;0.041992;1.029297;
172025;0.026367;0.041016;1.024414;
172175;0.028320;0.038086;1.022461;
172329;0.027344;0.036133;1.021484;
172469;0.028320;0.037109;1.023438;
172609;0.027344;0.041016;1.024414;
172755;0.027344;0.034180;1.022461;
172885;0.027344;0.035156;1.019531;
173040;0.027344;0.040039;1.021484;
173179;0.027344;0.033203;1.020508;
173319;0.027344;0.034180;1.031250;
173455;0.028320;0.039062;1.020508;
173609;0.029297;0.036133;1.023438;
173760;0.026367;0.037109;1.016602;
173899;0.028320;0.038086;1.015625;
174041;0.028320;0.033203;1.017578;
174185;0.027344;0.034180;1.015625;
174337;0.028320;0.039062;1.020508;
174495;0.027344;0.035156;1.021484;
174655;0.026367;0.038086;1.026367;
174809;0.027344;0.037109;1.010742;
174949;0.027344;0.033203;1.015625;
175089;0.027344;0.038086;1.020508;
175230;0.030273;0.032227;1.017578;
175370;0.027344;0.032227;1.013672;
175519;0.027344;0.031250;1.019531;
175660;0.030273;0.032227;1.024414;
175800;0.027344;0.036133;1.025391;
175939;0.027344;0.038086;1.015625;
176079;0.029297;0.038086;1.019531;
176229;0.028320;0.035156;1.020508;
176369;0.028320;0.035156;1.019531;
176509;0.027344;0.033203;1.018555;
176650;0.027344;0.037109;1.026367;
176785;0.030273;0.039062;1.029297;
176947;0.027344;0.035156;1.021484;
177105;0.026367;0.036133;1.011719;
177259;0.030273;0.039062;1.021484;
177399;0.028320;0.037109;1.012695;
177539;0.028320;0.038086;1.017578;
177680;0.029297;0.039062;1.016602;
177819;0.024414;0.030273;1.006836;
177960;0.028320;0.034180;1.015625;
178099;0.027344;0.033203;1.017578;
178249;0.028320;0.037109;1.016602;
178389;0.027344;0.036133;1.015625;
178529;0.029297;0.032227;1.019531;
178669;0.027344;0.032227;1.018555;
178810;0.028320;0.035156;1.010742;
178949;0.027344;0.036133;1.025391;
179089;0.027344;0.035156;1.016602;
179225;0.027344;0.035156;1.016602;
179375;0.029297;0.038086;1.021484;
179535;0.026367;0.034180;1.016602;
179685;0.029297;0.037109;1.017578;
179825;0.030273;0.040039;1.033203;
179979;0.029297;0.040039;1.030273;
180119;0.027344;0.039062;1.025391;
180259;0.029297;0.036133;1.028320;
180396;0.029297;0.036133;1.035156;
180549;0.027344;0.034180;1.014648;
180699;0.027344;0.033203;1.026367;
180850;0.026367;0.031250;1.021484;
180990;0.027344;0.037109;1.019531;
181129;0.031250;0.034180;1.030273;
181269;0.028320;0.033203;1.029297;
181409;0.030273;0.041016;1.017578;
181549;0.028320;0.036133;1.020508;
181689;0.026367;0.033203;1.014648;
181825;0.028320;0.036133;1.017578;
181976;0.027344;0.039062;1.024414;
182126;0.027344;0.032227;1.028320;
182279;0.031250;0.038086;1.025391;
182435;0.027344;0.036133;1.024414;
182599;0.027344;0.036133;1.020508;
182749;0.026367;0.032227;1.015625;
182890;0.028320;0.031250;1.020508;
183029;0.028320;0.036133;1.019531;
183179;0.029297;0.035156;1.021484;
183319;0.025391;0.034180;1.020508;
183459;0.027344;0.034180;1.023438;
183609;0.029297;0.032227;1.018555;
183750;0.028320;0.034180;1.013672;
183889;0.027344;0.039062;1.027344;
184029;0.028320;0.039062;1.027344;
184169;0.026367;0.037109;1.018555;
184310;0.027344;0.039062;1.019531;
184449;0.028320;0.040039;1.019531;
184585;0.027344;0.033203;1.020508;
184725;0.026367;0.036133;1.019531;
184865;0.030273;0.036133;1.024414;
185026;0.028320;0.037109;1.013672;
185185;0.027344;0.036133;1.016602;
185349;0.029297;0.036133;1.017578;
185490;0.030273;0.036133;1.015625;
185639;0.029297;0.041016;1.023438;
185779;0.027344;0.038086;1.032227;
185919;0.029297;0.037109;1.021484;
186059;0.026367;0.032227;1.017578;
186199;0.026367;0.037109;1.019531;
186340;0.028320;0.037109;1.020508;
186479;0.027344;0.035156;1.023438;
186620;0.028320;0.033203;1.022461;
186760;0.032227;0.034180;1.024414;
186900;0.029297;0.035156;1.022461;
187039;0.031250;0.031250;1.028320;
187180;0.026367;0.035156;1.026367;
187325;0.027344;0.033203;1.029297;
187485;0.028320;0.038086;1.034180;
187645;0.028320;0.030273;1.028320;
187799;0.026367;0.034180;1.014648;
187949;0.027344;0.036133;1.023438;
188090;0.030273;0.036133;1.029297;
188229;0.027344;0.041016;1.028320;
188379;0.028320;0.037109;1.026367;
188520;0.030273;0.033203;1.025391;
188659;0.025391;0.036133;1.015625;
188799;0.027344;0.039062;1.024414;
188939;0.025391;0.041992;1.022461;
189079;0.026367;0.038086;1.018555;
189219;0.027344;0.043945;1.030273;
189359;0.031250;0.038086;1.027344;
189499;0.026367;0.034180;1.021484;
189649;0.027344;0.032227;1.026367;
189786;0.029297;0.039062;1.028320;
189935;0.028320;0.038086;1.023438;
190085;0.030273;0.036133;1.030273;
190236;0.030273;0.031250;1.027344;
190389;0.030273;0.033203;1.025391;
190530;0.026367;0.035156;1.023438;
190670;0.028320;0.037109;1.014648;
190809;0.027344;0.035156;1.017578;
190949;0.028320;0.036133;1.028320;
191089;0.029297;0.032227;1.022461;
191230;0.026367;0.039062;1.024414;
191369;0.026367;0.036133;1.027344;
191509;0.032227;0.036133;1.027344;
191649;0.027344;0.034180;1.011719;
191789;0.031250;0.034180;1.024414;
191929;0.028320;0.041992;1.026367;
192070;0.027344;0.037109;1.014648;
192209;0.029297;0.038086;1.026367;
192345;0.029297;0.038086;1.022461;
192489;0.029297;0.037109;1.024414;
192625;0.028320;0.039062;1.025391;
192776;0.029297;0.037109;1.021484;
192925;0.027344;0.038086;1.012695;
193079;0.028320;0.038086;1.018555;
193229;0.030273;0.034180;1.022461;
193370;0.026367;0.030273;1.007812;
193520;0.030273;0.035156;1.023438;
193660;0.027344;0.035156;1.020508;
193799;0.027344;0.033203;1.013672;
193949;0.030273;0.036133;1.014648;
194089;0.032227;0.036133;1.027344;
194229;0.027344;0.038086;1.016602;
194379;0.028320;0.039062;1.019531;
194520;0.028320;0.031250;1.017578;
194660;0.027344;0.032227;1.013672;
194799;0.028320;0.037109;1.027344;
194939;0.030273;0.034180;1.022461;
195075;0.026367;0.039062;1.021484;
195225;0.028320;0.037109;1.026367;
195375;0.029297;0.035156;1.024414;
195520;0.028320;0.035156;1.020508;
195655;0.031250;0.035156;1.020508;
195819;0.030273;0.035156;1.025391;
195969;0.025391;0.039062;1.020508;
196109;0.027344;0.037109;1.022461;
196249;0.031250;0.035156;1.023438;
196389;0.027344;0.037109;1.022461;
196529;0.027344;0.035156;1.025391;
196670;0.029297;0.035156;1.022461;
196809;0.028320;0.039062;1.024414;
196949;0.028320;0.039062;1.024414;
197089;0.029297;0.035156;1.015625;
197230;0.029297;0.037109;1.021484;
197369;0.025391;0.041016;1.025391;
197509;0.028320;0.034180;1.024414;
197649;0.027344;0.035156;1.020508;
197789;0.031250;0.035156;1.028320;
197925;0.028320;0.032227;1.018555;
198075;0.026367;0.033203;1.020508;
198205;0.027344;0.038086;1.023438;
198355;0.030273;0.034180;1.023438;
198509;0.027344;0.036133;1.014648;
198649;0.028320;0.035156;1.022461;
198789;0.030273;0.037109;1.027344;
198930;0.027344;0.034180;1.027344;
199079;0.026367;0.036133;1.021484;
199220;0.029297;0.035156;1.022461;
199359;0.028320;0.035156;1.019531;
199499;0.030273;0.039062;1.024414;
199639;0.031250;0.035156;1.028320;
199779;0.027344;0.036133;1.020508;
199919;0.030273;0.038086;1.027344;
200069;0.029297;0.034180;1.023438;
200209;0.026367;0.032227;1.018555;
200349;0.028320;0.036133;1.027344;
200490;0.027344;0.034180;1.018555;
200635;0.027344;0.037109;1.018555;
200785;0.030273;0.039062;1.020508;
200935;0.030273;0.037109;1.021484;
201079;0.028320;0.037109;1.014648;
201219;0.026367;0.039062;1.030273;
201359;0.031250;0.033203;1.031250;
201499;0.027344;0.038086;1.019531;
201649;0.029297;0.036133;1.020508;
201789;0.030273;0.037109;1.021484;
201929;0.028320;0.035156;1.023438;
202070;0.025391;0.036133;1.025391;
202209;0.031250;0.036133;1.028320;
202349;0.028320;0.034180;1.018555;
202489;0.029297;0.035156;1.023438;
202629;0.029297;0.037109;1.026367;
202770;0.025391;0.036133;1.023438;
202909;0.029297;0.037109;1.027344;
203061;0.031250;0.038086;1.028320;
203225;0.029297;0.038086;1.015625;
203376;0.026367;0.034180;1.016602;
203535;0.028320;0.038086;1.027344;
203699;0.028320;0.038086;1.027344;
203839;0.028320;0.036133;1.025391;
203980;0.029297;0.038086;1.025391;
204119;0.030273;0.038086;1.025391;
204259;0.027344;0.032227;1.016602;
204399;0.028320;0.034180;1.018555;
204539;0.029297;0.039062;1.020508;
204679;0.027344;0.041992;1.025391;
204819;0.030273;0.039062;1.020508;
204959;0.031250;0.036133;1.017578;
205099;0.029297;0.039062;1.028320;
205239;0.027344;0.037109;1.031250;
205380;0.029297;0.038086;1.020508;
205520;0.027344;0.034180;1.012695;
205655;0.029297;0.036133;1.021484;
205807;0.029297;0.034180;1.014648;
205955;0.028320;0.032227;1.012695;
206105;0.026367;0.036133;1.017578;
206260;0.028320;0.038086;1.025391;
206399;0.028320;0.035156;1.014648;
206549;0.028320;0.036133;1.014648;
206690;0.029297;0.035156;1.023438;
206829;0.027344;0.037109;1.021484;
206979;0.026367;0.035156;1.017578;
207119;0.029297;0.034180;1.018555;
207259;0.029297;0.035156;1.013672;
207399;0.028320;0.037109;1.026367;
207539;0.029297;0.033203;1.032227;
207679;0.025391;0.037109;1.021484;
207819;0.025391;0.037109;1.026367;
207959;0.028320;0.035156;1.016602;
208100;0.027344;0.035156;1.012695;
208239;0.029297;0.039062;1.031250;
208379;0.029297;0.041992;1.029297;
208517;0.027344;0.038086;1.021484;
208665;0.028320;0.038086;1.023438;
208815;0.031250;0.036133;1.019531;
208965;0.025391;0.034180;1.019531;
209119;0.028320;0.039062;1.026367;
209259;0.029297;0.037109;1.025391;
209399;0.024414;0.034180;1.021484;
209539;0.027344;0.035156;1.017578;
209679;0.028320;0.036133;1.023438;
209819;0.027344;0.037109;1.023438;
209959;0.027344;0.038086;1.019531;
210100;0.028320;0.037109;1.021484;
210239;0.028320;0.037109;1.027344;
210379;0.026367;0.036133;1.027344;
210520;0.029297;0.037109;1.020508;
210660;0.027344;0.033203;1.022461;
210799;0.029297;0.038086;1.028320;
210949;0.031250;0.037109;1.019531;
211086;0.026367;0.035156;1.016602;
211235;0.027344;0.036133;1.028320;
211389;0.026367;0.040039;1.025391;
211526;0.025391;0.035156;1.013672;
211675;0.025391;0.037109;1.017578;
211825;0.032227;0.035156;1.018555;
211980;0.027344;0.036133;1.005859;
212119;0.027344;0.037109;1.006836;
212269;0.027344;0.040039;1.009766;
212409;0.025391;0.041992;1.015625;
212550;0.023438;0.038086;1.013672;
212699;0.028320;0.034180;1.013672;
212840;0.028320;0.037109;1.010742;
212979;0.026367;0.036133;1.014648;
213119;0.027344;0.035156;1.013672;
213260;0.027344;0.037109;1.003906;
213399;0.028320;0.036133;1.015625;
213539;0.030273;0.034180;1.012695;
213679;0.027344;0.037109;1.015625;
213820;0.025391;0.040039;1.021484;
213955;0.027344;0.031250;1.009766;
214105;0.029297;0.035156;1.012695;
214255;0.029297;0.036133;1.021484;
214405;0.029297;0.034180;1.020508;
214559;0.028320;0.038086;1.015625;
214709;0.024414;0.035156;1.011719;
214850;0.026367;0.037109;1.017578;
214989;0.030273;0.037109;1.016602;
215140;0.028320;0.037109;1.014648;
215280;0.028320;0.036133;1.012695;
215420;0.028320;0.037109;1.020508;
215560;0.026367;0.033203;1.016602;
215699;0.027344;0.032227;1.017578;
215839;0.030273;0.034180;1.022461;
215979;0.025391;0.033203;1.017578;
216119;0.027344;0.032227;1.024414;
216259;0.028320;0.036133;1.018555;
216400;0.029297;0.037109;1.025391;
216535;0.029297;0.036133;1.019531;
216685;0.030273;0.037109;1.017578;
216836;0.028320;0.042969;1.025391;
216985;0.029297;0.038086;1.026367;
217129;0.029297;0.037109;1.018555;
217269;0.027344;0.039062;1.019531;
217410;0.029297;0.037109;1.019531;
217549;0.026367;0.033203;1.019531;
217689;0.026367;0.037109;1.013672;
217839;0.027344;0.041016;1.024414;
217979;0.026367;0.038086;1.018555;
218119;0.030273;0.035156;1.018555;
218269;0.028320;0.034180;1.023438;
218409;0.029297;0.036133;1.024414;
218550;0.026367;0.035156;1.024414;
218699;0.027344;0.031250;1.017578;
218840;0.029297;0.032227;1.017578;
218979;0.029297;0.033203;1.015625;
219125;0.028320;0.036133;1.016602;
219276;0.027344;0.032227;1.026367;
219425;0.027344;0.037109;1.020508;
219589;0.028320;0.034180;1.020508;
219729;0.030273;0.036133;1.022461;
219869;0.028320;0.033203;1.013672;
220010;0.028320;0.038086;1.029297;
220149;0.027344;0.039062;1.023438;
220289;0.025391;0.034180;1.013672;
220429;0.028320;0.040039;1.018555;
220579;0.029297;0.039062;1.030273;
220719;0.024414;0.038086;1.021484;
220859;0.026367;0.041992;1.027344;
220999;0.028320;0.039062;1.023438;
221139;0.027344;0.036133;1.017578;
221279;0.029297;0.038086;1.012695;
221420;0.029297;0.035156;1.022461;
221555;0.027344;0.037109;1.020508;
221705;0.030273;0.035156;1.033203;
221855;0.026367;0.031250;1.022461;
222015;0.028320;0.033203;1.019531;
222180;0.030273;0.032227;1.028320;
222329;0.031250;0.031250;1.021484;
222470;0.027344;0.034180;1.022461;
222609;0.031250;0.036133;1.028320;
222749;0.030273;0.032227;1.029297;
222889;0.029297;0.032227;1.018555;
223029;0.033203;0.038086;1.032227;
223169;0.027344;0.036133;1.026367;
223309;0.026367;0.036133;1.023438;
223449;0.026367;0.037109;1.024414;
223599;0.029297;0.036133;1.017578;
223740;0.029297;0.034180;1.014648;
223879;0.028320;0.034180;1.016602;
224019;0.028320;0.033203;1.025391;
224155;0.027344;0.039062;1.025391;
224306;0.029297;0.040039;1.024414;
224455;0.028320;0.037109;1.021484;
224585;0.029297;0.037109;1.014648;
224739;0.030273;0.040039;1.029297;
224880;0.027344;0.037109;1.020508;
225029;0.028320;0.040039;1.019531;
225169;0.028320;0.038086;1.023438;
225310;0.029297;0.037109;1.016602;
225459;0.028320;0.034180;1.013672;
225599;0.029297;0.039062;1.027344;
225740;0.028320;0.034180;1.015625;
225879;0.026367;0.036133;1.009766;
226020;0.029297;0.039062;1.010742;
226169;0.029297;0.035156;1.011719;
226309;0.030273;0.036133;1.013672;
226449;0.029297;0.040039;1.021484;
226589;0.027344;0.035156;1.014648;
226725;0.029297;0.036133;1.012695;
226875;0.029297;0.035156;1.010742;
227005;0.031250;0.033203;1.020508;
227145;0.029297;0.041992;1.013672;
227295;0.027344;0.035156;1.018555;
227450;0.029297;0.037109;1.026367;
227589;0.031250;0.038086;1.021484;
227729;0.028320;0.035156;1.013672;
227869;0.031250;0.035156;1.023438;
228010;0.030273;0.040039;1.021484;
228149;0.029297;0.039062;1.025391;
228289;0.030273;0.035156;1.014648;
228429;0.030273;0.037109;1.019531;
228569;0.028320;0.037109;1.025391;
228709;0.029297;0.032227;1.015625;
228849;0.028320;0.034180;1.018555;
228989;0.032227;0.036133;1.029297;
229129;0.029297;0.031250;1.019531;
229279;0.030273;0.039062;1.016602;
229415;0.027344;0.039062;1.029297;
229559;0.029297;0.034180;1.028320;
229685;0.029297;0.036133;1.020508;
229835;0.032227;0.038086;1.027344;
229985;0.029297;0.036133;1.025391;
230135;0.027344;0.039062;1.021484;
230279;0.029297;0.039062;1.031250;
230419;0.029297;0.040039;1.018555;
230559;0.030273;0.041016;1.019531;
230699;0.028320;0.037109;1.018555;
230839;0.029297;0.035156;1.023438;
230989;0.031250;0.039062;1.027344;
231130;0.029297;0.033203;1.025391;
231269;0.031250;0.033203;1.013672;
231409;0.028320;0.037109;1.018555;
231549;0.028320;0.035156;1.015625;
231689;0.029297;0.038086;1.022461;
231829;0.030273;0.037109;1.022461;
231969;0.030273;0.037109;1.020508;
232109;0.033203;0.032227;1.027344;
232255;0.030273;0.037109;1.021484;
232405;0.030273;0.040039;1.029297;
232555;0.030273;0.035156;1.017578;
232719;0.030273;0.037109;1.028320;
232869;0.028320;0.039062;1.019531;
233009;0.029297;0.032227;1.012695;
233150;0.030273;0.035156;1.018555;
233289;0.026367;0.034180;1.017578;
233429;0.028320;0.034180;1.015625;
233569;0.028320;0.034180;1.027344;
233709;0.030273;0.033203;1.022461;
233849;0.031250;0.038086;1.020508;
233989;0.031250;0.036133;1.032227;
234129;0.028320;0.037109;1.016602;
234269;0.030273;0.038086;1.029297;
234410;0.030273;0.039062;1.021484;
234549;0.030273;0.038086;1.017578;
234690;0.028320;0.041016;1.027344;
234825;0.029297;0.040039;1.022461;
234975;0.029297;0.033203;1.016602;
235126;0.030273;0.039062;1.031250;
235279;0.032227;0.032227;1.033203;
235419;0.029297;0.037109;1.017578;
235559;0.029297;0.037109;1.019531;
235700;0.030273;0.040039;1.029297;
235840;0.027344;0.033203;1.018555;
235979;0.033203;0.040039;1.027344;
236120;0.032227;0.035156;1.026367;
236270;0.030273;0.034180;1.022461;
236409;0.030273;0.041992;1.037109;
236550;0.032227;0.039062;1.027344;
236690;0.031250;0.035156;1.018555;
236829;0.032227;0.039062;1.026367;
236969;0.031250;0.037109;1.019531;
237109;0.029297;0.037109;1.018555;
237249;0.031250;0.038086;1.027344;
237395;0.031250;0.037109;1.026367;
237546;0.029297;0.039062;1.020508;
237706;0.029297;0.034180;1.024414;
237860;0.031250;0.035156;1.017578;
237999;0.030273;0.038086;1.020508;
238139;0.030273;0.036133;1.028320;
238279;0.032227;0.034180;1.027344;
238419;0.034180;0.034180;1.027344;
238569;0.029297;0.031250;1.028320;
238709;0.031250;0.036133;1.027344;
238849;0.029297;0.040039;1.036133;
238989;0.031250;0.038086;1.033203;
239129;0.027344;0.036133;1.023438;
239270;0.033203;0.040039;1.031250;
239409;0.029297;0.035156;1.034180;
239549;0.030273;0.037109;1.031250;
239690;0.029297;0.038086;1.031250;
239826;0.028320;0.035156;1.025391;
239977;0.032227;0.037109;1.026367;
240125;0.030273;0.039062;1.028320;
240275;0.031250;0.036133;1.034180;
240429;0.030273;0.036133;1.038086;
240579;0.031250;0.035156;1.034180;
240719;0.030273;0.036133;1.025391;
240859;0.032227;0.034180;1.031250;
240999;0.031250;0.041016;1.028320;
241139;0.029297;0.036133;1.022461;
241280;0.030273;0.038086;1.033203;
241419;0.029297;0.038086;1.020508;
241560;0.029297;0.038086;1.025391;
241700;0.030273;0.038086;1.030273;
241840;0.032227;0.036133;1.024414;
241979;0.029297;0.035156;1.019531;
242119;0.030273;0.037109;1.026367;
242259;0.032227;0.036133;1.027344;
242395;0.030273;0.035156;1.013672;
242555;0.030273;0.037109;1.024414;
242707;0.029297;0.035156;1.026367;
242855;0.028320;0.061523;1.024414;
243009;0.029297;0.036133;1.036133;
243160;0.029297;0.037109;1.033203;
243300;0.031250;0.036133;1.028320;
243440;0.030273;0.033203;1.019531;
243580;0.031250;0.035156;1.020508;
243719;0.030273;0.034180;1.026367;
243869;0.029297;0.038086;1.027344;
244009;0.030273;0.036133;1.025391;
244149;0.030273;0.037109;1.024414;
244299;0.031250;0.036133;1.024414;
244439;0.032227;0.038086;1.032227;
244579;0.032227;0.038086;1.028320;
244729;0.027344;0.032227;1.023438;
244869;0.029297;0.036133;1.016602;
245015;0.028320;0.034180;1.007812;
245165;0.027344;0.037109;1.015625;
245317;0.026367;0.038086;1.012695;
245469;0.029297;0.035156;1.009766;
245609;0.029297;0.037109;1.012695;
245749;0.030273;0.036133;1.025391;
245889;0.035156;0.034180;1.027344;
246030;0.030273;0.036133;1.017578;
246170;0.029297;0.035156;1.021484;
246309;0.032227;0.036133;1.030273;
246449;0.031250;0.036133;1.016602;
246590;0.031250;0.033203;1.025391;
246730;0.031250;0.034180;1.025391;
246866;0.028320;0.036133;1.015625;
247009;0.029297;0.038086;1.023438;
247150;0.030273;0.039062;1.022461;
247289;0.030273;0.037109;1.010742;
247429;0.032227;0.039062;1.029297;
247576;0.030273;0.036133;1.028320;
247735;0.029297;0.041016;1.018555;
247895;0.027344;0.037109;1.008789;
248050;0.026367;0.041992;1.014648;
248189;0.027344;0.038086;1.010742;
248329;0.026367;0.037109;1.005859;
248470;0.028320;0.037109;1.015625;
248610;0.032227;0.041992;1.015625;
248749;0.029297;0.038086;1.018555;
248889;0.028320;0.037109;1.023438;
249029;0.034180;0.034180;1.030273;
249169;0.030273;0.031250;1.019531;
249309;0.030273;0.038086;1.027344;
249449;0.030273;0.039062;1.028320;
249590;0.030273;0.036133;1.027344;
249739;0.030273;0.037109;1.033203;
249879;0.032227;0.039062;1.023438;
250015;0.028320;0.037109;1.022461;
250166;0.029297;0.036133;1.019531;
250327;0.028320;0.037109;1.022461;
250475;0.028320;0.036133;1.014648;
250615;0.033203;0.038086;1.046875;
250769;0.037109;0.034180;1.040039;
250919;0.031250;0.036133;1.022461;
251059;0.030273;0.037109;1.031250;
251199;0.032227;0.036133;1.032227;
251339;0.031250;0.039062;1.033203;
251479;0.033203;0.039062;1.032227;
251620;0.034180;0.034180;1.027344;
251769;0.030273;0.035156;1.013672;
251909;0.031250;0.039062;1.028320;
252059;0.027344;0.038086;1.024414;
252201;0.029297;0.040039;1.016602;
252349;0.030273;0.036133;1.024414;
252490;0.031250;0.037109;1.031250;
252629;0.030273;0.039062;1.023438;
252765;0.030273;0.037109;1.036133;
252905;0.029297;0.032227;1.026367;
253049;0.031250;0.039062;1.026367;
253195;0.030273;0.036133;1.026367;
253345;0.029297;0.035156;1.021484;
253499;0.030273;0.037109;1.015625;
253639;0.027344;0.039062;1.011719;
253780;0.027344;0.040039;1.024414;
253930;0.029297;0.040039;1.014648;
254070;0.027344;0.034180;1.009766;
254209;0.028320;0.040039;1.010742;
254349;0.029297;0.039062;1.017578;
254489;0.025391;0.037109;1.010742;
254629;0.030273;0.037109;1.016602;
254769;0.029297;0.039062;1.023438;
254919;0.030273;0.036133;1.021484;
255059;0.032227;0.036133;1.028320;
255199;0.030273;0.036133;1.033203;
255349;0.028320;0.034180;1.020508;
255486;0.033203;0.033203;1.023438;
255629;0.030273;0.036133;1.021484;
255776;0.028320;0.037109;1.011719;
255927;0.028320;0.039062;1.031250;
256075;0.030273;0.042969;1.022461;
256226;0.028320;0.039062;1.023438;
256379;0.028320;0.038086;1.024414;
256519;0.031250;0.041016;1.017578;
256669;0.032227;0.036133;1.022461;
256809;0.028320;0.039062;1.022461;
256949;0.032227;0.041016;1.029297;
257099;0.029297;0.032227;1.023438;
257239;0.027344;0.036133;1.025391;
257380;0.030273;0.041016;1.029297;
257530;0.029297;0.037109;1.020508;
257669;0.028320;0.035156;1.018555;
257809;0.028320;0.034180;1.025391;
257949;0.031250;0.038086;1.018555;
258089;0.029297;0.033203;1.019531;
258229;0.028320;0.038086;1.021484;
258365;0.030273;0.037109;1.026367;
258515;0.027344;0.034180;1.020508;
258665;0.028320;0.037109;1.023438;
258825;0.029297;0.036133;1.027344;
258979;0.030273;0.039062;1.025391;
259120;0.033203;0.033203;1.028320;
259259;0.032227;0.034180;1.025391;
259399;0.026367;0.034180;1.016602;
259539;0.028320;0.036133;1.026367;
259679;0.029297;0.035156;1.021484;
259819;0.031250;0.038086;1.018555;
259959;0.030273;0.032227;1.015625;
260099;0.030273;0.038086;1.021484;
260240;0.028320;0.038086;1.012695;
260379;0.030273;0.037109;1.017578;
260519;0.031250;0.038086;1.020508;
260669;0.028320;0.038086;1.001953;
260810;0.030273;0.037109;1.025391;
260945;0.029297;0.035156;1.021484;
261095;0.030273;0.037109;1.015625;
261245;0.028320;0.039062;1.021484;
261396;0.030273;0.037109;1.018555;
261549;0.031250;0.033203;1.015625;
261689;0.028320;0.038086;1.009766;
261829;0.029297;0.039062;1.025391;
261969;0.028320;0.037109;1.014648;
262110;0.027344;0.038086;1.018555;
262249;0.032227;0.039062;1.026367;
262389;0.031250;0.034180;1.021484;
262529;0.028320;0.039062;1.015625;
262670;0.031250;0.038086;1.031250;
262820;0.030273;0.039062;1.024414;
262959;0.033203;0.036133;1.018555;
263099;0.030273;0.035156;1.018555;
263240;0.029297;0.041016;1.028320;
263379;0.029297;0.039062;1.026367;
263515;0.029297;0.037109;1.029297;
263665;0.029297;0.039062;1.030273;
263817;0.027344;0.041016;1.017578;
263955;0.030273;0.040039;1.025391;
264095;0.028320;0.038086;1.024414;
264240;0.030273;0.038086;1.016602;
264379;0.029297;0.036133;1.026367;
264520;0.029297;0.036133;1.020508;
264659;0.027344;0.033203;1.008789;
264799;0.031250;0.035156;1.030273;
264939;0.029297;0.036133;1.021484;
265080;0.029297;0.033203;1.013672;
265219;0.031250;0.034180;1.017578;
265369;0.031250;0.032227;1.021484;
265509;0.030273;0.035156;1.016602;
265650;0.027344;0.036133;1.025391;
265799;0.030273;0.039062;1.020508;
265939;0.030273;0.035156;1.012695;
266079;0.030273;0.036133;1.020508;
266215;0.029297;0.035156;1.022461;
266365;0.027344;0.041992;1.028320;
266515;0.027344;0.039062;1.041992;
266649;0.030273;0.037109;1.041016;
266785;0.031250;0.038086;1.034180;
266935;0.030273;0.035156;1.039062;
267099;0.030273;0.036133;1.035156;
267240;0.032227;0.040039;1.041992;
267379;0.030273;0.037109;1.039062;
267520;0.029297;0.037109;1.038086;
267660;0.028320;0.035156;1.029297;
267799;0.029297;0.037109;1.036133;
267939;0.030273;0.036133;1.032227;
268079;0.029297;0.038086;1.028320;
268220;0.028320;0.040039;1.024414;
268359;0.030273;0.040039;1.027344;
268509;0.031250;0.040039;1.017578;
268649;0.027344;0.041992;1.019531;
268790;0.027344;0.039062;1.016602;
268929;0.026367;0.035156;1.008789;
269065;0.027344;0.036133;1.018555;
269205;0.033203;0.036133;1.019531;
269345;0.027344;0.038086;1.014648;
269495;0.027344;0.041016;1.026367;
269646;0.028320;0.036133;1.018555;
269799;0.028320;0.039062;1.013672;
269939;0.028320;0.037109;1.021484;
270089;0.031250;0.035156;1.012695;
270229;0.030273;0.033203;1.010742;
270370;0.028320;0.032227;1.013672;
270509;0.028320;0.033203;1.016602;
270649;0.028320;0.041016;1.003906;
270789;0.026367;0.039062;1.013672;
270929;0.029297;0.041992;1.011719;
271069;0.025391;0.038086;1.015625;
271209;0.024414;0.039062;1.013672;
271349;0.030273;0.041016;1.020508;
271489;0.030273;0.046875;1.028320;
271629;0.028320;0.046875;1.025391;
271765;0.031250;0.049805;1.040039;
271915;0.024414;0.047852;1.028320;
272056;0.028320;0.044922;1.040039;
272187;0.032227;0.042969;1.038086;
272335;0.028320;0.041016;1.024414;
272489;0.028320;0.040039;1.025391;
272629;0.027344;0.041992;1.035156;
272769;0.026367;0.043945;1.028320;
272909;0.030273;0.037109;1.031250;
273049;0.029297;0.035156;1.014648;
273200;0.029297;0.037109;1.016602;
273339;0.029297;0.036133;1.027344;
273479;0.025391;0.036133;1.024414;
273630;0.025391;0.035156;1.011719;
273770;0.028320;0.031250;1.005859;
273910;0.028320;0.030273;1.009766;
274060;0.027344;0.034180;1.009766;
274199;0.028320;0.032227;1.018555;
274340;0.025391;0.035156;1.016602;
274475;0.031250;0.032227;1.010742;
274609;0.027344;0.031250;1.007812;
274746;0.028320;0.032227;1.007812;
274906;0.029297;0.033203;1.015625;
275055;0.023438;0.035156;1.008789;
275207;0.026367;0.037109;1.012695;
275359;0.028320;0.037109;1.016602;
275500;0.027344;0.039062;1.018555;
275639;0.026367;0.039062;1.016602;
275780;0.030273;0.041992;1.027344;
275919;0.024414;0.039062;1.010742;
276059;0.025391;0.040039;1.019531;
276199;0.029297;0.035156;1.019531;
276339;0.027344;0.033203;1.011719;
276479;0.027344;0.037109;1.027344;
276619;0.028320;0.035156;1.026367;
276759;0.027344;0.036133;1.029297;
276899;0.034180;0.038086;1.038086;
277049;0.030273;0.037109;1.033203;
277189;0.029297;0.043945;1.034180;
277326;0.029297;0.040039;1.036133;
277475;0.030273;0.040039;1.028320;
277625;0.029297;0.043945;1.024414;
277786;0.027344;0.042969;1.023438;
277949;0.027344;0.038086;1.014648;
278089;0.028320;0.041992;1.007812;
278229;0.026367;0.045898;1.005859;
278369;0.027344;0.042969;1.007812;
278509;0.027344;0.043945;0.997070;
278649;0.024414;0.039062;0.994141;
278789;0.026367;0.035156;0.991211;
278929;0.029297;0.034180;0.997070;
279079;0.026367;0.034180;0.993164;
279220;0.025391;0.031250;0.995117;
279359;0.027344;0.034180;0.995117;
279500;0.027344;0.030273;1.000977;
279639;0.028320;0.031250;1.011719;
279779;0.028320;0.032227;1.014648;
279915;0.027344;0.026367;1.011719;
280066;0.032227;0.029297;1.022461;
280215;0.030273;0.033203;1.030273;
280365;0.030273;0.035156;1.027344;
280519;0.030273;0.038086;1.035156;
280655;0.028320;0.036133;1.033203;
280810;0.026367;0.040039;1.024414;
280959;0.029297;0.041992;1.041016;
281099;0.031250;0.036133;1.031250;
281240;0.028320;0.043945;1.031250;
281379;0.028320;0.040039;1.029297;
281519;0.030273;0.040039;1.022461;
281669;0.027344;0.044922;1.021484;
281810;0.028320;0.040039;1.015625;
281949;0.029297;0.038086;1.021484;
282090;0.027344;0.041016;1.010742;
282229;0.032227;0.038086;1.015625;
282370;0.031250;0.037109;1.019531;
282509;0.028320;0.036133;1.014648;
282649;0.032227;0.034180;1.027344;
282786;0.031250;0.037109;1.013672;
282935;0.030273;0.035156;1.008789;
283085;0.029297;0.035156;1.020508;
283235;0.035156;0.035156;1.030273;
283389;0.033203;0.037109;1.035156;
283529;0.036133;0.033203;1.027344;
283670;0.037109;0.040039;1.032227;
283809;0.033203;0.035156;1.026367;
283949;0.032227;0.034180;1.029297;
284089;0.036133;0.038086;1.035156;
284229;0.034180;0.040039;1.020508;
284369;0.033203;0.040039;1.034180;
284509;0.034180;0.038086;1.029297;
284649;0.038086;0.042969;1.034180;
284789;0.036133;0.037109;1.029297;
284929;0.033203;0.036133;1.026367;
285070;0.032227;0.038086;1.021484;
285209;0.032227;0.038086;1.030273;
285345;0.032227;0.037109;1.022461;
285495;0.035156;0.042969;1.030273;
285645;0.034180;0.038086;1.028320;
285785;0.034180;0.039062;1.040039;
285915;0.036133;0.038086;1.028320;
286069;0.031250;0.041016;1.029297;
286209;0.036133;0.037109;1.033203;
286350;0.035156;0.035156;1.028320;
286489;0.034180;0.036133;1.027344;
286629;0.037109;0.036133;1.040039;
286769;0.035156;0.036133;1.026367;
286910;0.037109;0.038086;1.028320;
287050;0.037109;0.033203;1.031250;
287189;0.036133;0.035156;1.034180;
287330;0.038086;0.036133;1.029297;
287469;0.038086;0.033203;1.038086;
287609;0.037109;0.035156;1.028320;
287749;0.038086;0.037109;1.043945;
287889;0.036133;0.034180;1.028320;
288025;0.039062;0.040039;1.042969;
288175;0.037109;0.036133;1.027344;
288326;0.035156;0.037109;1.028320;
288475;0.038086;0.039062;1.023438;
288630;0.035156;0.037109;1.029297;
288769;0.038086;0.040039;1.038086;
288909;0.039062;0.039062;1.041016;
289049;0.037109;0.040039;1.024414;
289189;0.037109;0.041016;1.027344;
289339;0.036133;0.038086;1.027344;
289479;0.038086;0.038086;1.026367;
289620;0.036133;0.038086;1.027344;
289769;0.034180;0.037109;1.019531;
289909;0.037109;0.036133;1.029297;
290049;0.035156;0.038086;1.017578;
290199;0.037109;0.037109;1.019531;
290340;0.036133;0.039062;1.020508;
290480;0.038086;0.037109;1.015625;
290615;0.039062;0.039062;1.019531;
290766;0.034180;0.041016;1.012695;
290909;0.037109;0.038086;1.011719;
291049;0.037109;0.039062;1.014648;
291175;0.035156;0.035156;1.013672;
291316;0.036133;0.039062;1.016602;
291465;0.037109;0.037109;1.023438;
291620;0.036133;0.036133;1.009766;
291759;0.037109;0.040039;1.017578;
291900;0.037109;0.039062;1.016602;
292039;0.036133;0.038086;1.018555;
292179;0.035156;0.037109;1.022461;
292319;0.038086;0.037109;1.019531;
292459;0.035156;0.038086;1.019531;
292600;0.038086;0.041016;1.014648;
292740;0.033203;0.042969;1.021484;
292879;0.036133;0.041992;1.007812;
293030;0.035156;0.040039;1.011719;
293170;0.034180;0.044922;1.013672;
293310;0.037109;0.041016;1.012695;
293460;0.034180;0.039062;1.020508;
293595;0.035156;0.038086;1.009766;
293745;0.036133;0.037109;1.021484;
293895;0.035156;0.029297;1.002930;
294045;0.036133;0.032227;1.015625;
294199;0.033203;0.030273;1.013672;
294340;0.035156;0.035156;1.016602;
294479;0.035156;0.036133;1.025391;
294619;0.038086;0.036133;1.026367;
294769;0.038086;0.037109;1.023438;
294909;0.035156;0.040039;1.019531;
295049;0.038086;0.035156;1.024414;
295189;0.038086;0.037109;1.022461;
295329;0.038086;0.042969;1.025391;
295469;0.037109;0.043945;1.020508;
295619;0.033203;0.042969;1.032227;
295759;0.034180;0.046875;1.013672;
295899;0.037109;0.044922;1.020508;
296049;0.035156;0.047852;1.018555;
296185;0.034180;0.044922;1.006836;
296335;0.036133;0.042969;1.017578;
296485;0.034180;0.035156;1.008789;
296625;0.035156;0.041016;1.017578;
296779;0.037109;0.039062;1.016602;
296919;0.036133;0.038086;1.007812;
297059;0.035156;0.036133;1.005859;
297209;0.037109;0.040039;1.022461;
297349;0.034180;0.033203;1.019531;
297489;0.040039;0.035156;1.026367;
297639;0.034180;0.032227;1.015625;
297779;0.038086;0.031250;1.028320;
297919;0.036133;0.030273;1.023438;
298069;0.035156;0.034180;1.015625;
298209;0.036133;0.035156;1.031250;
298349;0.035156;0.040039;1.026367;
298490;0.033203;0.038086;1.020508;
298630;0.036133;0.041992;1.024414;
298765;0.035156;0.041016;1.033203;
298915;0.037109;0.040039;1.019531;
299065;0.034180;0.042969;1.024414;
299209;0.040039;0.036133;1.025391;
299339;0.033203;0.039062;1.018555;
299475;0.035156;0.043945;1.021484;
299625;0.036133;0.040039;1.015625;
299779;0.035156;0.039062;1.030273;
299919;0.034180;0.040039;1.019531;
300059;0.034180;0.038086;1.022461;
300200;0.035156;0.038086;1.016602;
300349;0.035156;0.037109;1.024414;
300489;0.037109;0.039062;1.031250;
300629;0.036133;0.036133;1.027344;
300769;0.037109;0.041992;1.033203;
300909;0.039062;0.037109;1.025391;
301049;0.037109;0.036133;1.028320;
301189;0.037109;0.039062;1.028320;
301339;0.038086;0.037109;1.031250;
301480;0.038086;0.035156;1.022461;
301620;0.034180;0.033203;1.026367;
301765;0.036133;0.032227;1.023438;
301915;0.038086;0.029297;1.030273;
302065;0.038086;0.031250;1.029297;
302205;0.036133;0.031250;1.018555;
302355;0.038086;0.034180;1.026367;
302509;0.034180;0.040039;1.024414;
302650;0.035156;0.037109;1.021484;
302789;0.034180;0.038086;1.024414;
302929;0.034180;0.041016;1.034180;
303069;0.036133;0.041016;1.021484;
303209;0.034180;0.040039;1.029297;
303349;0.036133;0.044922;1.029297;
303490;0.035156;0.042969;1.030273;
303629;0.037109;0.042969;1.027344;
303769;0.035156;0.044922;1.033203;
303909;0.036133;0.043945;1.030273;
304049;0.035156;0.043945;1.013672;
304190;0.035156;0.041992;1.026367;
304329;0.036133;0.043945;1.011719;
304465;0.035156;0.037109;1.020508;
304615;0.038086;0.038086;1.009766;
304756;0.033203;0.037109;1.011719;
304905;0.034180;0.037109;1.018555;
305055;0.037109;0.035156;1.023438;
305199;0.035156;0.039062;1.017578;
305339;0.034180;0.037109;1.013672;
305479;0.036133;0.040039;1.017578;
305620;0.035156;0.041016;1.018555;
305759;0.036133;0.039062;1.020508;
305909;0.035156;0.039062;1.013672;
306049;0.037109;0.033203;1.022461;
306189;0.032227;0.039062;1.023438;
306339;0.039062;0.036133;1.028320;
306479;0.036133;0.041016;1.033203;
306619;0.034180;0.038086;1.018555;
306759;0.036133;0.044922;1.021484;
306899;0.034180;0.041016;1.021484;
307039;0.034180;0.041016;1.023438;
307175;0.034180;0.042969;1.026367;
307327;0.036133;0.039062;1.020508;
307486;0.035156;0.039062;1.019531;
307635;0.035156;0.041016;1.026367;
307779;0.035156;0.040039;1.028320;
307919;0.034180;0.041016;1.016602;
308059;0.036133;0.042969;1.023438;
308199;0.031250;0.040039;1.016602;
308339;0.034180;0.042969;1.016602;
308479;0.036133;0.038086;1.020508;
308619;0.037109;0.038086;1.032227;
308759;0.036133;0.037109;1.025391;
308899;0.036133;0.036133;1.026367;
309039;0.037109;0.039062;1.032227;
309179;0.036133;0.033203;1.025391;
309329;0.038086;0.041016;1.035156;
309469;0.035156;0.033203;1.026367;
309610;0.034180;0.037109;1.026367;
309755;0.036133;0.031250;1.018555;
309905;0.035156;0.035156;1.029297;
310055;0.033203;0.035156;1.022461;
310217;0.038086;0.039062;1.031250;
310380;0.036133;0.038086;1.023438;
310519;0.033203;0.036133;1.026367;
310659;0.037109;0.039062;1.032227;
310799;0.037109;0.034180;1.025391;
310939;0.036133;0.032227;1.025391;
311079;0.036133;0.036133;1.025391;
311219;0.036133;0.032227;1.030273;
311359;0.035156;0.037109;1.029297;
311509;0.035156;0.037109;1.025391;
311650;0.037109;0.035156;1.024414;
311790;0.037109;0.039062;1.038086;
311939;0.039062;0.036133;1.026367;
312080;0.035156;0.039062;1.033203;
312219;0.037109;0.039062;1.034180;
312355;0.037109;0.037109;1.019531;
312505;0.035156;0.039062;1.026367;
312655;0.033203;0.038086;1.021484;
312786;0.035156;0.038086;1.031250;
312935;0.035156;0.038086;1.020508;
313079;0.035156;0.041016;1.021484;
313219;0.034180;0.040039;1.022461;
313360;0.034180;0.039062;1.016602;
313500;0.037109;0.041992;1.027344;
313640;0.036133;0.034180;1.020508;
313779;0.035156;0.034180;1.018555;
313919;0.033203;0.038086;1.017578;
314060;0.035156;0.037109;1.019531;
314209;0.038086;0.036133;1.026367;
314349;0.037109;0.037109;1.025391;
314490;0.037109;0.036133;1.025391;
314629;0.033203;0.036133;1.022461;
314770;0.035156;0.037109;1.026367;
314919;0.036133;0.036133;1.023438;
315056;0.037109;0.041016;1.028320;
315205;0.035156;0.040039;1.026367;
315355;0.033203;0.041016;1.023438;
315485;0.036133;0.041016;1.030273;
315635;0.035156;0.040039;1.023438;
315789;0.034180;0.040039;1.027344;
315929;0.035156;0.037109;1.025391;
316069;0.035156;0.037109;1.026367;
316210;0.036133;0.037109;1.023438;
316349;0.036133;0.039062;1.017578;
316489;0.036133;0.042969;1.029297;
316629;0.033203;0.038086;1.013672;
316769;0.037109;0.040039;1.025391;
316909;0.034180;0.040039;1.027344;
317049;0.039062;0.040039;1.018555;
317189;0.033203;0.040039;1.024414;
317329;0.034180;0.037109;1.018555;
317469;0.035156;0.039062;1.026367;
317609;0.032227;0.040039;1.022461;
317745;0.034180;0.036133;1.016602;
317895;0.035156;0.039062;1.027344;
318045;0.035156;0.039062;1.018555;
318205;0.034180;0.035156;1.019531;
318355;0.035156;0.036133;1.015625;
318500;0.037109;0.037109;1.040039;
318639;0.035156;0.036133;1.034180;
318779;0.039062;0.036133;1.032227;
318919;0.037109;0.040039;1.028320;
319059;0.036133;0.038086;1.030273;
319199;0.033203;0.039062;1.031250;
319349;0.033203;0.038086;1.027344;
319489;0.034180;0.035156;1.033203;
319629;0.035156;0.039062;1.016602;
319779;0.034180;0.040039;1.027344;
319919;0.033203;0.040039;1.025391;
320060;0.035156;0.037109;1.031250;
320210;0.034180;0.040039;1.019531;
320350;0.036133;0.036133;1.018555;
320495;0.034180;0.040039;1.023438;
320665;0.034180;0.038086;1.017578;
320815;0.035156;0.038086;1.025391;
320979;0.035156;0.035156;1.019531;
321120;0.037109;0.036133;1.022461;
321259;0.035156;0.035156;1.017578;
321409;0.035156;0.036133;1.027344;
321550;0.035156;0.039062;1.014648;
321689;0.033203;0.038086;1.020508;
321839;0.035156;0.036133;1.009766;
321979;0.033203;0.039062;1.016602;
322120;0.035156;0.039062;1.018555;
322259;0.033203;0.035156;1.015625;
322400;0.034180;0.040039;1.030273;
322540;0.035156;0.042969;1.022461;
322680;0.034180;0.040039;1.019531;
322819;0.034180;0.039062;1.017578;
322955;0.033203;0.042969;1.014648;
323115;0.035156;0.041992;1.017578;
323266;0.033203;0.040039;1.004883;
323415;0.034180;0.039062;1.011719;
323569;0.032227;0.041016;1.009766;
323719;0.033203;0.038086;1.014648;
323859;0.033203;0.038086;1.008789;
323999;0.034180;0.041016;1.028320;
324140;0.034180;0.037109;1.015625;
324280;0.038086;0.039062;1.033203;
324420;0.037109;0.039062;1.034180;
324560;0.035156;0.038086;1.036133;
324699;0.034180;0.041016;1.046875;
324839;0.035156;0.041016;1.040039;
324979;0.036133;0.043945;1.052734;
325119;0.036133;0.041016;1.032227;
325269;0.034180;0.043945;1.043945;
325409;0.036133;0.043945;1.040039;
325545;0.035156;0.040039;1.033203;
325685;0.034180;0.041992;1.030273;
325836;0.034180;0.041992;1.017578;
325985;0.029297;0.040039;1.025391;
326135;0.033203;0.039062;1.023438;
326279;0.028320;0.035156;1.017578;
326429;0.031250;0.037109;1.010742;
326569;0.031250;0.036133;1.032227;
326709;0.026367;0.041016;1.012695;
326859;0.031250;0.031250;1.005859;
326999;0.030273;0.037109;1.010742;
327140;0.023438;0.033203;1.018555;
327280;0.034180;0.033203;1.017578;
327420;0.031250;0.028320;1.017578;
327560;0.026367;0.031250;1.017578;
327699;0.029297;0.033203;1.015625;
327839;0.027344;0.037109;1.032227;
327979;0.031250;0.040039;1.019531;
328120;0.028320;0.044922;1.023438;
328256;0.026367;0.041992;1.022461;
328405;0.030273;0.040039;1.019531;
328555;0.026367;0.042969;1.023438;
328696;0.027344;0.040039;1.016602;
328850;0.030273;0.037109;1.007812;
328990;0.024414;0.038086;1.015625;
329129;0.023438;0.036133;1.004883;
329269;0.029297;0.040039;1.013672;
329409;0.026367;0.041016;1.015625;
329559;0.021484;0.036133;1.015625;
329699;0.031250;0.041992;1.022461;
329839;0.024414;0.030273;1.004883;
329990;0.021484;0.033203;0.999023;
330129;0.027344;0.036133;1.023438;
330269;0.020508;0.033203;1.012695;
330409;0.027344;0.034180;1.006836;
330549;0.029297;0.040039;1.017578;
330689;0.021484;0.029297;1.012695;
330825;0.029297;0.034180;1.015625;
330975;0.027344;0.031250;1.014648;
331125;0.026367;0.038086;1.018555;
331277;0.024414;0.034180;1.013672;
331425;0.028320;0.035156;1.030273;
331579;0.021484;0.036133;1.026367;
331719;0.027344;0.041992;1.012695;
331859;0.028320;0.039062;1.031250;
332009;0.024414;0.041992;1.028320;
332150;0.024414;0.041992;1.013672;
332289;0.026367;0.039062;1.025391;
332430;0.027344;0.037109;1.033203;
332570;0.024414;0.037109;1.023438;
332709;0.025391;0.041016;1.013672;
332850;0.024414;0.035156;1.005859;
332989;0.027344;0.035156;1.020508;
333139;0.024414;0.034180;1.027344;
333280;0.023438;0.037109;1.017578;
333419;0.025391;0.031250;1.004883;
333565;0.021484;0.035156;1.025391;
333717;0.023438;0.041016;1.015625;
333865;0.024414;0.035156;1.012695;
334015;0.025391;0.039062;1.024414;
334156;0.024414;0.039062;1.024414;
334299;0.023438;0.037109;1.022461;
334439;0.025391;0.032227;1.028320;
334580;0.027344;0.032227;1.019531;
334719;0.023438;0.032227;1.014648;
334859;0.022461;0.034180;1.025391;
334999;0.022461;0.034180;1.013672;
335139;0.023438;0.033203;1.013672;
335279;0.024414;0.037109;1.015625;
335419;0.026367;0.036133;1.023438;
335559;0.025391;0.041016;1.018555;
335700;0.021484;0.041016;1.024414;
335840;0.023438;0.042969;1.018555;
335979;0.024414;0.044922;1.024414;
336119;0.023438;0.038086;1.020508;
336259;0.025391;0.040039;1.019531;
336395;0.025391;0.045898;1.039062;
336545;0.021484;0.034180;1.017578;
336695;0.022461;0.040039;1.022461;
336839;0.025391;0.040039;1.033203;
336979;0.023438;0.032227;1.016602;
337115;0.026367;0.037109;1.024414;
337265;0.023438;0.035156;1.016602;
337420;0.022461;0.039062;1.016602;
337560;0.024414;0.037109;1.017578;
337700;0.024414;0.035156;1.019531;
337839;0.028320;0.038086;1.023438;
337979;0.023438;0.038086;1.021484;
338119;0.023438;0.040039;1.018555;
338260;0.022461;0.034180;1.023438;
338399;0.024414;0.036133;1.013672;
338539;0.023438;0.034180;1.017578;
338679;0.024414;0.034180;1.039062;
338820;0.027344;0.037109;1.031250;
338970;0.024414;0.041016;1.040039;
339110;0.022461;0.038086;1.037109;
339249;0.025391;0.035156;1.021484;
339385;0.026367;0.034180;1.030273;
339525;0.022461;0.037109;1.027344;
339675;0.025391;0.034180;1.028320;
339825;0.024414;0.037109;1.026367;
339975;0.024414;0.039062;1.034180;
340129;0.025391;0.038086;1.030273;
340269;0.025391;0.038086;1.023438;
340409;0.027344;0.036133;1.027344;
340559;0.024414;0.041016;1.036133;
340699;0.024414;0.038086;1.033203;
340840;0.025391;0.036133;1.030273;
340979;0.025391;0.040039;1.031250;
341119;0.022461;0.037109;1.030273;
341259;0.022461;0.036133;1.029297;
341400;0.023438;0.039062;1.041016;
341549;0.023438;0.038086;1.034180;
341690;0.022461;0.035156;1.027344;
341830;0.026367;0.038086;1.035156;
341969;0.022461;0.033203;1.027344;
342095;0.022461;0.032227;1.033203;
342245;0.024414;0.034180;1.029297;
342396;0.022461;0.035156;1.036133;
342546;0.024414;0.035156;1.031250;
342695;0.022461;0.037109;1.021484;
342839;0.025391;0.034180;1.017578;
342979;0.024414;0.036133;1.035156;
343119;0.025391;0.036133;1.034180;
343257;0.023438;0.033203;1.029297;
343389;0.023438;0.037109;1.032227;
343529;0.024414;0.035156;1.028320;
343669;0.025391;0.037109;1.017578;
343819;0.022461;0.040039;1.026367;
343969;0.023438;0.037109;1.030273;
344110;0.025391;0.038086;1.029297;
344249;0.023438;0.037109;1.015625;
344389;0.022461;0.037109;1.013672;
344539;0.024414;0.040039;1.017578;
344679;0.022461;0.036133;1.016602;
344815;0.023438;0.039062;1.030273;
344965;0.024414;0.039062;1.035156;
345116;0.023438;0.036133;1.022461;
345265;0.024414;0.042969;1.019531;
345415;0.020508;0.040039;1.017578;
345566;0.024414;0.036133;1.023438;
345705;0.025391;0.035156;1.026367;
345860;0.024414;0.034180;1.014648;
346000;0.021484;0.034180;1.026367;
346140;0.023438;0.035156;1.030273;
346275;0.023438;0.035156;1.019531;
346429;0.023438;0.032227;1.012695;
346569;0.022461;0.037109;1.020508;
346709;0.024414;0.039062;1.021484;
346849;0.024414;0.038086;1.017578;
346989;0.021484;0.041016;1.033203;
347129;0.026367;0.041992;1.029297;
347270;0.022461;0.041016;1.027344;
347409;0.024414;0.037109;1.025391;
347545;0.026367;0.040039;1.023438;
347696;0.025391;0.039062;1.023438;
347845;0.023438;0.040039;1.026367;
347975;0.026367;0.039062;1.024414;
348125;0.023438;0.034180;1.018555;
348275;0.024414;0.033203;1.022461;
348436;0.022461;0.035156;1.016602;
348590;0.025391;0.037109;1.022461;
348730;0.023438;0.028320;1.020508;
348869;0.025391;0.035156;1.024414;
349006;0.024414;0.034180;1.016602;
349160;0.024414;0.035156;1.022461;
349309;0.020508;0.032227;1.011719;
349449;0.023438;0.037109;1.012695;
349589;0.023438;0.032227;1.013672;
349730;0.025391;0.038086;1.031250;
349869;0.025391;0.036133;1.040039;
350009;0.025391;0.037109;1.049805;
350149;0.025391;0.037109;1.053711;
350285;0.027344;0.039062;1.041016;
350436;0.021484;0.034180;1.025391;
350586;0.026367;0.037109;1.023438;
350725;0.023438;0.038086;1.019531;
350875;0.023438;0.041992;1.009766;
351026;0.021484;0.041016;1.015625;
351175;0.021484;0.041016;1.013672;
351329;0.022461;0.037109;1.006836;
351470;0.024414;0.036133;1.012695;
351609;0.024414;0.034180;1.014648;
351745;0.023438;0.038086;1.020508;
351899;0.025391;0.035156;1.030273;
352039;0.022461;0.037109;1.018555;
352179;0.023438;0.036133;1.021484;
352319;0.025391;0.040039;1.026367;
352456;0.025391;0.039062;1.031250;
352609;0.024414;0.041016;1.023438;
352749;0.022461;0.039062;1.031250;
352889;0.025391;0.039062;1.036133;
353025;0.023438;0.038086;1.037109;
353175;0.024414;0.038086;1.030273;
353325;0.023438;0.039062;1.036133;
353485;0.022461;0.037109;1.026367;
353636;0.022461;0.037109;1.014648;
353775;0.024414;0.035156;1.012695;
353930;0.025391;0.038086;1.018555;
354069;0.020508;0.037109;1.013672;
354219;0.023438;0.037109;0.997070;
354359;0.024414;0.035156;1.003906;
354499;0.022461;0.035156;1.012695;
354640;0.026367;0.036133;1.021484;
354776;0.027344;0.035156;1.023438;
354929;0.022461;0.037109;1.017578;
355070;0.026367;0.034180;1.024414;
355210;0.021484;0.033203;1.008789;
355359;0.025391;0.034180;1.020508;
355495;0.020508;0.032227;1.023438;
355649;0.023438;0.038086;1.015625;
355789;0.023438;0.041016;1.020508;
355936;0.023438;0.038086;1.023438;
356085;0.025391;0.033203;1.021484;
356235;0.028320;0.039062;1.025391;
356385;0.026367;0.037109;1.025391;
356535;0.024414;0.041016;1.014648;
356665;0.025391;0.041016;1.014648;
356819;0.023438;0.036133;1.018555;
356955;0.023438;0.041016;1.024414;
357119;0.024414;0.039062;1.013672;
357260;0.024414;0.041016;1.012695;
357410;0.023438;0.035156;1.012695;
357549;0.023438;0.041992;1.012695;
357695;0.024414;0.034180;1.012695;
357829;0.024414;0.039062;1.002930;
357970;0.023438;0.034180;1.012695;
358109;0.025391;0.038086;1.019531;
358249;0.025391;0.031250;1.013672;
358389;0.024414;0.033203;1.014648;
358527;0.023438;0.038086;1.015625;
358679;0.024414;0.035156;1.018555;
358816;0.026367;0.032227;1.027344;
358965;0.027344;0.032227;1.034180;
359109;0.024414;0.037109;1.034180;
359245;0.024414;0.036133;1.034180;
359396;0.024414;0.037109;1.039062;
359545;0.026367;0.036133;1.021484;
359685;0.024414;0.034180;1.026367;
359829;0.024414;0.040039;1.035156;
359965;0.024414;0.036133;1.030273;
360120;0.026367;0.039062;1.024414;
360259;0.023438;0.041016;1.029297;
360409;0.023438;0.037109;1.031250;
360545;0.024414;0.037109;1.016602;
360699;0.024414;0.037109;1.015625;
360839;0.023438;0.040039;1.022461;
360979;0.025391;0.042969;1.023438;
361117;0.024414;0.037109;1.020508;
361279;0.023438;0.038086;1.025391;
361420;0.027344;0.041016;1.026367;
361559;0.024414;0.036133;1.013672;
361699;0.027344;0.041016;1.026367;
361835;0.026367;0.038086;1.028320;
361999;0.026367;0.036133;1.022461;
362140;0.025391;0.037109;1.035156;
362279;0.024414;0.039062;1.019531;
362419;0.025391;0.037109;1.018555;
362565;0.025391;0.033203;1.016602;
362716;0.023438;0.035156;1.028320;
362856;0.028320;0.034180;1.023438;
363005;0.025391;0.032227;1.017578;
363165;0.025391;0.034180;1.029297;
363315;0.024414;0.034180;1.031250;
363459;0.025391;0.035156;1.026367;
363599;0.026367;0.031250;1.022461;
363739;0.024414;0.035156;1.021484;
363880;0.023438;0.038086;1.027344;
364019;0.027344;0.036133;1.031250;
364159;0.026367;0.038086;1.032227;
364299;0.025391;0.041992;1.036133;
364440;0.027344;0.041016;1.027344;
364576;0.026367;0.040039;1.024414;
364729;0.021484;0.039062;1.023438;
364869;0.028320;0.039062;1.030273;
365019;0.028320;0.039062;1.029297;
365155;0.024414;0.042969;1.015625;
365305;0.027344;0.040039;1.021484;
365445;0.024414;0.040039;1.012695;
365595;0.025391;0.041992;1.019531;
365746;0.026367;0.036133;1.019531;
365905;0.027344;0.038086;1.025391;
366059;0.025391;0.038086;1.027344;
366199;0.025391;0.036133;1.016602;
366339;0.024414;0.034180;1.021484;
366489;0.026367;0.033203;1.026367;
366625;0.028320;0.036133;1.021484;
366779;0.027344;0.034180;1.022461;
366919;0.027344;0.035156;1.023438;
367059;0.027344;0.035156;1.021484;
367200;0.025391;0.033203;1.024414;
367336;0.027344;0.035156;1.018555;
367479;0.027344;0.036133;1.030273;
367619;0.029297;0.039062;1.027344;
367759;0.026367;0.037109;1.018555;
367901;0.029297;0.034180;1.028320;
368045;0.026367;0.039062;1.026367;
368195;0.028320;0.034180;1.026367;
368345;0.029297;0.036133;1.023438;
368495;0.026367;0.037109;1.027344;
368645;0.027344;0.037109;1.034180;
368795;0.030273;0.038086;1.029297;
368950;0.031250;0.041016;1.029297;
369089;0.028320;0.040039;1.024414;
369229;0.028320;0.040039;1.021484;
369365;0.028320;0.039062;1.030273;
369519;0.028320;0.039062;1.033203;
369659;0.028320;0.039062;1.022461;
369799;0.025391;0.039062;1.023438;
369941;0.030273;0.038086;1.024414;
370100;0.030273;0.039062;1.024414;
370240;0.029297;0.040039;1.022461;
370379;0.028320;0.033203;1.017578;
370519;0.029297;0.038086;1.031250;
370655;0.031250;0.038086;1.025391;
370809;0.028320;0.038086;1.021484;
370945;0.030273;0.037109;1.022461;
371105;0.030273;0.036133;1.016602;
371255;0.030273;0.037109;1.027344;
371405;0.030273;0.039062;1.018555;
371555;0.031250;0.036133;1.026367;
371705;0.030273;0.038086;1.029297;
371839;0.032227;0.038086;1.025391;
371979;0.029297;0.036133;1.029297;
372129;0.030273;0.037109;1.030273;
372265;0.028320;0.033203;1.033203;
372419;0.034180;0.038086;1.030273;
372559;0.031250;0.035156;1.033203;
372699;0.031250;0.036133;1.035156;
372840;0.032227;0.037109;1.020508;
372975;0.029297;0.038086;1.032227;
373105;0.029297;0.037109;1.031250;
373249;0.030273;0.040039;1.033203;
373390;0.031250;0.036133;1.022461;
373529;0.032227;0.041016;1.032227;
373665;0.029297;0.037109;1.024414;
373816;0.030273;0.038086;1.022461;
373965;0.029297;0.041016;1.014648;
374115;0.033203;0.036133;1.025391;
374266;0.029297;0.035156;1.020508;
374405;0.030273;0.038086;1.016602;
374555;0.030273;0.041016;1.014648;
374709;0.030273;0.040039;1.012695;
374860;0.028320;0.041992;1.017578;
374995;0.031250;0.036133;1.014648;
375149;0.030273;0.036133;1.018555;
375289;0.029297;0.037109;1.019531;
375429;0.032227;0.038086;1.021484;
375569;0.032227;0.040039;1.029297;
375705;0.031250;0.038086;1.022461;
375855;0.032227;0.034180;1.025391;
375989;0.031250;0.035156;1.019531;
376130;0.030273;0.033203;1.015625;
376269;0.034180;0.037109;1.012695;
376411;0.031250;0.037109;1.019531;
376559;0.030273;0.035156;1.015625;
376695;0.028320;0.036133;1.016602;
376855;0.031250;0.037109;1.007812;
376985;0.031250;0.033203;1.019531;
377125;0.028320;0.037109;1.012695;
377265;0.029297;0.036133;1.008789;
377415;0.029297;0.035156;1.011719;
377565;0.028320;0.037109;1.018555;
377709;0.031250;0.033203;1.010742;
377849;0.029297;0.039062;1.013672;
377986;0.032227;0.036133;1.026367;
378139;0.029297;0.037109;1.014648;
378279;0.028320;0.039062;1.027344;
378419;0.031250;0.040039;1.016602;
378555;0.030273;0.037109;1.018555;
378696;0.032227;0.039062;1.022461;
378849;0.030273;0.038086;1.020508;
378989;0.029297;0.041016;1.019531;
379129;0.029297;0.039062;1.015625;
379269;0.030273;0.038086;1.022461;
379419;0.030273;0.040039;1.014648;
379559;0.029297;0.036133;1.012695;
379705;0.029297;0.036133;1.017578;
379846;0.030273;0.042969;1.013672;
379986;0.029297;0.036133;1.009766;
380135;0.032227;0.037109;1.019531;
380285;0.030273;0.036133;1.019531;
380436;0.031250;0.038086;1.018555;
380586;0.031250;0.037109;1.024414;
380739;0.032227;0.039062;1.023438;
380891;0.031250;0.038086;1.027344;
381049;0.029297;0.037109;1.025391;
381199;0.031250;0.036133;1.026367;
381339;0.030273;0.037109;1.028320;
381479;0.032227;0.035156;1.024414;
381615;0.029297;0.037109;1.020508;
381769;0.031250;0.037109;1.022461;
381909;0.032227;0.039062;1.027344;
382059;0.031250;0.035156;1.019531;
382195;0.028320;0.038086;1.021484;
382349;0.031250;0.040039;1.026367;
382489;0.030273;0.040039;1.025391;
382630;0.031250;0.036133;1.024414;
382765;0.030273;0.038086;1.029297;
382905;0.033203;0.036133;1.030273;
383056;0.031250;0.037109;1.033203;
383206;0.032227;0.036133;1.037109;
383355;0.032227;0.036133;1.036133;
383505;0.031250;0.037109;1.031250;
383660;0.030273;0.039062;1.024414;
383799;0.031250;0.038086;1.026367;
383939;0.031250;0.039062;1.024414;
384085;0.030273;0.041016;1.026367;
384239;0.031250;0.040039;1.025391;
384389;0.031250;0.038086;1.020508;
384529;0.030273;0.035156;1.023438;
384669;0.033203;0.036133;1.025391;
384819;0.029297;0.038086;1.024414;
384959;0.033203;0.036133;1.022461;
385099;0.030273;0.038086;1.027344;
385249;0.028320;0.036133;1.021484;
385385;0.031250;0.040039;1.017578;
385535;0.029297;0.038086;1.019531;
385675;0.029297;0.035156;1.023438;
385826;0.030273;0.036133;1.028320;
385975;0.030273;0.036133;1.017578;
386125;0.031250;0.037109;1.025391;
386280;0.031250;0.039062;1.027344;
386419;0.029297;0.037109;1.027344;
386559;0.028320;0.038086;1.029297;
386695;0.030273;0.037109;1.023438;
386849;0.031250;0.038086;1.017578;
386989;0.033203;0.037109;1.018555;
387129;0.029297;0.039062;1.023438;
387265;0.030273;0.041992;1.025391;
387420;0.030273;0.038086;1.027344;
387560;0.029297;0.038086;1.020508;
387700;0.028320;0.040039;1.030273;
387841;0.031250;0.038086;1.015625;
387999;0.030273;0.040039;1.016602;
388135;0.031250;0.038086;1.015625;
388285;0.027344;0.040039;1.023438;
388436;0.031250;0.039062;1.022461;
388587;0.031250;0.040039;1.026367;
388735;0.028320;0.038086;1.021484;
388870;0.032227;0.036133;1.019531;
389009;0.030273;0.038086;1.020508;
389149;0.031250;0.038086;1.010742;
389285;0.030273;0.037109;1.027344;
389439;0.030273;0.037109;1.025391;
389579;0.030273;0.037109;1.026367;
389729;0.030273;0.038086;1.018555;
389870;0.029297;0.035156;1.020508;
390019;0.030273;0.034180;1.022461;
390149;0.030273;0.039062;1.028320;
390286;0.031250;0.041016;1.032227;
390439;0.029297;0.039062;1.026367;
390580;0.032227;0.035156;1.022461;
390720;0.031250;0.038086;1.022461;
390855;0.027344;0.037109;1.021484;
391005;0.029297;0.039062;1.022461;
391165;0.032227;0.036133;1.030273;
391316;0.029297;0.036133;1.024414;
391466;0.028320;0.043945;1.033203;
391615;0.029297;0.038086;1.029297;
391769;0.030273;0.035156;1.024414;
391920;0.031250;0.038086;1.033203;
392059;0.031250;0.036133;1.023438;
392199;0.030273;0.037109;1.021484;
392335;0.029297;0.037109;1.022461;
392479;0.031250;0.035156;1.020508;
392619;0.026367;0.038086;1.032227;
392759;0.031250;0.040039;1.028320;
392901;0.029297;0.034180;1.028320;
393050;0.031250;0.036133;1.020508;
393190;0.026367;0.036133;1.027344;
393329;0.030273;0.039062;1.022461;
393469;0.030273;0.033203;1.028320;
393609;0.030273;0.037109;1.020508;
393745;0.030273;0.037109;1.024414;
393895;0.030273;0.037109;1.012695;
394045;0.028320;0.033203;1.025391;
394195;0.029297;0.038086;1.021484;
394345;0.029297;0.035156;1.021484;
394475;0.030273;0.038086;1.024414;
394615;0.028320;0.038086;1.020508;
394769;0.029297;0.038086;1.026367;
394910;0.029297;0.038086;1.021484;
395060;0.031250;0.038086;1.020508;
395196;0.027344;0.033203;1.019531;
395349;0.030273;0.037109;1.020508;
395489;0.027344;0.039062;1.027344;
395629;0.029297;0.041016;1.022461;
395766;0.029297;0.035156;1.029297;
395909;0.029297;0.039062;1.026367;
396049;0.028320;0.038086;1.017578;
396189;0.030273;0.041992;1.030273;
396335;0.029297;0.037109;1.021484;
396485;0.030273;0.041016;1.027344;
396615;0.028320;0.038086;1.019531;
396765;0.028320;0.036133;1.021484;
396916;0.026367;0.037109;1.021484;
397059;0.028320;0.036133;1.017578;
397195;0.030273;0.035156;1.013672;
397345;0.027344;0.034180;1.017578;
397495;0.027344;0.035156;1.025391;
397649;0.028320;0.038086;1.020508;
397789;0.028320;0.037109;1.027344;
397929;0.029297;0.034180;1.024414;
398069;0.029297;0.035156;1.025391;
398215;0.028320;0.039062;1.017578;
398369;0.026367;0.039062;1.020508;
398509;0.026367;0.039062;1.025391;
398650;0.027344;0.042969;1.017578;
398789;0.029297;0.040039;1.028320;
398935;0.027344;0.038086;1.026367;
399089;0.027344;0.041016;1.018555;
399229;0.027344;0.041992;1.022461;
399369;0.028320;0.040039;1.029297;
399505;0.026367;0.042969;1.028320;
399655;0.028320;0.040039;1.023438;
399805;0.028320;0.040039;1.016602;
399965;0.027344;0.039062;1.023438;
400096;0.027344;0.038086;1.019531;
400245;0.025391;0.035156;1.024414;
400395;0.028320;0.036133;1.026367;
400550;0.029297;0.036133;1.024414;
400689;0.029297;0.039062;1.034180;
400829;0.028320;0.037109;1.041016;
400969;0.028320;0.030273;1.026367;
401105;0.027344;0.037109;1.035156;
401249;0.027344;0.039062;1.032227;
401389;0.027344;0.037109;1.039062;
401539;0.028320;0.034180;1.029297;
401675;0.029297;0.035156;1.027344;
401825;0.028320;0.037109;1.037109;
401979;0.029297;0.041016;1.032227;
402129;0.028320;0.037109;1.022461;
402269;0.027344;0.037109;1.029297;
402406;0.027344;0.037109;1.029297;
402545;0.026367;0.037109;1.025391;
402686;0.027344;0.034180;1.031250;
402825;0.026367;0.037109;1.020508;
402965;0.024414;0.035156;1.028320;
403115;0.025391;0.038086;1.024414;
403265;0.026367;0.038086;1.019531;
403419;0.026367;0.037109;1.019531;
403560;0.025391;0.038086;1.018555;
403699;0.026367;0.036133;1.022461;
403835;0.024414;0.036133;1.018555;
403989;0.025391;0.038086;1.006836;
404130;0.022461;0.037109;1.006836;
404279;0.026367;0.039062;1.011719;
404421;0.024414;0.037109;1.020508;
404565;0.025391;0.039062;1.013672;
404709;0.024414;0.038086;1.016602;
404849;0.025391;0.037109;1.013672;
404989;0.025391;0.036133;1.017578;
405125;0.024414;0.035156;1.020508;
405275;0.024414;0.037109;1.018555;
405425;0.026367;0.035156;1.018555;
405556;0.026367;0.035156;1.015625;
405705;0.028320;0.037109;1.021484;
405855;0.025391;0.035156;1.025391;
406005;0.023438;0.035156;1.025391;
406159;0.027344;0.037109;1.021484;
406299;0.025391;0.033203;1.018555;
406440;0.025391;0.033203;1.022461;
406579;0.024414;0.036133;1.017578;
406715;0.024414;0.035156;1.025391;
406860;0.026367;0.036133;1.015625;
407000;0.023438;0.035156;1.009766;
407140;0.025391;0.036133;1.025391;
407279;0.025391;0.040039;1.019531;
407425;0.024414;0.036133;1.007812;
407579;0.026367;0.036133;1.018555;
407719;0.028320;0.035156;1.017578;
407860;0.025391;0.038086;1.016602;
408005;0.027344;0.038086;1.020508;
408155;0.025391;0.033203;1.014648;
408306;0.028320;0.037109;1.017578;
408455;0.027344;0.036133;1.025391;
408605;0.026367;0.035156;1.029297;
408755;0.024414;0.038086;1.021484;
408909;0.025391;0.037109;1.030273;
409059;0.025391;0.036133;1.030273;
409199;0.028320;0.036133;1.023438;
409341;0.028320;0.037109;1.033203;
409499;0.027344;0.035156;1.037109;
409649;0.027344;0.037109;1.033203;
409789;0.028320;0.038086;1.030273;
409929;0.026367;0.035156;1.023438;
410070;0.025391;0.037109;1.016602;
410209;0.026367;0.036133;1.024414;
410349;0.026367;0.038086;1.027344;
410489;0.026367;0.038086;1.020508;
410626;0.026367;0.038086;1.023438;
410765;0.025391;0.037109;1.024414;
410917;0.027344;0.038086;1.026367;
411066;0.025391;0.037109;1.021484;
411215;0.026367;0.040039;1.030273;
411365;0.026367;0.041992;1.022461;
411510;0.026367;0.038086;1.027344;
411649;0.025391;0.042969;1.027344;
411789;0.026367;0.034180;1.021484;
411925;0.028320;0.039062;1.024414;
412079;0.027344;0.039062;1.028320;
412229;0.025391;0.036133;1.016602;
412369;0.027344;0.037109;1.028320;
412506;0.026367;0.037109;1.015625;
412655;0.027344;0.036133;1.022461;
412799;0.026367;0.037109;1.019531;
412949;0.026367;0.040039;1.020508;
413089;0.025391;0.039062;1.025391;
413231;0.028320;0.034180;1.025391;
413385;0.027344;0.035156;1.022461;
413535;0.027344;0.034180;1.027344;
413686;0.026367;0.035156;1.028320;
413825;0.028320;0.038086;1.029297;
413967;0.025391;0.035156;1.026367;
414116;0.027344;0.039062;1.022461;
414265;0.023438;0.039062;1.020508;
414419;0.027344;0.033203;1.023438;
414569;0.025391;0.034180;1.023438;
414706;0.027344;0.037109;1.027344;
414869;0.025391;0.035156;1.027344;
415009;0.027344;0.034180;1.022461;
415149;0.026367;0.037109;1.028320;
415289;0.027344;0.040039;1.033203;
415425;0.026367;0.035156;1.033203;
415580;0.025391;0.037109;1.024414;
415730;0.027344;0.037109;1.018555;
415869;0.027344;0.033203;1.026367;
416005;0.023438;0.035156;1.026367;
416159;0.026367;0.037109;1.026367;
416305;0.025391;0.036133;1.022461;
416455;0.027344;0.041992;1.017578;
416605;0.027344;0.036133;1.017578;
416755;0.026367;0.039062;1.027344;
416905;0.025391;0.040039;1.014648;
417056;0.026367;0.038086;1.019531;
417199;0.025391;0.039062;1.019531;
417349;0.025391;0.037109;1.011719;
417485;0.025391;0.036133;1.025391;
417649;0.028320;0.035156;1.026367;
417790;0.025391;0.038086;1.020508;
417929;0.028320;0.034180;1.018555;
418065;0.027344;0.038086;1.022461;
418219;0.026367;0.035156;1.021484;
418359;0.028320;0.041016;1.026367;
418499;0.026367;0.035156;1.025391;
418640;0.025391;0.033203;1.016602;
418765;0.026367;0.038086;1.029297;
418919;0.024414;0.035156;1.024414;
419059;0.028320;0.035156;1.026367;
419199;0.023438;0.031250;1.015625;
419335;0.027344;0.038086;1.016602;
419485;0.027344;0.038086;1.022461;
419635;0.028320;0.037109;1.023438;
419787;0.025391;0.038086;1.026367;
419945;0.027344;0.033203;1.020508;
420096;0.028320;0.036133;1.024414;
420249;0.028320;0.037109;1.028320;
420389;0.028320;0.036133;1.021484;
420529;0.027344;0.036133;1.033203;
420665;0.027344;0.040039;1.033203;
420819;0.027344;0.037109;1.036133;
420959;0.027344;0.040039;1.041992;
421099;0.026367;0.041016;1.033203;
421239;0.028320;0.039062;1.039062;
421385;0.028320;0.039062;1.041016;
421529;0.029297;0.039062;1.034180;
421669;0.029297;0.038086;1.038086;
421809;0.030273;0.041016;1.042969;
421945;0.027344;0.042969;1.043945;
422099;0.028320;0.040039;1.036133;
422235;0.030273;0.036133;1.023438;
422386;0.027344;0.042969;1.036133;
422535;0.031250;0.040039;1.040039;
422685;0.028320;0.037109;1.028320;
422835;0.028320;0.039062;1.029297;
422985;0.029297;0.036133;1.032227;
423130;0.030273;0.036133;1.027344;
423269;0.031250;0.040039;1.030273;
423409;0.030273;0.037109;1.024414;
423559;0.030273;0.037109;1.028320;
423699;0.028320;0.036133;1.028320;
423839;0.032227;0.034180;1.037109;
423979;0.030273;0.036133;1.031250;
424116;0.031250;0.032227;1.029297;
424259;0.032227;0.033203;1.032227;
424399;0.030273;0.033203;1.026367;
424539;0.027344;0.029297;1.036133;
424679;0.030273;0.029297;1.029297;
424815;0.028320;0.028320;1.031250;
424960;0.032227;0.032227;1.028320;
425106;0.029297;0.028320;1.039062;
425255;0.032227;0.031250;1.041016;
425415;0.030273;0.028320;1.034180;
425565;0.030273;0.034180;1.039062;
425715;0.032227;0.033203;1.036133;
425865;0.030273;0.029297;1.040039;
426015;0.029297;0.030273;1.036133;
426169;0.033203;0.028320;1.037109;
426309;0.033203;0.026367;1.043945;
426461;0.035156;0.032227;1.051758;
426619;0.033203;0.029297;1.050781;
426759;0.035156;0.030273;1.050781;
426899;0.032227;0.031250;1.057617;
427039;0.035156;0.028320;1.048828;
427175;0.032227;0.031250;1.056641;
427305;0.032227;0.031250;1.049805;
427460;0.034180;0.027344;1.065430;
427599;0.035156;0.026367;1.057617;
427739;0.035156;0.029297;1.061523;
427875;0.035156;0.030273;1.061523;
428029;0.034180;0.025391;1.071289;
428175;0.035156;0.025391;1.068359;
428325;0.036133;0.024414;1.079102;
428475;0.038086;0.023438;1.075195;
428625;0.038086;0.026367;1.080078;
428785;0.039062;0.025391;1.084961;
428929;0.037109;0.025391;1.085938;
429070;0.036133;0.029297;1.090820;
429209;0.038086;0.023438;1.087891;
429349;0.037109;0.024414;1.087891;
429490;0.037109;0.024414;1.092773;
429640;0.038086;0.024414;1.088867;
429779;0.040039;0.022461;1.097656;
429929;0.038086;0.022461;1.093750;
430066;0.040039;0.022461;1.105469;
430210;0.041016;0.020508;1.092773;
430349;0.041016;0.023438;1.103516;
430489;0.039062;0.018555;1.095703;
430625;0.041016;0.022461;1.107422;
430779;0.041992;0.019531;1.098633;
430915;0.039062;0.020508;1.106445;
431066;0.041992;0.020508;1.112305;
431215;0.041016;0.020508;1.116211;
431375;0.042969;0.025391;1.125000;
431525;0.040039;0.024414;1.125000;
431665;0.042969;0.022461;1.122070;
431809;0.042969;0.026367;1.130859;
431959;0.044922;0.026367;1.121094;
432095;0.043945;0.024414;1.135742;
432239;0.043945;0.025391;1.134766;
432379;0.043945;0.025391;1.125000;
432519;0.041992;0.030273;1.132812;
432661;0.044922;0.026367;1.127930;
432819;0.044922;0.028320;1.140625;
432959;0.045898;0.028320;1.129883;
433099;0.045898;0.027344;1.133789;
433240;0.045898;0.029297;1.131836;
433375;0.042969;0.025391;1.127930;
433530;0.044922;0.028320;1.131836;
433679;0.044922;0.029297;1.125000;
433825;0.043945;0.027344;1.132812;
433985;0.044922;0.031250;1.121094;
434135;0.045898;0.031250;1.133789;
434285;0.045898;0.030273;1.125000;
434435;0.046875;0.030273;1.129883;
434579;0.045898;0.029297;1.124023;
434719;0.045898;0.030273;1.119141;
434859;0.048828;0.032227;1.130859;
434999;0.045898;0.029297;1.112305;
435136;0.047852;0.031250;1.120117;
435280;0.046875;0.030273;1.111328;
435419;0.047852;0.029297;1.112305;
435569;0.044922;0.029297;1.105469;
435705;0.044922;0.028320;1.107422;
435839;0.046875;0.031250;1.102539;
435980;0.043945;0.029297;1.110352;
436119;0.045898;0.030273;1.098633;
436269;0.046875;0.033203;1.104492;
436405;0.043945;0.030273;1.107422;
436555;0.044922;0.031250;1.100586;
436705;0.043945;0.027344;1.106445;
436866;0.046875;0.028320;1.102539;
437016;0.046875;0.030273;1.102539;
437165;0.046875;0.029297;1.102539;
437310;0.046875;0.031250;1.100586;
437449;0.042969;0.029297;1.100586;
437589;0.044922;0.033203;1.111328;
437729;0.047852;0.031250;1.101562;
437869;0.047852;0.029297;1.106445;
438009;0.045898;0.031250;1.106445;
438150;0.044922;0.031250;1.095703;
438299;0.043945;0.030273;1.095703;
438446;0.042969;0.033203;1.090820;
438599;0.041992;0.034180;1.089844;
438739;0.043945;0.035156;1.086914;
438879;0.041992;0.029297;1.076172;
439015;0.041016;0.029297;1.074219;
439165;0.041992;0.032227;1.074219;
439316;0.042969;0.029297;1.065430;
439475;0.043945;0.028320;1.066406;
439625;0.042969;0.026367;1.066406;
439775;0.041992;0.031250;1.067383;
439929;0.040039;0.031250;1.074219;
440069;0.043945;0.032227;1.076172;
440219;0.041992;0.033203;1.072266;
440355;0.043945;0.037109;1.073242;
440499;0.042969;0.032227;1.069336;
440639;0.041992;0.034180;1.068359;
440779;0.043945;0.033203;1.067383;
440920;0.041992;0.036133;1.061523;
441055;0.041016;0.039062;1.062500;
441200;0.042969;0.039062;1.061523;
441340;0.039062;0.039062;1.052734;
441479;0.041016;0.035156;1.053711;
441615;0.040039;0.038086;1.050781;
441769;0.039062;0.041016;1.042969;
441915;0.039062;0.040039;1.042969;
442065;0.040039;0.038086;1.038086;
442225;0.038086;0.041992;1.040039;
442376;0.040039;0.043945;1.040039;
442515;0.037109;0.043945;1.035156;
442655;0.037109;0.042969;1.031250;
442809;0.037109;0.040039;1.039062;
442949;0.038086;0.043945;1.026367;
443089;0.037109;0.041016;1.035156;
443239;0.037109;0.045898;1.025391;
443385;0.036133;0.043945;1.029297;
443539;0.039062;0.041016;1.024414;
443680;0.037109;0.041992;1.019531;
443820;0.034180;0.043945;1.020508;
443959;0.034180;0.046875;1.014648;
444095;0.031250;0.042969;1.011719;
444249;0.032227;0.040039;1.014648;
444389;0.031250;0.041992;1.010742;
444535;0.029297;0.044922;1.017578;
444685;0.030273;0.046875;1.011719;
444835;0.032227;0.043945;1.011719;
444985;0.028320;0.043945;1.012695;
445135;0.029297;0.045898;1.007812;
445285;0.028320;0.041992;1.009766;
445439;0.029297;0.042969;1.011719;
445579;0.029297;0.041992;1.000000;
445719;0.030273;0.041992;1.006836;
445855;0.028320;0.042969;1.000977;
445999;0.027344;0.046875;1.006836;
446149;0.028320;0.040039;1.000977;
446290;0.027344;0.039062;1.009766;
446425;0.030273;0.040039;0.998047;
446569;0.029297;0.036133;1.002930;
446710;0.028320;0.041016;1.010742;
446860;0.031250;0.041016;1.011719;
447006;0.029297;0.038086;1.012695;
447159;0.029297;0.041992;1.023438;
447301;0.029297;0.040039;1.017578;
447455;0.028320;0.042969;1.017578;
447595;0.030273;0.040039;1.020508;
447745;0.029297;0.038086;1.011719;
447895;0.027344;0.038086;1.017578;
448047;0.028320;0.041016;1.018555;
448199;0.027344;0.041992;1.013672;
448335;0.026367;0.040039;1.010742;
448476;0.029297;0.041016;1.012695;
448619;0.028320;0.042969;1.021484;
448760;0.027344;0.044922;1.013672;
448900;0.028320;0.039062;1.007812;
449035;0.027344;0.040039;1.012695;
449189;0.024414;0.041016;1.014648;
449329;0.027344;0.041016;1.008789;
449470;0.026367;0.040039;1.018555;
449610;0.027344;0.041992;1.016602;
449745;0.026367;0.040039;1.015625;
449899;0.025391;0.041016;1.011719;
450039;0.028320;0.042969;1.009766;
450186;0.025391;0.041992;1.017578;
450335;0.025391;0.038086;1.009766;
450485;0.027344;0.038086;1.008789;
450635;0.027344;0.041016;1.009766;
450785;0.027344;0.041016;1.015625;
450930;0.026367;0.041016;1.014648;
451066;0.024414;0.040039;1.018555;
451229;0.026367;0.041016;1.011719;
451369;0.026367;0.041992;1.022461;
451509;0.026367;0.039062;1.024414;
451649;0.026367;0.036133;1.012695;
451786;0.028320;0.039062;1.020508;
451949;0.027344;0.041016;1.019531;
452089;0.027344;0.040039;1.024414;
452229;0.026367;0.037109;1.025391;
452369;0.030273;0.040039;1.026367;
452519;0.025391;0.041992;1.023438;
452660;0.027344;0.039062;1.021484;
452799;0.025391;0.041016;1.019531;
452945;0.025391;0.042969;1.023438;
453095;0.024414;0.041016;1.021484;
453256;0.027344;0.043945;1.028320;
453405;0.024414;0.036133;1.022461;
453556;0.027344;0.038086;1.026367;
453695;0.029297;0.040039;1.034180;
453839;0.029297;0.038086;1.027344;
453976;0.026367;0.036133;1.018555;
454129;0.027344;0.038086;1.023438;
454269;0.027344;0.039062;1.015625;
454410;0.026367;0.039062;1.017578;
454551;0.028320;0.036133;1.025391;
454700;0.025391;0.040039;1.015625;
454839;0.027344;0.040039;1.022461;
454979;0.029297;0.040039;1.015625;
455130;0.029297;0.040039;1.024414;
455266;0.026367;0.035156;1.025391;
455419;0.028320;0.039062;1.024414;
455559;0.028320;0.036133;1.027344;
455699;0.029297;0.039062;1.040039;
455845;0.026367;0.039062;1.023438;
455996;0.027344;0.040039;1.025391;
456155;0.026367;0.042969;1.026367;
456296;0.026367;0.039062;1.017578;
456425;0.028320;0.041016;1.031250;
456575;0.027344;0.041992;1.020508;
456735;0.029297;0.037109;1.023438;
456889;0.027344;0.041992;1.022461;
457030;0.029297;0.040039;1.018555;
457170;0.026367;0.039062;1.028320;
457311;0.028320;0.040039;1.018555;
457459;0.027344;0.037109;1.018555;
457600;0.028320;0.041016;1.025391;
457739;0.027344;0.038086;1.032227;
457879;0.027344;0.035156;1.021484;
458020;0.028320;0.039062;1.021484;
458159;0.027344;0.032227;1.009766;
458309;0.027344;0.036133;1.018555;
458449;0.029297;0.037109;1.023438;
458586;0.028320;0.038086;1.019531;
458726;0.029297;0.035156;1.025391;
458875;0.029297;0.039062;1.026367;
459025;0.027344;0.040039;1.028320;
459175;0.029297;0.037109;1.022461;
459315;0.028320;0.041016;1.018555;
459465;0.029297;0.039062;1.022461;
459619;0.027344;0.038086;1.019531;
459759;0.026367;0.039062;1.019531;
459896;0.027344;0.039062;1.026367;
460049;0.030273;0.035156;1.025391;
460190;0.028320;0.036133;1.020508;
460329;0.030273;0.035156;1.030273;
460465;0.028320;0.037109;1.024414;
460619;0.030273;0.043945;1.037109;
460759;0.027344;0.038086;1.030273;
460900;0.030273;0.040039;1.031250;
461039;0.030273;0.037109;1.028320;
461176;0.026367;0.037109;1.016602;
461329;0.030273;0.039062;1.018555;
461479;0.028320;0.041016;1.029297;
461605;0.029297;0.038086;1.033203;
461757;0.031250;0.036133;1.028320;
461905;0.031250;0.039062;1.037109;
462055;0.029297;0.038086;1.048828;
462206;0.034180;0.040039;1.040039;
462360;0.031250;0.042969;1.044922;
462499;0.030273;0.038086;1.035156;
462639;0.034180;0.036133;1.037109;
462781;0.030273;0.041016;1.033203;
462929;0.032227;0.038086;1.028320;
463070;0.030273;0.040039;1.034180;
463209;0.029297;0.037109;1.026367;
463349;0.029297;0.041016;1.023438;
463485;0.029297;0.037109;1.013672;
463639;0.027344;0.038086;1.023438;
463779;0.028320;0.036133;1.011719;
463920;0.032227;0.039062;1.016602;
464055;0.028320;0.038086;1.015625;
464195;0.030273;0.038086;1.019531;
464345;0.030273;0.039062;1.015625;
464495;0.032227;0.038086;1.032227;
464645;0.032227;0.041016;1.035156;
464795;0.032227;0.038086;1.028320;
464950;0.034180;0.039062;1.041992;
465089;0.032227;0.037109;1.038086;
465229;0.034180;0.039062;1.039062;
465379;0.032227;0.039062;1.041992;
465519;0.033203;0.038086;1.043945;
465659;0.034180;0.038086;1.036133;
465799;0.033203;0.038086;1.036133;
465940;0.032227;0.040039;1.032227;
466075;0.034180;0.036133;1.032227;
466220;0.034180;0.039062;1.039062;
466369;0.034180;0.036133;1.023438;
466510;0.032227;0.034180;1.023438;
466659;0.034180;0.040039;1.035156;
466796;0.033203;0.036133;1.022461;
466945;0.033203;0.037109;1.032227;
467096;0.032227;0.039062;1.030273;
467245;0.034180;0.040039;1.033203;
467397;0.031250;0.040039;1.027344;
467546;0.032227;0.041016;1.032227;
467705;0.034180;0.042969;1.030273;
467859;0.033203;0.041016;1.030273;
467999;0.034180;0.040039;1.031250;
468140;0.033203;0.039062;1.041992;
468285;0.032227;0.038086;1.033203;
468439;0.034180;0.035156;1.034180;
468589;0.034180;0.037109;1.032227;
468730;0.033203;0.038086;1.037109;
468869;0.034180;0.039062;1.028320;
468995;0.032227;0.036133;1.031250;
469139;0.034180;0.041016;1.035156;
469279;0.031250;0.038086;1.033203;
469419;0.033203;0.039062;1.032227;
469561;0.033203;0.038086;1.036133;
469721;0.033203;0.039062;1.025391;
469875;0.033203;0.040039;1.036133;
470026;0.031250;0.038086;1.035156;
470175;0.033203;0.036133;1.030273;
470325;0.032227;0.039062;1.021484;
470465;0.031250;0.036133;1.022461;
470619;0.032227;0.041016;1.022461;
470759;0.032227;0.034180;1.029297;
470895;0.033203;0.038086;1.027344;
471049;0.033203;0.037109;1.035156;
471189;0.033203;0.036133;1.029297;
471329;0.032227;0.037109;1.036133;
471465;0.035156;0.036133;1.027344;
471605;0.032227;0.035156;1.031250;
471736;0.032227;0.038086;1.029297;
471879;0.033203;0.041016;1.032227;
472019;0.033203;0.038086;1.034180;
472159;0.036133;0.038086;1.040039;
472295;0.033203;0.041016;1.035156;
472450;0.034180;0.041016;1.027344;
472585;0.033203;0.037109;1.032227;
472746;0.031250;0.037109;1.028320;
472889;0.032227;0.040039;1.034180;
473026;0.033203;0.039062;1.028320;
473175;0.032227;0.039062;1.031250;
473329;0.032227;0.038086;1.028320;
473476;0.031250;0.036133;1.034180;
473629;0.033203;0.039062;1.028320;
473775;0.033203;0.039062;1.026367;
473930;0.033203;0.040039;1.022461;
474079;0.033203;0.037109;1.028320;
474220;0.031250;0.034180;1.016602;
474365;0.032227;0.038086;1.026367;
474519;0.033203;0.035156;1.021484;
474659;0.032227;0.038086;1.023438;
474800;0.034180;0.040039;1.028320;
474939;0.030273;0.034180;1.019531;
475079;0.034180;0.037109;1.027344;
475215;0.032227;0.033203;1.025391;
475369;0.033203;0.037109;1.023438;
475519;0.033203;0.035156;1.025391;
475666;0.032227;0.038086;1.017578;
475815;0.030273;0.041016;1.025391;
475965;0.031250;0.039062;1.014648;
476115;0.034180;0.035156;1.026367;
476265;0.031250;0.040039;1.018555;
476419;0.030273;0.034180;1.026367;
476570;0.031250;0.040039;1.024414;
476709;0.029297;0.040039;1.018555;
476856;0.032227;0.041016;1.031250;
477009;0.030273;0.038086;1.021484;
477149;0.032227;0.038086;1.032227;
477289;0.029297;0.037109;1.026367;
477429;0.031250;0.036133;1.032227;
477555;0.028320;0.037109;1.027344;
477709;0.032227;0.036133;1.027344;
477859;0.031250;0.036133;1.017578;
477999;0.033203;0.037109;1.032227;
478141;0.031250;0.034180;1.022461;
478299;0.032227;0.033203;1.025391;
478435;0.032227;0.034180;1.024414;
478585;0.029297;0.037109;1.020508;
478735;0.032227;0.034180;1.021484;
478885;0.031250;0.038086;1.029297;
479025;0.030273;0.034180;1.020508;
479179;0.030273;0.037109;1.025391;
479315;0.028320;0.039062;1.023438;
479459;0.029297;0.039062;1.021484;
479609;0.031250;0.035156;1.017578;
479749;0.029297;0.041992;1.019531;
479891;0.029297;0.039062;1.019531;
480045;0.029297;0.038086;1.020508;
480209;0.028320;0.040039;1.022461;
480349;0.029297;0.039062;1.019531;
480490;0.028320;0.035156;1.021484;
480625;0.025391;0.041992;1.018555;
480779;0.027344;0.043945;1.020508;
480919;0.027344;0.040039;1.027344;
481059;0.029297;0.040039;1.023438;
481195;0.026367;0.039062;1.019531;
481345;0.028320;0.036133;1.019531;
481495;0.026367;0.040039;1.023438;
481645;0.025391;0.037109;1.019531;
481795;0.027344;0.040039;1.021484;
481935;0.024414;0.038086;1.012695;
482090;0.026367;0.041016;1.019531;
482229;0.028320;0.036133;1.019531;
482379;0.024414;0.039062;1.020508;
482520;0.025391;0.036133;1.015625;
482659;0.028320;0.037109;1.028320;
482799;0.028320;0.036133;1.025391;
482939;0.025391;0.041016;1.018555;
483080;0.028320;0.040039;1.010742;
483220;0.027344;0.038086;1.021484;
483359;0.029297;0.041016;1.024414;
483495;0.025391;0.034180;1.026367;
483649;0.027344;0.036133;1.017578;
483789;0.027344;0.033203;1.014648;
483930;0.025391;0.035156;1.030273;
484065;0.026367;0.038086;1.024414;
484215;0.028320;0.041016;1.029297;
484365;0.025391;0.035156;1.024414;
484515;0.028320;0.038086;1.025391;
484665;0.026367;0.041016;1.024414;
484799;0.026367;0.036133;1.022461;
484935;0.025391;0.037109;1.032227;
485086;0.026367;0.041016;1.023438;
485235;0.025391;0.041016;1.022461;
485379;0.026367;0.038086;1.022461;
485519;0.027344;0.037109;1.029297;
485659;0.029297;0.041992;1.020508;
485805;0.025391;0.037109;1.024414;
485949;0.027344;0.038086;1.024414;
486100;0.026367;0.040039;1.029297;
486239;0.024414;0.043945;1.029297;
486376;0.026367;0.038086;1.016602;
486529;0.025391;0.041016;1.027344;
486669;0.026367;0.041016;1.027344;
486809;0.025391;0.036133;1.025391;
486950;0.026367;0.032227;1.027344;
487089;0.025391;0.038086;1.018555;
487225;0.026367;0.033203;1.028320;
487359;0.024414;0.037109;1.011719;
487495;0.026367;0.032227;1.009766;
487645;0.025391;0.038086;1.011719;
487805;0.025391;0.036133;1.018555;
487955;0.022461;0.041992;1.019531;
488095;0.025391;0.035156;1.022461;
488245;0.024414;0.038086;1.012695;
488399;0.024414;0.035156;1.010742;
488539;0.024414;0.038086;1.017578;
488680;0.023438;0.034180;1.012695;
488819;0.022461;0.041016;1.020508;
488959;0.022461;0.037109;1.015625;
489105;0.024414;0.036133;1.016602;
489249;0.026367;0.040039;1.026367;
489389;0.024414;0.038086;1.022461;
489530;0.022461;0.036133;1.015625;
489671;0.025391;0.038086;1.019531;
489820;0.025391;0.037109;1.022461;
489959;0.026367;0.038086;1.023438;
490099;0.022461;0.040039;1.014648;
490239;0.022461;0.039062;1.009766;
490375;0.025391;0.037109;1.012695;
490526;0.023438;0.037109;1.023438;
490675;0.022461;0.036133;1.021484;
490835;0.023438;0.041992;1.028320;
490985;0.023438;0.037109;1.015625;
491135;0.021484;0.039062;1.025391;
491279;0.022461;0.034180;1.017578;
491420;0.024414;0.040039;1.020508;
491559;0.023438;0.039062;1.024414;
491695;0.025391;0.038086;1.023438;
491859;0.020508;0.041016;1.018555;
491999;0.022461;0.042969;1.014648;
492139;0.019531;0.044922;1.021484;
492279;0.022461;0.039062;1.015625;
492415;0.022461;0.041016;1.015625;
492549;0.022461;0.040039;1.023438;
492689;0.019531;0.039062;1.023438;
492829;0.021484;0.040039;1.024414;
492969;0.021484;0.037109;1.015625;
493105;0.020508;0.038086;1.018555;
493245;0.022461;0.034180;1.021484;
493395;0.023438;0.035156;1.013672;
493545;0.023438;0.029297;1.017578;
493705;0.021484;0.035156;1.024414;
493855;0.023438;0.037109;1.021484;
494015;0.025391;0.032227;1.024414;
494169;0.022461;0.033203;1.018555;
494309;0.020508;0.039062;1.022461;
494449;0.020508;0.037109;1.023438;
494585;0.021484;0.039062;1.009766;
494739;0.023438;0.041992;1.010742;
494879;0.021484;0.033203;1.018555;
495020;0.022461;0.035156;1.024414;
495161;0.023438;0.037109;1.024414;
495316;0.021484;0.039062;1.031250;
495455;0.019531;0.040039;1.028320;
495599;0.021484;0.041016;1.028320;
495749;0.020508;0.037109;1.024414;
495889;0.019531;0.036133;1.016602;
496025;0.021484;0.033203;1.029297;
496175;0.022461;0.033203;1.027344;
496325;0.020508;0.033203;1.032227;
496475;0.023438;0.035156;1.029297;
496616;0.019531;0.035156;1.022461;
496766;0.019531;0.042969;1.031250;
496915;0.022461;0.039062;1.032227;
497059;0.019531;0.040039;1.035156;
497199;0.021484;0.041016;1.021484;
497336;0.019531;0.037109;1.024414;
497489;0.020508;0.040039;1.029297;
497629;0.020508;0.035156;1.036133;
497769;0.020508;0.043945;1.031250;
497909;0.020508;0.032227;1.007812;
498045;0.022461;0.038086;1.027344;
498189;0.019531;0.036133;1.022461;
498330;0.020508;0.037109;1.020508;
498469;0.020508;0.035156;1.025391;
498605;0.018555;0.041016;1.023438;
498759;0.019531;0.038086;1.018555;
498899;0.017578;0.039062;1.031250;
499035;0.020508;0.035156;1.026367;
499187;0.022461;0.040039;1.012695;
499335;0.020508;0.032227;1.013672;
499475;0.020508;0.035156;1.018555;
499616;0.021484;0.034180;1.022461;
499770;0.019531;0.035156;1.021484;
499919;0.024414;0.036133;1.018555;
500060;0.020508;0.036133;1.022461;
500206;0.020508;0.034180;1.017578;
500359;0.021484;0.037109;1.025391;
500509;0.022461;0.037109;1.035156;
500649;0.021484;0.035156;1.028320;
500791;0.019531;0.035156;1.022461;
500940;0.020508;0.037109;1.030273;
501079;0.019531;0.037109;1.028320;
501219;0.017578;0.038086;1.022461;
501359;0.016602;0.038086;1.026367;
501510;0.019531;0.039062;1.024414;
501649;0.020508;0.036133;1.022461;
501787;0.021484;0.039062;1.027344;
501936;0.019531;0.035156;1.029297;
502085;0.022461;0.036133;1.024414;
502235;0.020508;0.039062;1.033203;
502385;0.022461;0.036133;1.034180;
502530;0.020508;0.036133;1.028320;
502679;0.021484;0.035156;1.029297;
502819;0.019531;0.041016;1.035156;
502959;0.020508;0.038086;1.041992;
503109;0.019531;0.038086;1.030273;
503249;0.020508;0.039062;1.035156;
503389;0.019531;0.032227;1.021484;
503530;0.018555;0.032227;1.035156;
503665;0.018555;0.037109;1.026367;
503799;0.016602;0.040039;1.032227;
503940;0.021484;0.037109;1.032227;
504079;0.016602;0.036133;1.021484;
504220;0.019531;0.038086;1.025391;
504359;0.017578;0.034180;1.028320;
504495;0.016602;0.038086;1.029297;
504645;0.019531;0.041992;1.029297;
504796;0.018555;0.039062;1.021484;
504935;0.018555;0.039062;1.038086;
505086;0.017578;0.037109;1.020508;
505236;0.019531;0.036133;1.021484;
505385;0.017578;0.040039;1.031250;
505530;0.018555;0.036133;1.023438;
505679;0.019531;0.036133;1.019531;
505819;0.017578;0.039062;1.029297;
505965;0.017578;0.038086;1.021484;
506119;0.019531;0.039062;1.025391;
506259;0.018555;0.035156;1.018555;
506399;0.017578;0.040039;1.030273;
506535;0.020508;0.036133;1.024414;
506690;0.019531;0.039062;1.026367;
506839;0.017578;0.038086;1.018555;
506979;0.020508;0.036133;1.009766;
507121;0.017578;0.037109;1.019531;
507279;0.019531;0.033203;1.018555;
507415;0.020508;0.037109;1.023438;
507555;0.019531;0.037109;1.026367;
507706;0.021484;0.038086;1.018555;
507859;0.020508;0.041992;1.026367;
508005;0.020508;0.041992;1.021484;
508147;0.019531;0.035156;1.019531;
508295;0.022461;0.039062;1.024414;
508439;0.020508;0.036133;1.022461;
508580;0.019531;0.037109;1.032227;
508719;0.021484;0.039062;1.025391;
508855;0.019531;0.039062;1.024414;
509009;0.019531;0.039062;1.021484;
509149;0.019531;0.036133;1.021484;
509299;0.019531;0.037109;1.031250;
509435;0.018555;0.039062;1.025391;
509565;0.020508;0.036133;1.028320;
509719;0.020508;0.040039;1.034180;
509860;0.020508;0.039062;1.032227;
509999;0.019531;0.036133;1.030273;
510135;0.018555;0.037109;1.030273;
510285;0.018555;0.041016;1.033203;
510435;0.019531;0.038086;1.038086;
510585;0.019531;0.036133;1.033203;
510735;0.019531;0.035156;1.031250;
510886;0.017578;0.037109;1.030273;
511035;0.019531;0.034180;1.029297;
511169;0.017578;0.037109;1.027344;
511309;0.019531;0.035156;1.034180;
511449;0.020508;0.036133;1.025391;
511595;0.018555;0.038086;1.029297;
511749;0.017578;0.037109;1.030273;
511889;0.019531;0.037109;1.027344;
512029;0.016602;0.036133;1.028320;
512165;0.020508;0.037109;1.026367;
512320;0.019531;0.036133;1.023438;
512469;0.019531;0.036133;1.034180;
512609;0.020508;0.040039;1.023438;
512761;0.021484;0.035156;1.024414;
512910;0.019531;0.038086;1.029297;
513060;0.019531;0.041016;1.022461;
513195;0.020508;0.037109;1.023438;
513345;0.020508;0.039062;1.030273;
513495;0.019531;0.038086;1.023438;
513655;0.021484;0.038086;1.024414;
513805;0.018555;0.035156;1.016602;
513960;0.019531;0.036133;1.029297;
514109;0.017578;0.038086;1.032227;
514245;0.017578;0.038086;1.024414;
514399;0.018555;0.036133;1.022461;
514539;0.020508;0.036133;1.017578;
514679;0.018555;0.033203;1.016602;
514819;0.021484;0.037109;1.016602;
514965;0.018555;0.037109;1.025391;
515119;0.019531;0.040039;1.026367;
515269;0.019531;0.039062;1.029297;
515409;0.020508;0.039062;1.014648;
515545;0.018555;0.035156;1.017578;
515700;0.019531;0.036133;1.015625;
515840;0.021484;0.039062;1.025391;
515979;0.020508;0.037109;1.027344;
516115;0.023438;0.039062;1.020508;
516265;0.023438;0.038086;1.021484;
516415;0.020508;0.039062;1.025391;
516565;0.021484;0.040039;1.031250;
516715;0.020508;0.036133;1.022461;
516855;0.020508;0.035156;1.027344;
517005;0.023438;0.040039;1.026367;
517159;0.021484;0.036133;1.020508;
517310;0.021484;0.038086;1.021484;
517450;0.021484;0.037109;1.031250;
517589;0.022461;0.037109;1.031250;
517735;0.022461;0.033203;1.027344;
517890;0.023438;0.035156;1.021484;
518029;0.021484;0.036133;1.032227;
518169;0.021484;0.037109;1.027344;
518306;0.023438;0.037109;1.025391;
518459;0.023438;0.040039;1.033203;
518599;0.021484;0.037109;1.032227;
518739;0.023438;0.037109;1.028320;
518880;0.020508;0.037109;1.023438;
519029;0.023438;0.037109;1.032227;
519167;0.021484;0.035156;1.028320;
519309;0.021484;0.039062;1.019531;
519445;0.021484;0.036133;1.018555;
519595;0.022461;0.035156;1.023438;
519747;0.021484;0.036133;1.024414;
519905;0.022461;0.037109;1.034180;
520055;0.024414;0.037109;1.023438;
520209;0.021484;0.041016;1.028320;
520359;0.020508;0.034180;1.027344;
520500;0.021484;0.038086;1.024414;
520635;0.022461;0.036133;1.027344;
520789;0.023438;0.037109;1.016602;
520930;0.025391;0.036133;1.023438;
521069;0.023438;0.037109;1.028320;
521209;0.024414;0.039062;1.030273;
521359;0.024414;0.036133;1.024414;
521500;0.022461;0.037109;1.028320;
521639;0.023438;0.039062;1.027344;
521779;0.022461;0.037109;1.027344;
521915;0.023438;0.036133;1.014648;
522065;0.021484;0.037109;1.023438;
522215;0.023438;0.039062;1.020508;
522365;0.022461;0.039062;1.024414;
522515;0.025391;0.038086;1.014648;
522670;0.018555;0.034180;1.010742;
522805;0.023438;0.039062;1.021484;
522939;0.021484;0.037109;1.031250;
523080;0.024414;0.038086;1.025391;
523219;0.021484;0.039062;1.024414;
523359;0.018555;0.038086;1.025391;
523495;0.021484;0.034180;1.019531;
523649;0.023438;0.033203;1.015625;
523799;0.021484;0.037109;1.015625;
523940;0.021484;0.035156;1.016602;
524085;0.022461;0.039062;1.023438;
524229;0.023438;0.042969;1.013672;
524379;0.022461;0.036133;1.012695;
524519;0.023438;0.037109;1.023438;
524655;0.023438;0.040039;1.024414;
524805;0.023438;0.040039;1.025391;
524955;0.021484;0.043945;1.029297;
525105;0.024414;0.040039;1.030273;
525265;0.021484;0.037109;1.023438;
525416;0.021484;0.037109;1.023438;
525555;0.024414;0.034180;1.020508;
525699;0.021484;0.036133;1.033203;
525849;0.020508;0.037109;1.032227;
525989;0.023438;0.038086;1.019531;
526126;0.023438;0.035156;1.018555;
526279;0.022461;0.036133;1.013672;
526429;0.024414;0.036133;1.028320;
526570;0.025391;0.040039;1.022461;
526719;0.023438;0.038086;1.012695;
526849;0.024414;0.042969;1.025391;
526985;0.022461;0.040039;1.032227;
527140;0.023438;0.043945;1.028320;
527280;0.019531;0.039062;1.013672;
527415;0.023438;0.041016;1.028320;
527570;0.022461;0.040039;1.024414;
527705;0.026367;0.036133;1.018555;
527855;0.022461;0.040039;1.023438;
528007;0.023438;0.038086;1.023438;
528155;0.023438;0.037109;1.028320;
528295;0.022461;0.037109;1.025391;
528445;0.025391;0.035156;1.025391;
528595;0.024414;0.039062;1.029297;
528749;0.023438;0.039062;1.025391;
528889;0.021484;0.036133;1.024414;
529029;0.024414;0.039062;1.024414;
529175;0.023438;0.034180;1.025391;
529320;0.024414;0.039062;1.020508;
529459;0.026367;0.039062;1.020508;
529599;0.025391;0.039062;1.026367;
529735;0.023438;0.037109;1.032227;
529889;0.025391;0.038086;1.025391;
530029;0.024414;0.041016;1.031250;
530169;0.025391;0.036133;1.017578;
530309;0.023438;0.041016;1.019531;
530471;0.024414;0.038086;1.019531;
530625;0.026367;0.038086;1.025391;
530775;0.024414;0.041992;1.026367;
530915;0.023438;0.035156;1.019531;
531065;0.025391;0.038086;1.029297;
531225;0.024414;0.039062;1.026367;
531379;0.024414;0.036133;1.027344;
531520;0.023438;0.039062;1.026367;
531659;0.025391;0.037109;1.028320;
531799;0.026367;0.035156;1.026367;
531935;0.025391;0.039062;1.032227;
532090;0.025391;0.037109;1.027344;
532229;0.026367;0.037109;1.033203;
532369;0.026367;0.038086;1.027344;
532505;0.027344;0.034180;1.025391;
532649;0.026367;0.038086;1.029297;
532799;0.024414;0.034180;1.024414;
532940;0.025391;0.036133;1.020508;
533079;0.026367;0.035156;1.016602;
533215;0.025391;0.040039;1.026367;
533345;0.023438;0.037109;1.022461;
533475;0.026367;0.041016;1.027344;
533615;0.027344;0.036133;1.026367;
533765;0.028320;0.036133;1.025391;
533915;0.028320;0.037109;1.019531;
534065;0.023438;0.035156;1.023438;
534219;0.027344;0.036133;1.022461;
534359;0.025391;0.036133;1.020508;
534499;0.026367;0.035156;1.023438;
534635;0.023438;0.038086;1.017578;
534779;0.027344;0.037109;1.016602;
534919;0.023438;0.038086;1.024414;
535059;0.024414;0.039062;1.011719;
535199;0.024414;0.041016;1.023438;
535335;0.023438;0.039062;1.030273;
535489;0.026367;0.036133;1.023438;
535629;0.027344;0.039062;1.027344;
535769;0.024414;0.037109;1.022461;
535905;0.025391;0.035156;1.019531;
536035;0.026367;0.036133;1.025391;
536175;0.025391;0.039062;1.027344;
536325;0.027344;0.034180;1.031250;
536475;0.025391;0.032227;1.019531;
536625;0.026367;0.037109;1.027344;
536785;0.028320;0.036133;1.025391;
536939;0.030273;0.036133;1.022461;
537080;0.025391;0.037109;1.028320;
537219;0.027344;0.037109;1.020508;
537359;0.025391;0.038086;1.023438;
537495;0.026367;0.041016;1.024414;
537659;0.028320;0.041016;1.024414;
537799;0.026367;0.036133;1.022461;
537939;0.027344;0.036133;1.029297;
538081;0.025391;0.038086;1.023438;
538225;0.027344;0.041016;1.021484;
538369;0.026367;0.035156;1.023438;
538519;0.028320;0.039062;1.018555;
538659;0.027344;0.037109;1.025391;
538805;0.025391;0.039062;1.034180;
538955;0.026367;0.039062;1.013672;
539106;0.027344;0.039062;1.019531;
539266;0.028320;0.038086;1.015625;
539415;0.028320;0.040039;1.025391;
539566;0.028320;0.035156;1.019531;
539720;0.029297;0.036133;1.025391;
539861;0.027344;0.040039;1.024414;
540019;0.030273;0.036133;1.020508;
540159;0.025391;0.038086;1.023438;
540309;0.027344;0.036133;1.024414;
540451;0.029297;0.038086;1.029297;
540609;0.027344;0.037109;1.027344;
540750;0.028320;0.039062;1.031250;
540889;0.027344;0.035156;1.025391;
541029;0.026367;0.036133;1.029297;
541179;0.027344;0.039062;1.024414;
541319;0.026367;0.035156;1.031250;
541469;0.027344;0.036133;1.029297;
541605;0.027344;0.037109;1.022461;
541755;0.028320;0.036133;1.028320;
541906;0.028320;0.036133;1.031250;
542045;0.026367;0.032227;1.017578;
542185;0.027344;0.034180;1.023438;
542336;0.026367;0.034180;1.023438;
542485;0.029297;0.036133;1.029297;
542639;0.026367;0.038086;1.033203;
542779;0.026367;0.039062;1.021484;
542919;0.029297;0.040039;1.032227;
543055;0.028320;0.039062;1.030273;
543210;0.028320;0.038086;1.032227;
543349;0.025391;0.042969;1.031250;
543499;0.027344;0.039062;1.028320;
543635;0.028320;0.042969;1.032227;
543789;0.027344;0.039062;1.038086;
543929;0.027344;0.038086;1.023438;
544069;0.027344;0.037109;1.026367;
544209;0.028320;0.041016;1.028320;
544345;0.030273;0.039062;1.034180;
544485;0.028320;0.037109;1.028320;
544625;0.030273;0.038086;1.022461;
544775;0.027344;0.037109;1.027344;
544925;0.029297;0.034180;1.033203;
545075;0.028320;0.039062;1.030273;
545225;0.028320;0.041016;1.034180;
545369;0.029297;0.035156;1.021484;
545519;0.027344;0.034180;1.033203;
545660;0.027344;0.033203;1.033203;
545795;0.027344;0.034180;1.026367;
545949;0.027344;0.035156;1.030273;
546089;0.033203;0.036133;1.039062;
546239;0.028320;0.032227;1.027344;
546380;0.029297;0.039062;1.031250;
546515;0.029297;0.038086;1.023438;
546669;0.026367;0.041016;1.026367;
546809;0.029297;0.040039;1.031250;
546949;0.028320;0.035156;1.027344;
547085;0.026367;0.040039;1.028320;
547235;0.029297;0.036133;1.025391;
547376;0.030273;0.039062;1.032227;
547525;0.026367;0.041992;1.031250;
547685;0.027344;0.037109;1.022461;
547835;0.029297;0.042969;1.026367;
547989;0.030273;0.038086;1.019531;
548139;0.029297;0.037109;1.030273;
548279;0.028320;0.036133;1.024414;
548415;0.029297;0.035156;1.013672;
548569;0.029297;0.040039;1.026367;
548710;0.027344;0.037109;1.019531;
548859;0.031250;0.040039;1.020508;
548999;0.029297;0.031250;1.018555;
549145;0.028320;0.034180;1.010742;
549299;0.029297;0.035156;1.020508;
549449;0.029297;0.037109;1.016602;
549589;0.027344;0.032227;1.017578;
549729;0.029297;0.035156;1.019531;
549875;0.028320;0.034180;1.025391;
550036;0.027344;0.040039;1.031250;
550185;0.029297;0.036133;1.023438;
550326;0.029297;0.038086;1.022461;
550465;0.029297;0.037109;1.033203;
550615;0.027344;0.036133;1.015625;
550765;0.028320;0.041992;1.024414;
550909;0.028320;0.038086;1.018555;
551050;0.028320;0.036133;1.028320;
551195;0.028320;0.039062;1.023438;
551349;0.027344;0.035156;1.016602;
551489;0.028320;0.041016;1.027344;
551629;0.030273;0.037109;1.019531;
551766;0.028320;0.038086;1.023438;
551906;0.029297;0.038086;1.018555;
552039;0.029297;0.041992;1.026367;
552179;0.030273;0.036133;1.022461;
552320;0.025391;0.035156;1.016602;
552459;0.028320;0.035156;1.025391;
552599;0.028320;0.034180;1.015625;
552739;0.029297;0.036133;1.022461;
552875;0.029297;0.034180;1.013672;
553025;0.030273;0.036133;1.029297;
553176;0.028320;0.037109;1.027344;
553325;0.028320;0.036133;1.021484;
553475;0.027344;0.035156;1.027344;
553626;0.028320;0.038086;1.027344;
553769;0.029297;0.036133;1.030273;
553906;0.030273;0.036133;1.026367;
554049;0.029297;0.036133;1.026367;
554189;0.029297;0.040039;1.036133;
554330;0.028320;0.036133;1.019531;
554469;0.028320;0.039062;1.027344;
554609;0.029297;0.038086;1.024414;
554749;0.029297;0.041016;1.025391;
554889;0.029297;0.041016;1.032227;
555029;0.028320;0.037109;1.020508;
555165;0.026367;0.041016;1.037109;
555319;0.026367;0.039062;1.027344;
555459;0.030273;0.041016;1.025391;
555599;0.029297;0.039062;1.031250;
555735;0.028320;0.038086;1.029297;
555885;0.029297;0.040039;1.026367;
556036;0.028320;0.035156;1.016602;
556196;0.028320;0.035156;1.022461;
556355;0.030273;0.039062;1.027344;
556505;0.028320;0.036133;1.020508;
556649;0.030273;0.034180;1.023438;
556789;0.028320;0.031250;1.013672;
556929;0.030273;0.036133;1.026367;
557069;0.027344;0.035156;1.019531;
557220;0.031250;0.036133;1.021484;
557360;0.029297;0.034180;1.020508;
557499;0.027344;0.034180;1.018555;
557641;0.029297;0.039062;1.024414;
557790;0.027344;0.037109;1.018555;
557939;0.026367;0.035156;1.020508;
558079;0.028320;0.041992;1.027344;
558219;0.030273;0.034180;1.015625;
558355;0.028320;0.037109;1.022461;
558505;0.026367;0.037109;1.021484;
558655;0.026367;0.037109;1.022461;
558815;0.030273;0.038086;1.025391;
558966;0.029297;0.036133;1.013672;
559115;0.028320;0.036133;1.024414;
559269;0.026367;0.038086;1.017578;
559409;0.030273;0.034180;1.018555;
559559;0.029297;0.038086;1.021484;
559695;0.027344;0.032227;1.018555;
559849;0.028320;0.036133;1.016602;
559989;0.029297;0.034180;1.009766;
560130;0.029297;0.038086;1.028320;
560279;0.030273;0.037109;1.027344;
560429;0.032227;0.037109;1.022461;
560570;0.028320;0.038086;1.022461;
560709;0.028320;0.036133;1.023438;
560859;0.028320;0.041016;1.024414;
560996;0.029297;0.039062;1.015625;
561155;0.028320;0.037109;1.013672;
561305;0.029297;0.038086;1.017578;
561456;0.029297;0.035156;1.020508;
561607;0.030273;0.040039;1.032227;
561755;0.029297;0.037109;1.020508;
561905;0.028320;0.033203;1.015625;
562059;0.030273;0.041992;1.020508;
562199;0.027344;0.040039;1.018555;
562339;0.028320;0.041016;1.025391;
562485;0.029297;0.038086;1.015625;
562640;0.028320;0.037109;1.023438;
562780;0.028320;0.038086;1.024414;
562919;0.028320;0.036133;1.021484;
563055;0.029297;0.041016;1.029297;
563199;0.028320;0.038086;1.020508;
563340;0.026367;0.038086;1.023438;
563479;0.030273;0.036133;1.024414;
563619;0.029297;0.035156;1.023438;
563769;0.029297;0.039062;1.030273;
563909;0.027344;0.035156;1.018555;
564045;0.028320;0.035156;1.023438;
564185;0.027344;0.036133;1.025391;
564345;0.029297;0.039062;1.024414;
564495;0.027344;0.041016;1.025391;
564645;0.028320;0.039062;1.023438;
564785;0.030273;0.037109;1.025391;
564929;0.029297;0.037109;1.025391;
565069;0.027344;0.039062;1.027344;
565205;0.029297;0.036133;1.025391;
565359;0.027344;0.038086;1.021484;
565499;0.029297;0.036133;1.024414;
565639;0.027344;0.037109;1.016602;
565786;0.027344;0.036133;1.027344;
565940;0.027344;0.039062;1.027344;
566079;0.026367;0.035156;1.016602;
566220;0.032227;0.036133;1.023438;
566355;0.031250;0.032227;1.027344;
566509;0.030273;0.038086;1.027344;
566649;0.030273;0.039062;1.021484;
566789;0.027344;0.037109;1.029297;
566925;0.028320;0.035156;1.029297;
567075;0.028320;0.037109;1.020508;
567225;0.028320;0.036133;1.028320;
567375;0.031250;0.035156;1.028320;
567525;0.029297;0.039062;1.034180;
567675;0.030273;0.039062;1.038086;
567830;0.029297;0.036133;1.026367;
567970;0.029297;0.038086;1.030273;
568109;0.030273;0.040039;1.028320;
568249;0.027344;0.037109;1.029297;
568389;0.030273;0.036133;1.026367;
568529;0.029297;0.038086;1.033203;
568669;0.030273;0.037109;1.029297;
568807;0.029297;0.038086;1.022461;
568949;0.029297;0.039062;1.023438;
569089;0.028320;0.039062;1.026367;
569229;0.029297;0.039062;1.026367;
569365;0.030273;0.040039;1.023438;
569520;0.029297;0.037109;1.020508;
569669;0.027344;0.037109;1.031250;
569805;0.029297;0.037109;1.018555;
569955;0.027344;0.041016;1.025391;
570105;0.031250;0.037109;1.027344;
570255;0.029297;0.039062;1.023438;
570399;0.028320;0.038086;1.019531;
570535;0.029297;0.036133;1.014648;
570665;0.029297;0.037109;1.022461;
570815;0.028320;0.037109;1.022461;
570965;0.028320;0.036133;1.023438;
571119;0.029297;0.036133;1.028320;
571259;0.031250;0.034180;1.028320;
571409;0.028320;0.036133;1.030273;
571545;0.030273;0.039062;1.022461;
571700;0.028320;0.037109;1.028320;
571840;0.031250;0.036133;1.036133;
571990;0.031250;0.035156;1.033203;
572125;0.031250;0.036133;1.022461;
572289;0.029297;0.037109;1.020508;
572429;0.027344;0.038086;1.025391;
572569;0.029297;0.039062;1.030273;
572709;0.030273;0.038086;1.028320;
572848;0.032227;0.037109;1.023438;
573005;0.029297;0.040039;1.025391;
573146;0.030273;0.034180;1.018555;
573295;0.032227;0.037109;1.021484;
573435;0.028320;0.038086;1.031250;
573586;0.029297;0.039062;1.019531;
573735;0.032227;0.036133;1.026367;
573880;0.028320;0.033203;1.022461;
574030;0.031250;0.038086;1.030273;
574169;0.033203;0.034180;1.024414;
574305;0.031250;0.036133;1.020508;
574435;0.031250;0.038086;1.033203;
574589;0.031250;0.037109;1.024414;
574729;0.030273;0.039062;1.024414;
574869;0.029297;0.037109;1.027344;
575015;0.031250;0.038086;1.026367;
575169;0.032227;0.037109;1.025391;
575319;0.033203;0.035156;1.024414;
575459;0.031250;0.034180;1.025391;
575605;0.030273;0.037109;1.019531;
575755;0.032227;0.036133;1.025391;
575915;0.029297;0.036133;1.014648;
576076;0.031250;0.037109;1.025391;
576225;0.031250;0.037109;1.024414;
576385;0.031250;0.038086;1.025391;
576525;0.030273;0.038086;1.027344;
576679;0.033203;0.039062;1.027344;
576819;0.033203;0.037109;1.035156;
576969;0.034180;0.038086;1.031250;
577109;0.032227;0.037109;1.031250;
577245;0.032227;0.035156;1.034180;
577400;0.032227;0.038086;1.039062;
577549;0.034180;0.033203;1.019531;
577690;0.030273;0.040039;1.027344;
577825;0.032227;0.037109;1.022461;
577975;0.032227;0.040039;1.028320;
578120;0.030273;0.040039;1.025391;
578259;0.032227;0.036133;1.028320;
578395;0.033203;0.038086;1.014648;
578545;0.033203;0.038086;1.029297;
578695;0.032227;0.040039;1.025391;
578845;0.031250;0.040039;1.025391;
578989;0.031250;0.037109;1.021484;
579125;0.031250;0.035156;1.025391;
579275;0.032227;0.036133;1.019531;
579425;0.033203;0.037109;1.032227;
579579;0.032227;0.035156;1.028320;
579719;0.031250;0.038086;1.032227;
579859;0.033203;0.040039;1.026367;
580001;0.032227;0.036133;1.031250;
580159;0.032227;0.037109;1.027344;
580299;0.034180;0.039062;1.023438;
580439;0.031250;0.037109;1.028320;
580589;0.032227;0.039062;1.017578;
580749;0.031250;0.038086;1.022461;
580889;0.033203;0.039062;1.028320;
581029;0.032227;0.037109;1.029297;
581169;0.034180;0.035156;1.018555;
581305;0.033203;0.036133;1.029297;
581459;0.031250;0.036133;1.019531;
581599;0.032227;0.035156;1.026367;
581765;0.034180;0.035156;1.028320;
581915;0.034180;0.037109;1.033203;
582066;0.032227;0.036133;1.027344;
582216;0.034180;0.035156;1.025391;
582366;0.033203;0.035156;1.030273;
582520;0.032227;0.036133;1.029297;
582655;0.033203;0.039062;1.027344;
582809;0.034180;0.038086;1.027344;
582950;0.031250;0.037109;1.021484;
583089;0.031250;0.039062;1.028320;
583229;0.032227;0.039062;1.027344;
583379;0.033203;0.041992;1.026367;
583519;0.029297;0.038086;1.028320;
583659;0.032227;0.041016;1.026367;
583799;0.032227;0.039062;1.027344;
583939;0.031250;0.038086;1.023438;
584079;0.032227;0.040039;1.019531;
584219;0.032227;0.034180;1.024414;
584369;0.029297;0.041016;1.026367;
584505;0.031250;0.037109;1.028320;
584655;0.031250;0.037109;1.023438;
584805;0.034180;0.034180;1.025391;
584945;0.032227;0.034180;1.020508;
585095;0.031250;0.037109;1.023438;
585247;0.029297;0.036133;1.015625;
585405;0.032227;0.036133;1.018555;
585555;0.031250;0.036133;1.021484;
585719;0.032227;0.035156;1.016602;
585860;0.033203;0.036133;1.022461;
586009;0.031250;0.035156;1.009766;
586159;0.029297;0.032227;1.018555;
586300;0.030273;0.033203;1.021484;
586440;0.032227;0.035156;1.024414;
586575;0.030273;0.034180;1.016602;
586720;0.032227;0.035156;1.024414;
586859;0.032227;0.035156;1.021484;
587000;0.032227;0.039062;1.038086;
587145;0.033203;0.038086;1.021484;
587289;0.032227;0.041016;1.029297;
587429;0.032227;0.038086;1.024414;
587570;0.032227;0.041016;1.025391;
587705;0.031250;0.040039;1.026367;
587857;0.032227;0.041016;1.023438;
588006;0.032227;0.036133;1.024414;
588155;0.030273;0.040039;1.028320;
588305;0.029297;0.033203;1.018555;
588459;0.030273;0.039062;1.035156;
588595;0.032227;0.034180;1.018555;
588729;0.032227;0.041016;1.026367;
588870;0.030273;0.035156;1.009766;
589009;0.031250;0.036133;1.022461;
589149;0.030273;0.033203;1.012695;
589299;0.030273;0.034180;1.015625;
589439;0.031250;0.037109;1.018555;
589580;0.031250;0.036133;1.021484;
589719;0.033203;0.037109;1.011719;
589855;0.029297;0.037109;1.026367;
589999;0.030273;0.037109;1.016602;
590139;0.032227;0.035156;1.019531;
590279;0.031250;0.037109;1.018555;
