Time;acc_x;acc_y;acc_z;

591949;0.033203;0.037109;1.032227;
592165;0.032227;0.039062;1.022461;
592315;0.031250;0.040039;1.026367;
592455;0.029297;0.035156;1.022461;
592595;0.028320;0.037109;1.033203;
592735;0.030273;0.037109;1.023438;
592875;0.034180;0.043945;1.029297;
593015;0.031250;0.039062;1.026367;
593155;0.027344;0.039062;1.026367;
593295;0.033203;0.038086;1.019531;
593435;0.031250;0.038086;1.027344;
593575;0.030273;0.039062;1.024414;
593715;0.030273;0.038086;1.027344;
593855;0.031250;0.041992;1.021484;
593995;0.031250;0.038086;1.033203;
594135;0.031250;0.033203;1.021484;
594275;0.033203;0.038086;1.029297;
594415;0.031250;0.039062;1.030273;
594550;0.030273;0.034180;1.031250;
594701;0.034180;0.038086;1.027344;
594860;0.033203;0.038086;1.033203;
595025;0.032227;0.037109;1.034180;
595165;0.032227;0.034180;1.033203;
595315;0.033203;0.038086;1.033203;
595455;0.031250;0.033203;1.024414;
595595;0.030273;0.040039;1.031250;
595731;0.030273;0.036133;1.029297;
595881;0.031250;0.038086;1.031250;
596045;0.031250;0.039062;1.024414;
596205;0.033203;0.038086;1.027344;
596345;0.031250;0.039062;1.029297;
596485;0.031250;0.038086;1.021484;
596620;0.030273;0.038086;1.021484;
596785;0.032227;0.036133;1.023438;
596925;0.032227;0.041016;1.025391;
597062;0.032227;0.036133;1.020508;
597211;0.029297;0.036133;1.029297;
597360;0.031250;0.037109;1.018555;
597511;0.029297;0.036133;1.025391;
597655;0.030273;0.038086;1.030273;
597795;0.032227;0.036133;1.029297;
597937;0.034180;0.036133;1.021484;
598095;0.033203;0.036133;1.035156;
598235;0.032227;0.037109;1.027344;
598375;0.032227;0.036133;1.028320;
598525;0.031250;0.039062;1.018555;
598660;0.033203;0.037109;1.029297;
598805;0.030273;0.039062;1.025391;
598955;0.032227;0.038086;1.024414;
599105;0.029297;0.039062;1.024414;
599245;0.030273;0.039062;1.025391;
599385;0.033203;0.040039;1.028320;
599535;0.029297;0.037109;1.023438;
599680;0.029297;0.039062;1.023438;
599831;0.031250;0.040039;1.029297;
599981;0.031250;0.038086;1.023438;
600140;0.029297;0.037109;1.018555;
600305;0.030273;0.040039;1.033203;
600445;0.034180;0.037109;1.024414;
600585;0.032227;0.037109;1.028320;
600721;0.033203;0.041016;1.026367;
600865;0.033203;0.040039;1.027344;
601005;0.032227;0.040039;1.025391;
601145;0.031250;0.039062;1.031250;
601281;0.033203;0.036133;1.025391;
601435;0.033203;0.035156;1.030273;
601585;0.032227;0.038086;1.032227;
601725;0.031250;0.035156;1.019531;
601862;0.032227;0.038086;1.028320;
602005;0.032227;0.034180;1.028320;
602145;0.033203;0.036133;1.028320;
602281;0.034180;0.031250;1.021484;
602442;0.031250;0.036133;1.026367;
602601;0.030273;0.038086;1.013672;
602751;0.031250;0.036133;1.021484;
602915;0.030273;0.036133;1.021484;
603061;0.031250;0.039062;1.023438;
603225;0.034180;0.037109;1.012695;
603365;0.031250;0.039062;1.022461;
603505;0.030273;0.039062;1.023438;
603640;0.033203;0.041016;1.025391;
603795;0.033203;0.035156;1.024414;
603935;0.031250;0.036133;1.025391;
604085;0.034180;0.040039;1.027344;
604221;0.035156;0.037109;1.027344;
604385;0.032227;0.039062;1.039062;
604525;0.034180;0.040039;1.024414;
604665;0.035156;0.040039;1.033203;
604800;0.033203;0.037109;1.025391;
604951;0.034180;0.041016;1.027344;
605113;0.034180;0.035156;1.025391;
605252;0.031250;0.037109;1.026367;
605400;0.035156;0.039062;1.030273;
605555;0.033203;0.040039;1.022461;
605695;0.031250;0.036133;1.021484;
605835;0.033203;0.040039;1.028320;
605977;0.034180;0.036133;1.025391;
606135;0.032227;0.038086;1.022461;
606285;0.033203;0.035156;1.016602;
606425;0.034180;0.035156;1.031250;
606565;0.034180;0.034180;1.017578;
606700;0.031250;0.037109;1.026367;
606855;0.034180;0.039062;1.024414;
606995;0.032227;0.038086;1.023438;
607135;0.034180;0.037109;1.027344;
607273;0.034180;0.040039;1.020508;
607425;0.034180;0.040039;1.026367;
607572;0.032227;0.037109;1.018555;
607721;0.033203;0.039062;1.020508;
607860;0.034180;0.037109;1.016602;
608010;0.032227;0.040039;1.029297;
608171;0.033203;0.040039;1.010742;
608325;0.032227;0.037109;1.019531;
608465;0.033203;0.037109;1.021484;
608601;0.031250;0.037109;1.023438;
608755;0.035156;0.037109;1.021484;
608895;0.034180;0.035156;1.026367;
609035;0.032227;0.041016;1.029297;
609170;0.032227;0.035156;1.035156;
609311;0.031250;0.036133;1.029297;
609455;0.030273;0.037109;1.030273;
609595;0.035156;0.036133;1.027344;
609735;0.033203;0.036133;1.028320;
609875;0.031250;0.037109;1.029297;
610015;0.033203;0.035156;1.030273;
610150;0.032227;0.032227;1.033203;
610305;0.028320;0.036133;1.032227;
610462;0.028320;0.037109;1.022461;
610623;0.026367;0.035156;1.020508;
610770;0.028320;0.041016;1.025391;
610925;0.024414;0.037109;1.025391;
611065;0.022461;0.039062;1.021484;
611205;0.024414;0.037109;1.009766;
611347;0.021484;0.037109;1.011719;
611505;0.022461;0.040039;1.008789;
611645;0.019531;0.039062;1.010742;
611785;0.021484;0.042969;1.005859;
611925;0.019531;0.037109;1.007812;
612060;0.020508;0.038086;1.008789;
612215;0.017578;0.038086;1.008789;
612355;0.015625;0.038086;1.012695;
612495;0.018555;0.039062;1.010742;
612645;0.018555;0.039062;1.005859;
612787;0.013672;0.037109;0.992188;
612941;0.014648;0.035156;0.988281;
613090;0.013672;0.036133;0.993164;
613251;0.014648;0.038086;1.010742;
613401;0.011719;0.038086;1.005859;
613561;0.009766;0.036133;0.988281;
613715;0.009766;0.036133;0.983398;
613855;0.008789;0.037109;0.986328;
614005;0.010742;0.038086;0.978516;
614145;0.006836;0.039062;0.973633;
614285;0.008789;0.039062;0.988281;
614425;0.004883;0.036133;0.977539;
614575;0.007812;0.038086;0.992188;
614715;0.005859;0.037109;0.974609;
614855;0.007812;0.039062;0.964844;
614995;0.002930;0.035156;0.978516;
615145;0.004883;0.034180;0.984375;
615285;-0.000977;0.037109;0.958984;
615425;0.005859;0.040039;0.977539;
615575;0.000977;0.036133;0.970703;
615721;0.002930;0.034180;0.965820;
615881;0.001953;0.039062;0.969727;
616041;-0.000977;0.037109;0.967773;
616185;-0.000977;0.036133;0.956055;
616321;-0.000977;0.038086;0.958008;
616471;-0.000977;0.036133;0.961914;
616615;-0.000977;0.036133;0.959961;
616755;-0.003906;0.037109;0.955078;
616895;0.000000;0.039062;0.963867;
617041;-0.002930;0.037109;0.954102;
617195;0.000000;0.039062;0.966797;
617345;-0.002930;0.032227;0.943359;
617485;-0.003906;0.039062;0.959961;
617620;-0.002930;0.037109;0.959961;
617775;-0.006836;0.037109;0.952148;
617925;-0.003906;0.037109;0.949219;
618065;-0.003906;0.033203;0.961914;
618211;-0.005859;0.038086;0.956055;
618365;-0.006836;0.034180;0.948242;
618505;-0.004883;0.034180;0.951172;
618631;-0.005859;0.033203;0.952148;
618770;-0.005859;0.034180;0.956055;
618930;-0.005859;0.035156;0.948242;
619091;-0.005859;0.036133;0.944336;
619255;-0.005859;0.037109;0.955078;
619395;-0.008789;0.034180;0.955078;
619532;-0.007812;0.032227;0.958008;
619675;-0.010742;0.036133;0.942383;
619815;-0.008789;0.033203;0.951172;
619955;-0.008789;0.040039;0.950195;
620095;-0.010742;0.036133;0.951172;
620235;-0.010742;0.035156;0.958984;
620375;-0.007812;0.032227;0.949219;
620515;-0.010742;0.033203;0.962891;
620661;-0.009766;0.037109;0.943359;
620815;-0.010742;0.036133;0.950195;
620955;-0.010742;0.033203;0.954102;
621095;-0.011719;0.037109;0.958008;
621231;-0.010742;0.038086;0.958984;
621391;-0.008789;0.035156;0.965820;
621541;-0.012695;0.039062;0.958008;
621690;-0.011719;0.036133;0.967773;
621841;-0.010742;0.035156;0.965820;
622005;-0.014648;0.037109;0.959961;
622145;-0.011719;0.037109;0.967773;
622285;-0.017578;0.035156;0.958008;
622415;-0.015625;0.036133;0.958008;
622550;-0.009766;0.030273;0.958008;
622695;-0.014648;0.031250;0.962891;
622835;-0.011719;0.035156;0.965820;
622975;-0.013672;0.033203;0.964844;
623115;-0.015625;0.034180;0.960938;
623262;-0.013672;0.036133;0.967773;
623415;-0.016602;0.037109;0.966797;
623555;-0.016602;0.034180;0.968750;
623695;-0.014648;0.033203;0.974609;
623830;-0.013672;0.037109;0.976562;
623980;-0.017578;0.033203;0.963867;
624142;-0.016602;0.037109;0.975586;
624300;-0.017578;0.038086;0.974609;
624452;-0.018555;0.032227;0.967773;
624605;-0.018555;0.036133;0.973633;
624745;-0.016602;0.032227;0.972656;
624885;-0.015625;0.037109;0.970703;
625030;-0.019531;0.037109;0.967773;
625185;-0.018555;0.037109;0.976562;
625335;-0.017578;0.034180;0.969727;
625475;-0.021484;0.038086;0.975586;
625611;-0.020508;0.031250;0.973633;
625765;-0.020508;0.031250;0.974609;
625905;-0.020508;0.035156;0.979492;
626045;-0.019531;0.031250;0.977539;
626195;-0.019531;0.033203;0.986328;
626335;-0.020508;0.032227;0.988281;
626490;-0.020508;0.034180;0.993164;
626651;-0.022461;0.035156;0.991211;
626810;-0.019531;0.035156;0.992188;
626965;-0.019531;0.037109;0.994141;
627115;-0.020508;0.039062;0.995117;
627255;-0.020508;0.041016;0.988281;
627395;-0.021484;0.039062;0.990234;
627535;-0.019531;0.033203;1.003906;
627675;-0.019531;0.033203;1.001953;
627815;-0.021484;0.041016;0.997070;
627955;-0.021484;0.040039;0.996094;
628091;-0.020508;0.036133;1.000977;
628245;-0.020508;0.036133;1.001953;
628385;-0.019531;0.039062;1.000977;
628525;-0.019531;0.034180;1.005859;
628661;-0.023438;0.036133;1.003906;
628805;-0.020508;0.034180;1.002930;
628971;-0.020508;0.032227;1.004883;
629121;-0.021484;0.034180;1.003906;
629281;-0.024414;0.035156;1.000000;
629430;-0.022461;0.034180;1.009766;
629575;-0.022461;0.033203;1.002930;
629715;-0.022461;0.034180;1.005859;
629855;-0.022461;0.033203;1.004883;
629993;-0.021484;0.031250;1.004883;
630135;-0.022461;0.032227;1.001953;
630275;-0.023438;0.031250;1.012695;
630415;-0.023438;0.031250;1.006836;
630561;-0.021484;0.033203;1.000977;
630715;-0.023438;0.035156;1.002930;
630865;-0.022461;0.036133;0.999023;
631005;-0.023438;0.034180;0.999023;
631141;-0.024414;0.034180;0.999023;
631295;-0.026367;0.038086;1.003906;
631440;-0.023438;0.036133;1.004883;
631590;-0.023438;0.039062;1.005859;
631752;-0.024414;0.038086;1.004883;
631905;-0.021484;0.039062;1.007812;
632031;-0.027344;0.036133;1.005859;
632161;-0.022461;0.037109;1.005859;
632315;-0.025391;0.033203;1.003906;
632455;-0.024414;0.037109;1.005859;
632605;-0.024414;0.035156;1.008789;
632741;-0.024414;0.034180;1.003906;
632895;-0.025391;0.035156;1.009766;
633035;-0.024414;0.034180;1.005859;
633175;-0.024414;0.031250;1.005859;
633311;-0.025391;0.030273;1.000000;
633465;-0.026367;0.032227;1.005859;
633615;-0.025391;0.033203;1.003906;
633757;-0.026367;0.032227;1.007812;
633982;-0.026367;0.032227;1.008789;
634220;-0.026367;0.030273;1.007812;
634455;-0.024414;0.032227;1.011719;
634675;-0.026367;0.033203;1.007812;
634885;-0.024414;0.037109;1.010742;
635097;-0.026367;0.034180;1.008789;
635335;-0.024414;0.036133;1.005859;
635545;-0.026367;0.038086;1.013672;
635761;-0.025391;0.037109;1.012695;
635975;-0.027344;0.036133;1.007812;
636195;-0.027344;0.034180;1.008789;
636406;-0.027344;0.034180;1.007812;
636635;-0.027344;0.035156;1.006836;
636845;-0.027344;0.037109;1.007812;
637060;-0.026367;0.033203;1.007812;
637295;-0.027344;0.031250;1.007812;
637510;-0.027344;0.030273;1.013672;
637741;-0.028320;0.034180;1.011719;
637995;-0.027344;0.031250;1.014648;
638205;-0.027344;0.032227;1.014648;
638421;-0.027344;0.031250;1.010742;
638655;-0.028320;0.031250;1.014648;
638865;-0.028320;0.037109;1.022461;
639071;-0.026367;0.035156;1.015625;
639280;-0.028320;0.036133;1.016602;
639490;-0.026367;0.035156;1.025391;
639715;-0.028320;0.034180;1.015625;
639925;-0.027344;0.035156;1.021484;
640141;-0.030273;0.033203;1.018555;
640365;-0.027344;0.033203;1.018555;
640575;-0.027344;0.034180;1.020508;
640792;-0.028320;0.029297;1.020508;
641031;-0.027344;0.032227;1.016602;
641277;-0.026367;0.032227;1.025391;
641515;-0.026367;0.031250;1.020508;
641725;-0.026367;0.032227;1.021484;
641931;-0.025391;0.032227;1.029297;
642155;-0.028320;0.034180;1.021484;
642365;-0.026367;0.033203;1.025391;
642582;-0.028320;0.032227;1.028320;
642795;-0.027344;0.033203;1.024414;
643005;-0.027344;0.034180;1.025391;
643225;-0.028320;0.034180;1.030273;
643435;-0.027344;0.036133;1.026367;
643645;-0.030273;0.031250;1.026367;
643865;-0.027344;0.032227;1.031250;
644075;-0.029297;0.031250;1.030273;
644281;-0.028320;0.029297;1.031250;
644502;-0.029297;0.032227;1.029297;
644742;-0.029297;0.033203;1.028320;
644985;-0.024414;0.033203;1.031250;
645190;-0.026367;0.033203;1.035156;
645415;-0.025391;0.031250;1.033203;
645625;-0.026367;0.034180;1.031250;
645841;-0.026367;0.034180;1.030273;
646085;-0.028320;0.036133;1.032227;
646295;-0.029297;0.036133;1.022461;
646501;-0.030273;0.035156;1.017578;
646715;-0.030273;0.035156;1.000977;
646925;-0.031250;0.033203;0.992188;
647140;-0.034180;0.034180;0.978516;
647355;-0.034180;0.032227;0.973633;
647565;-0.033203;0.034180;0.959961;
647781;-0.036133;0.034180;0.957031;
648011;-0.035156;0.036133;0.953125;
648245;-0.034180;0.032227;0.942383;
648455;-0.036133;0.032227;0.927734;
648681;-0.038086;0.030273;0.923828;
648925;-0.039062;0.034180;0.918945;
649135;-0.040039;0.033203;0.915039;
649351;-0.038086;0.035156;0.907227;
649575;-0.040039;0.035156;0.904297;
649785;-0.041992;0.033203;0.898438;
649990;-0.041016;0.036133;0.900391;
650205;-0.040039;0.035156;0.902344;
650425;-0.040039;0.037109;0.898438;
650641;-0.041992;0.034180;0.900391;
650875;-0.040039;0.031250;0.899414;
651085;-0.039062;0.032227;0.909180;
651300;-0.040039;0.034180;0.906250;
651515;-0.040039;0.039062;0.916992;
651725;-0.039062;0.034180;0.909180;
651931;-0.039062;0.035156;0.914062;
652163;-0.038086;0.035156;0.918945;
652400;-0.040039;0.034180;0.914062;
652645;-0.041016;0.036133;0.916016;
652862;-0.039062;0.036133;0.917969;
653085;-0.038086;0.037109;0.918945;
653295;-0.039062;0.036133;0.923828;
653512;-0.040039;0.037109;0.917969;
653735;-0.041992;0.036133;0.930664;
653945;-0.039062;0.037109;0.923828;
654155;-0.039062;0.031250;0.924805;
654365;-0.040039;0.031250;0.925781;
654575;-0.040039;0.031250;0.922852;
654795;-0.040039;0.034180;0.924805;
655015;-0.041016;0.034180;0.925781;
655225;-0.041016;0.031250;0.924805;
655460;-0.041016;0.032227;0.924805;
655691;-0.041016;0.037109;0.932617;
655930;-0.041992;0.037109;0.930664;
656155;-0.041016;0.035156;0.926758;
656365;-0.044922;0.034180;0.924805;
656571;-0.039062;0.038086;0.930664;
656805;-0.042969;0.039062;0.923828;
657025;-0.040039;0.038086;0.918945;
657231;-0.043945;0.037109;0.931641;
657445;-0.041992;0.036133;0.935547;
657665;-0.042969;0.039062;0.944336;
657875;-0.041016;0.038086;0.953125;
658095;-0.042969;0.035156;0.958984;
658305;-0.041992;0.033203;0.961914;
658515;-0.042969;0.034180;0.970703;
658735;-0.041992;0.036133;0.977539;
658951;-0.041992;0.031250;0.978516;
659182;-0.041016;0.034180;0.987305;
659420;-0.041992;0.034180;0.994141;
659645;-0.037109;0.034180;0.992188;
659855;-0.041016;0.032227;0.997070;
660065;-0.038086;0.037109;0.998047;
660275;-0.040039;0.034180;1.003906;
660495;-0.040039;0.034180;1.003906;
660710;-0.041992;0.035156;1.006836;
660925;-0.040039;0.036133;1.012695;
661135;-0.038086;0.033203;1.016602;
661345;-0.039062;0.039062;1.016602;
661555;-0.041016;0.037109;1.018555;
661775;-0.041016;0.031250;1.017578;
661995;-0.041992;0.038086;1.029297;
662205;-0.039062;0.036133;1.021484;
662411;-0.039062;0.035156;1.023438;
662641;-0.041016;0.034180;1.022461;
662881;-0.042969;0.033203;1.015625;
663105;-0.040039;0.032227;1.030273;
663315;-0.040039;0.033203;1.027344;
663532;-0.041992;0.033203;1.025391;
663755;-0.041992;0.032227;1.020508;
663965;-0.043945;0.037109;1.023438;
664170;-0.041992;0.038086;1.020508;
664405;-0.042969;0.034180;1.019531;
664615;-0.042969;0.034180;1.017578;
664835;-0.042969;0.038086;1.021484;
665055;-0.042969;0.038086;1.015625;
665265;-0.043945;0.035156;1.017578;
665485;-0.044922;0.034180;1.016602;
665705;-0.046875;0.031250;1.016602;
665915;-0.044922;0.036133;1.018555;
666130;-0.044922;0.031250;1.015625;
666361;-0.046875;0.035156;1.010742;
666601;-0.046875;0.035156;1.009766;
666821;-0.045898;0.033203;1.012695;
667035;-0.045898;0.036133;1.017578;
667245;-0.046875;0.035156;1.015625;
667451;-0.045898;0.039062;1.014648;
667675;-0.044922;0.040039;1.013672;
667895;-0.049805;0.037109;1.008789;
668115;-0.049805;0.033203;1.008789;
668325;-0.044922;0.035156;0.999023;
668535;-0.046875;0.037109;1.007812;
668755;-0.045898;0.036133;1.005859;
668965;-0.046875;0.035156;1.003906;
669175;-0.048828;0.033203;1.006836;
669381;-0.047852;0.033203;1.009766;
669595;-0.049805;0.032227;1.010742;
669812;-0.050781;0.036133;1.010742;
670051;-0.048828;0.035156;1.006836;
670292;-0.049805;0.038086;1.007812;
670515;-0.051758;0.041016;1.000000;
670725;-0.049805;0.038086;1.014648;
670931;-0.051758;0.035156;1.002930;
671155;-0.048828;0.039062;1.004883;
671365;-0.049805;0.032227;1.003906;
671580;-0.050781;0.036133;1.004883;
671805;-0.052734;0.036133;0.996094;
672025;-0.053711;0.037109;1.004883;
672245;-0.052734;0.035156;1.004883;
672455;-0.048828;0.040039;1.003906;
672675;-0.051758;0.035156;0.997070;
672895;-0.050781;0.038086;1.007812;
673105;-0.047852;0.037109;1.010742;
673323;-0.051758;0.037109;1.003906;
673563;-0.052734;0.032227;1.002930;
673791;-0.052734;0.033203;1.000977;
674015;-0.051758;0.035156;1.000000;
674225;-0.054688;0.037109;1.000977;
674435;-0.053711;0.040039;0.997070;
674655;-0.053711;0.035156;0.995117;
674865;-0.053711;0.037109;0.999023;
675085;-0.053711;0.035156;1.002930;
675315;-0.051758;0.035156;1.001953;
675525;-0.052734;0.041992;1.006836;
675742;-0.055664;0.036133;1.004883;
675985;-0.054688;0.041016;0.996094;
676195;-0.054688;0.036133;0.996094;
676405;-0.055664;0.038086;1.006836;
676625;-0.055664;0.041016;1.004883;
676842;-0.055664;0.037109;0.994141;
677070;-0.054688;0.038086;0.998047;
677311;-0.055664;0.037109;1.002930;
677525;-0.053711;0.037109;1.009766;
677735;-0.054688;0.034180;1.003906;
677945;-0.055664;0.037109;0.997070;
678175;-0.056641;0.038086;1.000977;
678385;-0.052734;0.037109;1.012695;
678591;-0.056641;0.033203;1.007812;
678825;-0.054688;0.037109;1.020508;
679035;-0.054688;0.036133;1.036133;
679251;-0.053711;0.036133;1.041016;
679485;-0.052734;0.037109;1.046875;
679705;-0.053711;0.039062;1.058594;
679911;-0.052734;0.041992;1.063477;
680152;-0.052734;0.041016;1.070312;
680390;-0.050781;0.041016;1.064453;
680631;-0.050781;0.038086;1.058594;
680871;-0.052734;0.036133;1.058594;
681085;-0.053711;0.036133;1.061523;
681295;-0.055664;0.036133;1.051758;
681505;-0.051758;0.035156;1.058594;
681711;-0.054688;0.034180;1.052734;
681935;-0.052734;0.030273;1.054688;
682145;-0.054688;0.032227;1.056641;
682351;-0.053711;0.031250;1.054688;
682565;-0.054688;0.032227;1.058594;
682775;-0.052734;0.032227;1.069336;
682981;-0.050781;0.031250;1.064453;
683215;-0.051758;0.035156;1.065430;
683425;-0.052734;0.035156;1.073242;
683642;-0.052734;0.031250;1.072266;
683880;-0.052734;0.033203;1.065430;
684121;-0.052734;0.034180;1.069336;
684365;-0.054688;0.036133;1.062500;
684585;-0.055664;0.037109;1.067383;
684795;-0.055664;0.039062;1.068359;
685015;-0.054688;0.038086;1.064453;
685225;-0.054688;0.039062;1.060547;
685435;-0.053711;0.036133;1.065430;
685650;-0.054688;0.038086;1.064453;
685875;-0.055664;0.039062;1.062500;
686085;-0.054688;0.039062;1.059570;
686302;-0.056641;0.038086;1.048828;
686525;-0.055664;0.038086;1.046875;
686735;-0.056641;0.038086;1.033203;
686950;-0.055664;0.038086;1.038086;
687185;-0.059570;0.036133;1.022461;
687403;-0.056641;0.034180;1.027344;
687631;-0.055664;0.036133;1.030273;
687861;-0.059570;0.035156;1.023438;
688105;-0.058594;0.033203;1.031250;
688315;-0.059570;0.032227;1.022461;
688530;-0.059570;0.035156;1.006836;
688765;-0.061523;0.034180;1.000000;
688975;-0.061523;0.041992;0.991211;
689180;-0.061523;0.039062;0.965820;
689415;-0.060547;0.036133;0.953125;
689625;-0.064453;0.038086;0.946289;
689831;-0.063477;0.036133;0.932617;
690065;-0.063477;0.040039;0.922852;
690275;-0.066406;0.036133;0.935547;
690491;-0.063477;0.037109;0.948242;
690735;-0.062500;0.034180;0.965820;
690955;-0.064453;0.038086;0.977539;
691170;-0.061523;0.034180;0.991211;
691410;-0.061523;0.035156;0.999023;
691642;-0.058594;0.031250;1.003906;
691881;-0.061523;0.032227;1.001953;
692105;-0.060547;0.031250;1.008789;
692315;-0.062500;0.037109;0.995117;
692532;-0.062500;0.035156;1.002930;
692755;-0.061523;0.037109;0.999023;
692965;-0.061523;0.032227;0.996094;
693180;-0.064453;0.040039;1.001953;
693405;-0.061523;0.043945;1.000000;
693615;-0.065430;0.044922;0.999023;
693831;-0.065430;0.043945;0.996094;
694065;-0.063477;0.047852;0.998047;
694275;-0.063477;0.041992;0.993164;
694482;-0.066406;0.041016;0.990234;
694717;-0.065430;0.041016;0.996094;
694951;-0.065430;0.035156;1.004883;
695160;-0.059570;0.034180;1.005859;
695391;-0.063477;0.039062;1.004883;
695635;-0.060547;0.034180;1.008789;
695855;-0.062500;0.041016;1.008789;
696066;-0.060547;0.040039;1.020508;
696285;-0.060547;0.039062;1.023438;
696495;-0.060547;0.034180;1.034180;
696705;-0.061523;0.041016;1.042969;
696925;-0.061523;0.036133;1.040039;
697135;-0.059570;0.036133;1.029297;
697340;-0.060547;0.034180;1.029297;
697565;-0.062500;0.038086;1.014648;
697775;-0.062500;0.038086;1.020508;
697985;-0.062500;0.040039;1.022461;
698205;-0.063477;0.038086;1.016602;
698415;-0.062500;0.037109;1.009766;
698631;-0.064453;0.036133;1.015625;
698861;-0.063477;0.039062;1.020508;
699091;-0.062500;0.038086;1.027344;
699315;-0.065430;0.039062;1.021484;
699521;-0.063477;0.038086;1.029297;
699755;-0.064453;0.040039;1.022461;
699965;-0.064453;0.040039;1.031250;
700171;-0.064453;0.039062;1.031250;
700405;-0.063477;0.033203;1.030273;
700615;-0.067383;0.036133;1.029297;
700825;-0.066406;0.032227;1.032227;
701030;-0.065430;0.028320;1.023438;
701255;-0.065430;0.026367;1.015625;
701465;-0.066406;0.026367;1.025391;
701675;-0.065430;0.027344;1.023438;
701881;-0.062500;0.040039;1.049805;
702105;-0.061523;0.038086;1.054688;
702310;-0.065430;0.036133;1.034180;
702541;-0.062500;0.034180;1.027344;
702772;-0.071289;0.031250;1.026367;
703001;-0.065430;0.031250;1.035156;
703225;-0.064453;0.039062;1.049805;
703446;-0.069336;0.030273;1.050781;
703685;-0.061523;0.029297;1.083008;
703895;-0.064453;0.034180;1.085938;
704101;-0.065430;0.034180;1.092773;
704335;-0.066406;0.029297;1.101562;
704545;-0.065430;0.041992;1.094727;
704760;-0.067383;0.033203;1.098633;
704995;-0.066406;0.027344;1.108398;
705205;-0.066406;0.041992;1.105469;
705425;-0.067383;0.038086;1.095703;
705655;-0.068359;0.039062;1.105469;
705865;-0.065430;0.032227;1.102539;
706085;-0.072266;0.045898;1.102539;
706301;-0.071289;0.042969;1.087891;
706540;-0.071289;0.031250;1.074219;
706781;-0.067383;0.038086;1.086914;
707021;-0.069336;0.045898;1.098633;
707265;-0.065430;0.035156;1.083984;
707475;-0.071289;0.028320;1.084961;
707705;-0.071289;0.029297;1.063477;
707925;-0.066406;0.031250;1.074219;
708131;-0.070312;0.042969;1.075195;
708375;-0.069336;0.034180;1.053711;
708585;-0.074219;0.034180;1.075195;
708791;-0.072266;0.044922;1.049805;
709025;-0.070312;0.033203;1.037109;
709235;-0.074219;0.027344;1.020508;
709451;-0.074219;0.040039;0.994141;
709685;-0.080078;0.049805;1.004883;
709905;-0.077148;0.040039;0.997070;
710111;-0.080078;0.033203;0.977539;
710332;-0.077148;0.031250;0.982422;
710573;-0.080078;0.019531;0.981445;
710811;-0.075195;0.026367;0.973633;
711055;-0.078125;0.022461;0.999023;
711265;-0.079102;0.027344;1.006836;
711475;-0.077148;0.026367;1.022461;
711685;-0.076172;0.022461;1.026367;
711895;-0.079102;0.026367;0.998047;
712105;-0.084961;0.035156;1.020508;
712315;-0.075195;0.041992;1.036133;
712525;-0.076172;0.044922;1.059570;
712745;-0.074219;0.041016;1.053711;
712975;-0.075195;0.041992;1.049805;
713185;-0.072266;0.037109;1.048828;
713395;-0.077148;0.033203;1.055664;
713615;-0.079102;0.040039;1.062500;
713820;-0.076172;0.037109;1.080078;
714050;-0.077148;0.036133;1.097656;
714281;-0.073242;0.033203;1.129883;
714525;-0.073242;0.035156;1.149414;
714745;-0.070312;0.017578;1.155273;
714960;-0.073242;0.024414;1.163086;
715185;-0.067383;0.014648;1.157227;
715395;-0.071289;0.018555;1.175781;
715611;-0.070312;0.023438;1.197266;
715845;-0.067383;0.027344;1.183594;
716065;-0.070312;0.024414;1.188477;
716280;-0.069336;0.023438;1.151367;
716525;-0.073242;0.023438;1.152344;
716735;-0.077148;0.032227;1.132812;
716952;-0.074219;0.025391;1.099609;
717165;-0.078125;0.016602;1.073242;
717375;-0.079102;0.015625;1.057617;
717592;-0.079102;0.013672;1.055664;
717831;-0.077148;0.011719;1.029297;
718072;-0.081055;0.008789;1.000977;
718311;-0.085938;0.008789;0.960938;
718545;-0.088867;0.005859;0.901367;
718765;-0.089844;0.005859;0.895508;
718981;-0.086914;0.005859;0.878906;
719195;-0.085938;0.002930;0.878906;
719405;-0.087891;0.005859;0.899414;
719610;-0.087891;0.009766;0.901367;
719825;-0.088867;0.010742;0.922852;
720045;-0.084961;0.013672;0.953125;
720255;-0.083008;0.016602;0.969727;
720475;-0.087891;0.011719;0.974609;
720685;-0.083984;0.015625;1.008789;
720891;-0.082031;0.019531;1.013672;
721135;-0.083984;0.013672;1.020508;
721351;-0.083984;0.012695;1.025391;
721570;-0.080078;0.015625;1.032227;
721811;-0.080078;0.019531;1.036133;
722045;-0.083984;0.015625;1.032227;
722265;-0.082031;0.020508;1.041992;
722470;-0.083008;0.016602;1.039062;
722705;-0.082031;0.018555;1.054688;
722915;-0.081055;0.020508;1.049805;
723121;-0.079102;0.016602;1.043945;
723345;-0.081055;0.019531;1.047852;
723555;-0.082031;0.019531;1.046875;
723761;-0.083008;0.019531;1.039062;
723995;-0.083008;0.019531;1.033203;
724205;-0.083984;0.019531;1.049805;
724410;-0.083008;0.019531;1.054688;
724635;-0.079102;0.020508;1.061523;
724852;-0.082031;0.014648;1.054688;
725081;-0.082031;0.015625;1.065430;
725321;-0.082031;0.019531;1.074219;
725561;-0.082031;0.017578;1.089844;
725775;-0.080078;0.018555;1.113281;
725985;-0.079102;0.016602;1.148438;
726205;-0.074219;0.012695;1.164062;
726415;-0.074219;0.016602;1.189453;
726625;-0.075195;0.015625;1.200195;
726845;-0.075195;0.016602;1.198242;
727055;-0.078125;0.020508;1.164062;
727261;-0.078125;0.013672;1.125977;
727495;-0.080078;0.017578;1.099609;
727705;-0.082031;0.017578;1.080078;
727910;-0.083008;0.016602;1.052734;
728131;-0.085938;0.018555;1.036133;
728355;-0.083008;0.019531;1.027344;
728565;-0.083008;0.019531;1.028320;
728781;-0.085938;0.015625;1.027344;
729000;-0.082031;0.022461;1.041016;
729231;-0.085938;0.024414;1.047852;
729445;-0.082031;0.014648;1.070312;
729667;-0.080078;0.008789;1.072266;
729895;-0.080078;0.006836;1.088867;
730105;-0.079102;0.013672;1.090820;
730310;-0.082031;0.011719;1.105469;
730535;-0.078125;0.019531;1.100586;
730755;-0.077148;0.028320;1.103516;
730970;-0.083984;0.037109;1.096680;
731195;-0.084961;0.039062;1.105469;
731405;-0.081055;0.046875;1.133789;
731621;-0.083008;0.040039;1.129883;
731845;-0.080078;0.035156;1.119141;
732055;-0.079102;0.036133;1.133789;
732261;-0.078125;0.032227;1.123047;
732500;-0.082031;0.027344;1.084961;
732741;-0.082031;0.022461;1.097656;
732971;-0.079102;0.019531;1.104492;
733205;-0.081055;0.002930;1.103516;
733415;-0.082031;0.003906;1.098633;
733625;-0.079102;-0.002930;1.088867;
733845;-0.079102;-0.002930;1.079102;
734055;-0.078125;0.001953;1.081055;
734261;-0.081055;0.005859;1.086914;
734495;-0.082031;0.010742;1.085938;
734705;-0.080078;0.015625;1.093750;
734911;-0.080078;0.021484;1.093750;
735135;-0.081055;0.021484;1.095703;
735345;-0.083008;0.022461;1.070312;
735555;-0.083008;0.025391;1.041992;
735762;-0.083984;0.017578;0.996094;
735995;-0.084961;0.013672;0.945312;
736201;-0.090820;0.016602;0.912109;
736440;-0.087891;0.014648;0.885742;
736681;-0.092773;0.015625;0.884766;
736915;-0.091797;0.012695;0.888672;
737125;-0.088867;0.008789;0.899414;
737335;-0.086914;0.013672;0.943359;
737555;-0.086914;0.013672;0.958984;
737775;-0.084961;0.014648;0.989258;
737985;-0.084961;0.015625;1.000977;
738205;-0.086914;0.015625;1.034180;
738425;-0.083984;0.017578;1.050781;
738635;-0.082031;0.015625;1.059570;
738845;-0.081055;0.017578;1.064453;
739065;-0.083008;0.014648;1.062500;
739275;-0.083008;0.015625;1.070312;
739485;-0.083008;0.009766;1.061523;
739705;-0.083984;0.011719;1.055664;
739921;-0.082031;0.020508;1.064453;
740150;-0.080078;0.018555;1.058594;
740391;-0.083008;0.018555;1.055664;
740625;-0.082031;0.017578;1.047852;
740835;-0.083984;0.013672;1.034180;
741045;-0.087891;0.016602;1.043945;
741275;-0.083008;0.013672;1.031250;
741485;-0.084961;0.008789;1.012695;
741707;-0.085938;0.015625;1.024414;
741945;-0.081055;0.007812;1.026367;
742165;-0.085938;0.010742;1.043945;
742376;-0.083008;0.014648;1.047852;
742605;-0.085938;0.022461;1.049805;
742825;-0.083008;0.013672;1.048828;
743031;-0.086914;0.016602;1.049805;
743265;-0.081055;0.023438;1.059570;
743501;-0.082031;0.022461;1.050781;
743741;-0.082031;0.016602;1.024414;
743975;-0.081055;0.019531;1.010742;
744185;-0.091797;0.019531;0.973633;
744395;-0.085938;0.024414;0.971680;
744615;-0.088867;0.021484;0.973633;
744825;-0.089844;0.024414;0.955078;
745035;-0.087891;0.021484;0.961914;
745245;-0.085938;0.015625;0.982422;
745455;-0.086914;0.006836;0.992188;
745675;-0.080078;0.006836;1.037109;
745885;-0.081055;0.014648;1.060547;
746115;-0.083008;0.014648;1.082031;
746325;-0.083008;0.013672;1.094727;
746535;-0.081055;0.012695;1.107422;
746742;-0.080078;0.013672;1.119141;
746971;-0.080078;0.010742;1.110352;
747220;-0.080078;0.010742;1.092773;
747460;-0.080078;0.010742;1.073242;
747685;-0.083008;0.018555;1.049805;
747895;-0.088867;0.018555;1.023438;
748115;-0.087891;0.017578;0.998047;
748325;-0.090820;0.016602;0.968750;
748535;-0.088867;0.019531;0.960938;
748755;-0.090820;0.016602;0.942383;
748965;-0.092773;0.019531;0.936523;
749187;-0.091797;0.020508;0.939453;
749415;-0.089844;0.014648;0.940430;
749625;-0.089844;0.019531;0.956055;
749830;-0.093750;0.013672;0.961914;
750045;-0.091797;0.017578;0.971680;
750265;-0.087891;0.013672;0.976562;
750481;-0.087891;0.021484;0.999023;
750721;-0.087891;0.016602;0.995117;
750960;-0.089844;0.015625;1.010742;
751205;-0.086914;0.008789;0.991211;
751425;-0.084961;0.019531;0.997070;
751635;-0.085938;0.016602;0.999023;
751855;-0.088867;0.012695;1.000000;
752075;-0.087891;0.015625;1.018555;
752285;-0.086914;0.014648;1.030273;
752505;-0.083984;0.016602;1.072266;
752725;-0.083008;0.008789;1.074219;
752945;-0.083008;0.004883;1.097656;
753165;-0.083008;0.008789;1.108398;
753375;-0.082031;0.006836;1.108398;
753595;-0.083984;0.009766;1.116211;
753825;-0.081055;0.013672;1.113281;
754030;-0.084961;0.010742;1.111328;
754261;-0.084961;0.014648;1.110352;
754501;-0.083008;0.018555;1.100586;
754741;-0.084961;0.015625;1.080078;
754965;-0.081055;0.013672;1.094727;
755175;-0.083008;0.017578;1.091797;
755380;-0.083984;0.009766;1.086914;
755605;-0.084961;0.010742;1.107422;
755825;-0.082031;0.010742;1.106445;
756031;-0.083984;0.013672;1.096680;
756255;-0.083008;0.008789;1.098633;
756465;-0.084961;0.007812;1.103516;
756681;-0.083008;0.012695;1.112305;
756905;-0.084961;0.013672;1.117188;
757125;-0.083984;0.009766;1.106445;
757345;-0.085938;0.007812;1.093750;
757562;-0.085938;0.011719;1.099609;
757791;-0.081055;0.009766;1.110352;
758031;-0.082031;0.020508;1.125977;
758265;-0.083008;0.014648;1.096680;
758475;-0.083984;0.016602;1.064453;
758685;-0.085938;0.018555;1.037109;
758905;-0.090820;0.027344;0.999023;
759125;-0.092773;0.025391;0.965820;
759335;-0.092773;0.026367;0.956055;
759555;-0.091797;0.028320;0.961914;
759775;-0.089844;0.018555;0.971680;
759985;-0.089844;0.018555;0.985352;
760195;-0.086914;0.007812;0.988281;
760415;-0.089844;0.006836;1.007812;
760625;-0.086914;0.006836;1.045898;
760841;-0.086914;0.009766;1.078125;
761085;-0.080078;0.006836;1.106445;
761312;-0.083984;0.006836;1.112305;
761541;-0.083008;0.012695;1.126953;
761782;-0.082031;0.022461;1.134766;
761995;-0.079102;0.004883;1.126953;
762205;-0.077148;0.013672;1.128906;
762413;-0.084961;0.023438;1.118164;
762645;-0.083008;0.026367;1.091797;
762855;-0.083984;0.018555;1.059570;
763072;-0.084961;0.021484;1.042969;
763305;-0.086914;0.019531;1.007812;
763515;-0.085938;0.017578;1.000000;
763725;-0.088867;0.011719;0.996094;
763935;-0.083984;0.011719;0.989258;
764145;-0.086914;0.016602;1.000000;
764365;-0.083984;0.020508;1.000000;
764575;-0.082031;0.018555;0.999023;
764790;-0.083984;0.017578;1.000977;
765031;-0.085938;0.019531;0.999023;
765271;-0.087891;0.026367;0.991211;
765485;-0.085938;0.025391;0.990234;
765691;-0.087891;0.023438;0.991211;
765915;-0.084961;0.025391;0.978516;
766135;-0.085938;0.029297;0.984375;
766355;-0.084961;0.025391;0.985352;
766575;-0.087891;0.028320;0.989258;
766785;-0.083984;0.027344;0.991211;
767005;-0.087891;0.028320;1.013672;
767215;-0.082031;0.022461;1.026367;
767425;-0.082031;0.021484;1.041992;
767645;-0.083008;0.015625;1.067383;
767865;-0.080078;0.011719;1.086914;
768077;-0.078125;0.006836;1.106445;
768315;-0.078125;0.011719;1.120117;
768532;-0.076172;0.011719;1.136719;
768763;-0.075195;0.021484;1.146484;
768991;-0.080078;0.024414;1.147461;
769220;-0.079102;0.026367;1.148438;
769445;-0.077148;0.027344;1.148438;
769665;-0.075195;0.028320;1.149414;
769881;-0.078125;0.027344;1.133789;
770115;-0.076172;0.022461;1.125000;
770325;-0.080078;0.024414;1.112305;
770540;-0.078125;0.026367;1.118164;
770751;-0.077148;0.022461;1.109375;
770965;-0.078125;0.024414;1.100586;
771175;-0.078125;0.030273;1.113281;
771381;-0.079102;0.021484;1.094727;
771605;-0.081055;0.023438;1.086914;
771815;-0.079102;0.022461;1.083984;
772030;-0.083984;0.026367;1.071289;
772255;-0.083008;0.024414;1.046875;
772482;-0.083984;0.023438;1.022461;
772711;-0.085938;0.025391;0.981445;
772950;-0.087891;0.021484;0.961914;
773195;-0.083984;0.028320;0.949219;
773405;-0.087891;0.024414;0.942383;
773625;-0.085938;0.019531;0.933594;
773835;-0.088867;0.025391;0.951172;
774045;-0.088867;0.024414;0.958008;
774265;-0.086914;0.025391;0.958984;
774485;-0.085938;0.018555;0.969727;
774697;-0.085938;0.020508;0.991211;
774925;-0.086914;0.022461;0.998047;
775135;-0.084961;0.022461;1.006836;
775351;-0.084961;0.026367;1.028320;
775565;-0.081055;0.026367;1.056641;
775775;-0.083984;0.025391;1.073242;
775981;-0.080078;0.023438;1.078125;
776211;-0.079102;0.019531;1.091797;
776450;-0.080078;0.019531;1.091797;
776672;-0.077148;0.016602;1.106445;
776901;-0.078125;0.019531;1.105469;
777135;-0.077148;0.021484;1.111328;
777345;-0.077148;0.023438;1.099609;
777550;-0.081055;0.016602;1.091797;
777785;-0.077148;0.026367;1.088867;
777995;-0.078125;0.020508;1.098633;
778210;-0.078125;0.018555;1.084961;
778435;-0.080078;0.022461;1.078125;
778645;-0.082031;0.020508;1.081055;
778865;-0.079102;0.023438;1.079102;
779075;-0.077148;0.020508;1.081055;
779285;-0.078125;0.021484;1.083008;
779495;-0.078125;0.026367;1.079102;
779715;-0.081055;0.026367;1.084961;
779941;-0.077148;0.019531;1.071289;
780180;-0.078125;0.023438;1.076172;
780420;-0.078125;0.024414;1.072266;
780655;-0.080078;0.024414;1.052734;
780865;-0.082031;0.025391;1.045898;
781080;-0.081055;0.022461;1.033203;
781305;-0.083984;0.021484;1.028320;
781515;-0.082031;0.023438;1.015625;
781725;-0.080078;0.022461;1.012695;
781935;-0.082031;0.021484;1.001953;
782145;-0.083984;0.016602;1.008789;
782365;-0.083984;0.022461;1.004883;
782575;-0.081055;0.023438;1.012695;
782781;-0.082031;0.023438;1.004883;
783005;-0.081055;0.021484;1.015625;
783225;-0.083008;0.022461;1.011719;
783430;-0.082031;0.022461;1.011719;
783660;-0.082031;0.022461;1.005859;
783901;-0.081055;0.025391;1.017578;
784145;-0.079102;0.026367;1.013672;
784365;-0.080078;0.020508;1.006836;
784575;-0.082031;0.024414;1.003906;
784795;-0.081055;0.026367;1.002930;
785005;-0.080078;0.028320;0.997070;
785215;-0.083008;0.024414;0.986328;
785435;-0.080078;0.024414;0.986328;
785645;-0.082031;0.025391;0.981445;
785850;-0.082031;0.023438;0.975586;
786065;-0.080078;0.024414;0.977539;
786275;-0.083008;0.020508;0.987305;
786491;-0.076172;0.022461;1.000977;
786705;-0.080078;0.027344;1.007812;
786915;-0.079102;0.024414;1.011719;
787131;-0.078125;0.019531;1.025391;
787373;-0.076172;0.028320;1.034180;
787611;-0.082031;0.027344;1.025391;
787830;-0.079102;0.026367;1.019531;
788045;-0.078125;0.029297;1.024414;
788255;-0.080078;0.024414;1.014648;
788460;-0.080078;0.023438;1.009766;
788695;-0.079102;0.023438;1.011719;
788905;-0.081055;0.023438;0.996094;
789121;-0.080078;0.024414;0.987305;
789345;-0.083984;0.023438;0.991211;
789555;-0.082031;0.011719;1.000977;
789775;-0.077148;0.017578;1.013672;
789985;-0.078125;0.012695;1.010742;
790195;-0.082031;0.003906;1.021484;
790415;-0.080078;0.014648;1.022461;
790635;-0.078125;0.020508;1.048828;
790840;-0.072266;0.025391;1.054688;
791070;-0.074219;0.027344;1.073242;
791311;-0.078125;0.029297;1.041992;
791545;-0.082031;0.025391;1.029297;
791775;-0.079102;0.025391;1.022461;
791985;-0.080078;0.024414;1.015625;
792201;-0.077148;0.028320;1.022461;
792415;-0.082031;0.009766;0.983398;
792625;-0.082031;0.008789;0.952148;
792835;-0.082031;0.019531;0.938477;
793055;-0.081055;0.034180;0.937500;
793272;-0.082031;0.019531;0.974609;
793505;-0.079102;0.021484;1.041016;
793715;-0.070312;0.024414;1.116211;
793920;-0.064453;0.029297;1.185547;
794135;-0.065430;0.016602;1.222656;
794345;-0.067383;0.022461;1.223633;
794560;-0.066406;0.015625;1.182617;
794791;-0.069336;0.018555;1.116211;
795022;-0.076172;0.013672;1.035156;
795255;-0.083984;0.018555;0.973633;
795465;-0.083008;0.027344;0.934570;
795671;-0.085938;0.034180;0.906250;
795895;-0.084961;0.031250;0.929688;
796105;-0.081055;0.025391;0.972656;
796320;-0.079102;0.027344;1.027344;
796525;-0.074219;0.033203;1.041016;
796735;-0.076172;0.030273;1.055664;
796941;-0.073242;0.029297;1.067383;
797155;-0.072266;0.018555;1.071289;
797375;-0.075195;0.022461;1.043945;
797586;-0.073242;0.015625;1.023438;
797805;-0.072266;0.017578;1.019531;
798011;-0.069336;0.020508;1.045898;
798251;-0.069336;0.021484;1.068359;
798492;-0.064453;0.013672;1.102539;
798725;-0.059570;0.026367;1.128906;
798935;-0.055664;0.019531;1.151367;
799141;-0.049805;0.026367;1.177734;
799375;-0.044922;0.018555;1.199219;
799585;-0.039062;0.016602;1.201172;
799791;-0.038086;0.021484;1.174805;
800025;-0.036133;0.031250;1.145508;
800245;-0.034180;0.017578;1.105469;
800461;-0.029297;0.019531;1.083008;
800685;-0.028320;0.026367;1.039062;
800895;-0.033203;0.028320;1.010742;
801100;-0.035156;0.026367;0.979492;
801315;-0.039062;0.028320;0.961914;
801525;-0.040039;0.030273;0.961914;
801742;-0.042969;0.025391;0.948242;
801970;-0.038086;0.032227;0.973633;
802211;-0.038086;0.030273;0.997070;
802435;-0.037109;0.023438;1.035156;
802642;-0.038086;0.025391;1.067383;
802855;-0.037109;0.025391;1.107422;
803065;-0.033203;0.024414;1.129883;
803270;-0.033203;0.018555;1.153320;
803495;-0.032227;0.022461;1.157227;
803705;-0.032227;0.019531;1.147461;
803915;-0.035156;0.020508;1.125977;
804135;-0.033203;0.018555;1.119141;
804355;-0.033203;0.027344;1.114258;
804575;-0.033203;0.021484;1.101562;
804785;-0.029297;0.027344;1.110352;
804995;-0.023438;0.028320;1.128906;
805227;-0.019531;0.025391;1.136719;
805463;-0.018555;0.024414;1.154297;
805700;-0.015625;0.023438;1.157227;
805935;-0.012695;0.016602;1.171875;
806145;-0.008789;0.027344;1.187500;
806355;-0.011719;0.024414;1.176758;
806575;-0.010742;0.024414;1.171875;
806795;-0.014648;0.023438;1.154297;
807005;-0.012695;0.027344;1.134766;
807225;-0.011719;0.023438;1.141602;
807445;-0.012695;0.026367;1.109375;
807655;-0.015625;0.025391;1.088867;
807875;-0.015625;0.024414;1.056641;
808085;-0.020508;0.026367;1.013672;
808295;-0.026367;0.028320;0.972656;
808511;-0.023438;0.024414;0.928711;
808727;-0.027344;0.025391;0.905273;
808961;-0.026367;0.024414;0.894531;
809202;-0.028320;0.021484;0.894531;
809435;-0.027344;0.029297;0.903320;
809645;-0.027344;0.024414;0.914062;
809865;-0.026367;0.020508;0.951172;
810085;-0.026367;0.026367;0.976562;
810295;-0.023438;0.026367;1.023438;
810505;-0.021484;0.026367;1.055664;
810715;-0.017578;0.026367;1.086914;
810925;-0.014648;0.030273;1.101562;
811135;-0.017578;0.024414;1.093750;
811345;-0.016602;0.021484;1.066406;
811565;-0.013672;0.028320;1.052734;
811775;-0.014648;0.023438;1.019531;
811985;-0.016602;0.028320;1.008789;
812205;-0.009766;0.018555;1.032227;
812421;-0.008789;0.025391;1.047852;
812652;-0.006836;0.021484;1.067383;
812885;-0.008789;0.022461;1.090820;
813095;-0.001953;0.021484;1.125977;
813315;-0.005859;0.023438;1.134766;
813525;-0.004883;0.023438;1.148438;
813735;-0.002930;0.025391;1.134766;
813945;-0.004883;0.024414;1.140625;
814155;-0.007812;0.022461;1.120117;
814365;-0.007812;0.024414;1.087891;
814575;-0.009766;0.020508;1.076172;
814785;-0.011719;0.024414;1.046875;
814995;-0.011719;0.024414;1.042969;
815205;-0.017578;0.029297;1.012695;
815415;-0.018555;0.028320;1.006836;
815635;-0.012695;0.021484;1.009766;
815851;-0.013672;0.020508;1.002930;
816080;-0.016602;0.025391;1.009766;
816325;-0.016602;0.017578;1.019531;
816535;-0.011719;0.025391;1.030273;
816745;-0.012695;0.018555;1.039062;
816955;-0.010742;0.022461;1.037109;
817165;-0.010742;0.026367;1.045898;
817375;-0.017578;0.019531;1.022461;
817585;-0.014648;0.023438;1.021484;
817795;-0.013672;0.024414;1.021484;
818005;-0.017578;0.027344;1.008789;
818225;-0.016602;0.022461;1.001953;
818435;-0.018555;0.027344;1.007812;
818655;-0.017578;0.025391;1.014648;
818865;-0.018555;0.024414;1.014648;
819075;-0.014648;0.023438;1.015625;
819291;-0.016602;0.025391;1.027344;
819531;-0.015625;0.024414;1.029297;
819750;-0.015625;0.027344;1.043945;
819985;-0.018555;0.022461;1.047852;
820195;-0.015625;0.026367;1.051758;
820415;-0.014648;0.022461;1.050781;
820635;-0.017578;0.027344;1.055664;
820845;-0.014648;0.025391;1.077148;
821065;-0.014648;0.028320;1.077148;
821275;-0.014648;0.030273;1.081055;
821485;-0.012695;0.026367;1.089844;
821705;-0.011719;0.023438;1.076172;
821915;-0.016602;0.022461;1.068359;
822135;-0.013672;0.020508;1.070312;
822345;-0.012695;0.018555;1.072266;
822555;-0.008789;0.020508;1.061523;
822765;-0.009766;0.028320;1.052734;
822982;-0.006836;0.027344;1.054688;
823220;-0.007812;0.027344;1.059570;
823465;-0.006836;0.024414;1.064453;
823675;-0.008789;0.032227;1.056641;
823885;-0.007812;0.027344;1.048828;
824095;-0.009766;0.025391;1.014648;
824305;-0.005859;0.022461;1.015625;
824515;-0.001953;0.026367;1.002930;
824725;0.002930;0.022461;0.975586;
824945;0.004883;0.025391;0.982422;
825155;0.001953;0.022461;0.972656;
825365;0.000977;0.025391;0.983398;
825575;-0.001953;0.024414;0.986328;
825795;-0.000977;0.023438;0.990234;
826005;-0.001953;0.026367;0.997070;
826215;-0.004883;0.021484;0.986328;
826430;-0.001953;0.023438;0.997070;
826661;-0.001953;0.024414;0.990234;
826895;-0.003906;0.023438;0.985352;
827115;-0.003906;0.024414;1.001953;
827325;-0.001953;0.025391;1.010742;
827535;-0.001953;0.022461;1.020508;
827745;-0.002930;0.024414;1.024414;
827955;-0.001953;0.022461;1.029297;
828165;-0.001953;0.025391;1.041992;
828375;0.000977;0.024414;1.063477;
828585;0.000977;0.026367;1.095703;
828795;0.001953;0.026367;1.113281;
829015;0.005859;0.024414;1.142578;
829225;0.004883;0.023438;1.128906;
829445;0.002930;0.025391;1.138672;
829651;0.004883;0.019531;1.125000;
829881;0.006836;0.026367;1.125000;
830121;0.009766;0.025391;1.126953;
830335;0.009766;0.025391;1.100586;
830555;0.009766;0.026367;1.103516;
830765;0.013672;0.023438;1.102539;
830975;0.010742;0.030273;1.095703;
831185;0.015625;0.022461;1.099609;
831395;0.012695;0.025391;1.093750;
831605;0.008789;0.019531;1.074219;
831825;0.009766;0.022461;1.080078;
832035;0.009766;0.024414;1.092773;
832245;0.010742;0.025391;1.078125;
832455;0.011719;0.026367;1.079102;
832665;0.008789;0.028320;1.075195;
832875;0.009766;0.024414;1.046875;
833085;0.003906;0.018555;1.008789;
833300;0.004883;0.020508;0.985352;
833531;0.004883;0.027344;0.949219;
833775;0.004883;0.027344;0.947266;
833995;0.003906;0.032227;0.953125;
834215;0.008789;0.028320;0.976562;
834425;0.011719;0.019531;1.001953;
834635;0.020508;0.026367;1.022461;
834845;0.023438;0.019531;1.042969;
835055;0.026367;0.024414;1.059570;
835265;0.024414;0.021484;1.073242;
835475;0.025391;0.022461;1.075195;
835685;0.024414;0.024414;1.076172;
835905;0.022461;0.026367;1.069336;
836115;0.019531;0.023438;1.041992;
836325;0.015625;0.023438;1.015625;
836545;0.016602;0.028320;0.995117;
836760;0.012695;0.024414;0.976562;
836970;0.014648;0.025391;0.950195;
837210;0.010742;0.025391;0.929688;
837435;0.010742;0.025391;0.936523;
837645;0.010742;0.023438;0.924805;
837855;0.009766;0.019531;0.932617;
838065;0.015625;0.027344;0.934570;
838275;0.008789;0.024414;0.953125;
838485;0.012695;0.021484;0.952148;
838695;0.009766;0.028320;0.956055;
838905;0.015625;0.026367;0.967773;
839115;0.012695;0.027344;0.970703;
839325;0.014648;0.025391;0.973633;
839535;0.010742;0.025391;0.977539;
839745;0.011719;0.024414;0.986328;
839955;0.014648;0.024414;0.997070;
840165;0.014648;0.026367;1.017578;
840370;0.015625;0.021484;1.013672;
840601;0.018555;0.022461;1.042969;
840845;0.018555;0.022461;1.060547;
841055;0.019531;0.025391;1.075195;
841265;0.020508;0.019531;1.089844;
841485;0.018555;0.024414;1.089844;
841695;0.019531;0.024414;1.105469;
841915;0.018555;0.023438;1.101562;
842125;0.017578;0.021484;1.083984;
842335;0.017578;0.024414;1.088867;
842545;0.016602;0.021484;1.065430;
842755;0.014648;0.021484;1.049805;
842965;0.014648;0.025391;1.041016;
843175;0.012695;0.027344;1.021484;
843385;0.016602;0.023438;1.021484;
843595;0.013672;0.024414;1.006836;
843810;0.015625;0.022461;1.007812;
844041;0.013672;0.019531;1.010742;
844271;0.011719;0.021484;1.015625;
844505;0.013672;0.019531;1.019531;
844715;0.011719;0.023438;1.033203;
844925;0.014648;0.024414;1.032227;
845145;0.014648;0.028320;1.035156;
845355;0.011719;0.030273;1.053711;
845565;0.016602;0.027344;1.070312;
845775;0.018555;0.028320;1.087891;
845985;0.018555;0.028320;1.091797;
846195;0.017578;0.027344;1.104492;
846405;0.018555;0.033203;1.103516;
846615;0.019531;0.027344;1.074219;
846825;0.018555;0.021484;1.051758;
847035;0.016602;0.024414;1.031250;
847245;0.016602;0.025391;1.004883;
847460;0.016602;0.021484;0.984375;
847681;0.016602;0.030273;0.952148;
847895;0.010742;0.022461;0.945312;
848105;0.014648;0.024414;0.925781;
848315;0.013672;0.024414;0.941406;
848535;0.009766;0.023438;0.939453;
848745;0.009766;0.027344;0.943359;
848965;0.010742;0.023438;0.959961;
849175;0.011719;0.029297;0.987305;
849385;0.011719;0.028320;1.014648;
849595;0.010742;0.024414;1.010742;
849805;0.011719;0.022461;1.025391;
850015;0.008789;0.024414;1.047852;
850235;0.005859;0.026367;1.028320;
850445;0.005859;0.025391;1.011719;
850655;0.005859;0.024414;1.008789;
850877;0.003906;0.025391;1.019531;
851102;0.004883;0.024414;1.037109;
851321;0.004883;0.019531;1.024414;
851551;0.005859;0.029297;1.034180;
851785;0.002930;0.021484;1.023438;
851995;0.006836;0.025391;1.027344;
852205;0.009766;0.025391;1.019531;
852425;0.008789;0.026367;1.015625;
852635;0.007812;0.023438;1.007812;
852845;0.007812;0.026367;1.007812;
853055;0.004883;0.024414;0.988281;
853265;0.004883;0.029297;0.986328;
853475;0.008789;0.027344;1.002930;
853685;0.007812;0.017578;0.995117;
853905;0.009766;0.020508;1.015625;
854115;0.010742;0.021484;1.040039;
854325;0.014648;0.019531;1.053711;
854535;0.012695;0.025391;1.060547;
854752;0.010742;0.029297;1.065430;
854981;0.011719;0.028320;1.075195;
855225;0.012695;0.028320;1.091797;
855445;0.013672;0.027344;1.077148;
855655;0.011719;0.026367;1.075195;
855865;0.014648;0.021484;1.077148;
856075;0.012695;0.020508;1.070312;
856295;0.008789;0.016602;1.064453;
856505;0.015625;0.017578;1.072266;
856715;0.008789;0.017578;1.075195;
856925;0.004883;0.020508;1.070312;
857135;0.001953;0.021484;1.071289;
857355;-0.004883;0.018555;1.060547;
857565;-0.003906;0.027344;1.048828;
857785;-0.003906;0.022461;1.023438;
857995;-0.001953;0.023438;1.023438;
858207;-0.000977;0.023438;1.023438;
858431;-0.001953;0.026367;1.017578;
858640;0.001953;0.030273;1.023438;
858875;0.000000;0.027344;1.015625;
859085;-0.000977;0.023438;1.011719;
859295;0.001953;0.023438;1.014648;
859505;0.002930;0.024414;1.013672;
859715;0.000000;0.022461;0.999023;
859935;0.000000;0.025391;0.985352;
860145;-0.000977;0.025391;0.985352;
860365;-0.001953;0.022461;0.988281;
860575;0.001953;0.025391;0.994141;
860785;0.000000;0.025391;0.992188;
860995;-0.000977;0.028320;1.002930;
861205;-0.000977;0.022461;1.012695;
861415;0.000000;0.030273;1.031250;
861625;0.001953;0.021484;1.033203;
861841;0.000977;0.030273;1.038086;
862071;0.002930;0.022461;1.028320;
862291;0.002930;0.024414;1.035156;
862525;0.000000;0.025391;1.041016;
862735;0.001953;0.022461;1.034180;
862945;0.003906;0.024414;1.039062;
863155;0.004883;0.024414;1.047852;
863375;0.004883;0.023438;1.041016;
863585;0.002930;0.027344;1.043945;
863795;0.004883;0.026367;1.040039;
864005;0.003906;0.024414;1.044922;
864215;0.002930;0.021484;1.041992;
864425;0.004883;0.023438;1.048828;
864635;0.003906;0.028320;1.052734;
864845;0.001953;0.022461;1.049805;
865055;0.000977;0.026367;1.042969;
865265;0.001953;0.021484;1.032227;
865481;0.000000;0.025391;1.036133;
865721;0.001953;0.021484;1.045898;
865930;0.000977;0.020508;1.046875;
866155;0.003906;0.022461;1.037109;
866365;0.002930;0.027344;1.042969;
866585;0.005859;0.022461;1.041992;
866795;0.000000;0.025391;1.044922;
867015;0.000977;0.024414;1.038086;
867225;0.002930;0.029297;1.041992;
867435;0.000977;0.021484;1.032227;
867655;0.003906;0.015625;1.031250;
867865;0.004883;0.026367;1.035156;
868075;0.003906;0.022461;1.028320;
868285;0.003906;0.014648;1.029297;
868505;0.003906;0.017578;1.027344;
868715;0.001953;0.023438;1.031250;
868925;0.000000;0.021484;1.021484;
869150;0.000000;0.023438;1.015625;
869371;0.002930;0.022461;1.023438;
869580;0.000977;0.029297;1.012695;
869810;-0.001953;0.024414;1.014648;
870035;-0.000977;0.030273;1.020508;
870245;0.000000;0.024414;1.018555;
870455;-0.000977;0.027344;1.024414;
870665;0.000977;0.023438;1.007812;
870875;0.000977;0.021484;1.010742;
871085;-0.000977;0.022461;1.015625;
871295;0.000000;0.027344;1.025391;
871515;0.000977;0.022461;1.018555;
871725;-0.001953;0.025391;1.016602;
871935;0.003906;0.026367;1.019531;
872145;0.003906;0.027344;1.020508;
872355;0.006836;0.027344;1.029297;
872575;0.007812;0.026367;1.031250;
872785;0.006836;0.027344;1.018555;
872990;0.008789;0.023438;1.019531;
873203;0.010742;0.023438;1.036133;
873430;0.013672;0.024414;1.041016;
873665;0.012695;0.024414;1.047852;
873875;0.016602;0.027344;1.056641;
874095;0.012695;0.018555;1.054688;
874305;0.011719;0.020508;1.057617;
874515;0.015625;0.022461;1.064453;
874725;0.012695;0.021484;1.063477;
874935;0.011719;0.019531;1.042969;
875145;0.009766;0.027344;1.035156;
875355;0.011719;0.023438;1.010742;
875575;0.009766;0.019531;0.989258;
875785;0.007812;0.023438;0.990234;
875995;0.009766;0.021484;0.970703;
876205;0.010742;0.023438;0.982422;
876420;0.010742;0.024414;0.994141;
876650;0.013672;0.023438;1.000000;
876885;0.010742;0.021484;1.010742;
877091;0.015625;0.020508;1.015625;
877315;0.015625;0.019531;1.021484;
877525;0.016602;0.024414;1.028320;
877735;0.017578;0.021484;1.018555;
877945;0.015625;0.030273;1.023438;
878155;0.015625;0.028320;1.032227;
878375;0.015625;0.027344;1.042969;
878585;0.013672;0.026367;1.047852;
878795;0.017578;0.030273;1.040039;
879005;0.014648;0.024414;1.022461;
879215;0.014648;0.026367;1.017578;
879425;0.010742;0.012695;0.994141;
879635;0.015625;0.023438;1.020508;
879845;0.016602;0.020508;1.022461;
880050;0.016602;0.022461;1.034180;
880280;0.019531;0.023438;1.019531;
880520;0.019531;0.028320;1.015625;
880745;0.015625;0.027344;1.015625;
880955;0.015625;0.025391;1.007812;
881165;0.019531;0.032227;0.998047;
881375;0.017578;0.023438;0.986328;
881585;0.018555;0.025391;1.004883;
881795;0.015625;0.026367;1.005859;
882005;0.011719;0.027344;1.008789;
882215;0.012695;0.020508;0.993164;
882425;0.011719;0.026367;0.986328;
882635;0.013672;0.025391;1.002930;
882845;0.021484;0.020508;1.009766;
883055;0.020508;0.030273;1.018555;
883265;0.023438;0.020508;1.011719;
883475;0.021484;0.021484;1.015625;
883691;0.027344;0.028320;1.041016;
883941;0.026367;0.019531;1.040039;
884165;0.026367;0.021484;1.027344;
884395;0.026367;0.022461;1.031250;
884605;0.030273;0.024414;1.051758;
884815;0.034180;0.028320;1.065430;
885025;0.031250;0.027344;1.051758;
885245;0.032227;0.027344;1.042969;
885455;0.032227;0.022461;1.037109;
885665;0.029297;0.022461;1.035156;
885875;0.036133;0.019531;1.032227;
886085;0.035156;0.018555;1.032227;
886305;0.036133;0.025391;1.042969;
886515;0.037109;0.023438;1.041992;
886735;0.039062;0.019531;1.070312;
886945;0.039062;0.019531;1.071289;
887155;0.039062;0.023438;1.082031;
887362;0.038086;0.027344;1.091797;
887590;0.042969;0.023438;1.095703;
887821;0.038086;0.023438;1.079102;
888045;0.041992;0.025391;1.082031;
888255;0.045898;0.023438;1.091797;
888465;0.046875;0.019531;1.082031;
888675;0.045898;0.021484;1.076172;
888885;0.045898;0.011719;1.076172;
889095;0.048828;0.019531;1.081055;
889305;0.052734;0.018555;1.079102;
889515;0.054688;0.014648;1.076172;
889735;0.050781;0.016602;1.048828;
889945;0.055664;0.019531;1.031250;
890155;0.053711;0.026367;0.989258;
890375;0.053711;0.029297;0.962891;
890585;0.051758;0.031250;0.932617;
890805;0.054688;0.027344;0.916992;
891020;0.052734;0.028320;0.909180;
891250;0.053711;0.022461;0.896484;
891460;0.054688;0.029297;0.913086;
891685;0.054688;0.024414;0.900391;
891895;0.054688;0.026367;0.918945;
892105;0.058594;0.018555;0.919922;
892315;0.057617;0.017578;0.916992;
892535;0.057617;0.015625;0.955078;
892745;0.062500;0.015625;0.952148;
892955;0.064453;0.015625;0.947266;
893165;0.066406;0.017578;0.978516;
893375;0.064453;0.022461;0.975586;
893595;0.069336;0.024414;0.995117;
893805;0.069336;0.025391;1.010742;
894015;0.069336;0.024414;1.012695;
894235;0.072266;0.030273;1.040039;
894455;0.071289;0.022461;1.052734;
894660;0.071289;0.024414;1.082031;
894891;0.081055;0.020508;1.114258;
895125;0.083008;0.024414;1.112305;
895335;0.084961;0.022461;1.115234;
895545;0.084961;0.023438;1.124023;
895755;0.085938;0.019531;1.122070;
895965;0.089844;0.028320;1.128906;
896175;0.085938;0.019531;1.106445;
896395;0.084961;0.018555;1.081055;
896605;0.083984;0.024414;1.061523;
896815;0.083984;0.021484;1.023438;
897025;0.082031;0.019531;1.004883;
897235;0.079102;0.019531;0.987305;
897445;0.080078;0.018555;0.966797;
897665;0.077148;0.022461;0.964844;
897875;0.080078;0.018555;0.957031;
898085;0.079102;0.018555;0.961914;
898301;0.079102;0.016602;0.969727;
898531;0.078125;0.027344;0.987305;
898765;0.079102;0.030273;1.019531;
898975;0.080078;0.025391;1.033203;
899185;0.082031;0.024414;1.052734;
899395;0.078125;0.021484;1.063477;
899605;0.082031;0.014648;1.089844;
899815;0.082031;0.029297;1.107422;
900035;0.083008;0.018555;1.099609;
900245;0.083008;0.021484;1.102539;
900465;0.084961;0.018555;1.099609;
900675;0.083984;0.021484;1.083008;
900885;0.079102;0.031250;1.062500;
901095;0.079102;0.021484;1.045898;
901305;0.075195;0.026367;1.036133;
901515;0.076172;0.022461;1.041992;
901731;0.075195;0.021484;1.033203;
901971;0.074219;0.021484;1.036133;
902215;0.078125;0.022461;1.023438;
902425;0.079102;0.015625;1.033203;
902635;0.080078;0.019531;1.023438;
902845;0.075195;0.005859;0.999023;
903055;0.076172;0.018555;1.010742;
903265;0.075195;0.021484;1.006836;
903475;0.076172;0.021484;1.017578;
903695;0.074219;0.025391;1.004883;
903905;0.078125;0.022461;1.016602;
904115;0.075195;0.022461;1.023438;
904325;0.071289;0.023438;1.038086;
904545;0.074219;0.020508;1.083984;
904755;0.080078;0.017578;1.175781;
904965;0.083984;0.015625;1.273438;
905170;0.088867;0.017578;1.372070;
905401;0.095703;0.012695;1.466797;
905640;0.097656;0.008789;1.530273;
905865;0.104492;0.013672;1.585938;
906085;0.106445;0.014648;1.636719;
906295;0.108398;0.013672;1.666016;
906505;0.110352;0.018555;1.709961;
906715;0.113281;0.014648;1.717773;
906925;0.113281;0.008789;1.723633;
907135;0.112305;0.014648;1.739258;
907345;0.113281;0.014648;1.753906;
907555;0.117188;0.016602;1.771484;
907765;0.117188;0.016602;1.793945;
907975;0.120117;0.017578;1.816406;
908185;0.122070;0.017578;1.850586;
908395;0.123047;0.012695;1.844727;
908605;0.125000;0.012695;1.866211;
908821;0.126953;0.015625;1.877930;
909051;0.125977;0.005859;1.864258;
909295;0.125000;0.013672;1.884766;
909505;0.127930;0.008789;1.871094;
909715;0.125977;0.012695;1.860352;
909925;0.125977;0.010742;1.873047;
910145;0.125977;0.009766;1.846680;
910355;0.128906;0.013672;1.847656;
910575;0.126953;0.010742;1.839844;
910785;0.122070;0.004883;1.830078;
910995;0.129883;0.007812;1.825195;
911205;0.130859;0.016602;1.845703;
911415;0.129883;0.012695;1.846680;
911626;0.126953;0.019531;1.859375;
911835;0.129883;0.018555;1.856445;
912045;0.132812;0.018555;1.846680;
912260;0.132812;0.015625;1.845703;
912502;0.132812;0.008789;1.844727;
912745;0.138672;0.015625;1.856445;
912965;0.138672;0.007812;1.839844;
913175;0.134766;0.002930;1.823242;
913385;0.135742;0.011719;1.847656;
913595;0.136719;0.009766;1.840820;
913805;0.136719;0.007812;1.836914;
914015;0.137695;0.006836;1.839844;
914235;0.140625;0.010742;1.841797;
914445;0.142578;0.009766;1.841797;
914655;0.144531;0.012695;1.846680;
914865;0.147461;0.017578;1.826172;
915075;0.142578;0.021484;1.830078;
915285;0.140625;0.013672;1.833008;
915491;0.148438;0.021484;1.821289;
915720;0.146484;0.017578;1.830078;
915961;0.148438;0.017578;1.840820;
916185;0.150391;0.008789;1.857422;
916405;0.152344;0.006836;1.882812;
916615;0.161133;0.000000;1.874023;
916825;0.159180;0.002930;1.862305;
917035;0.158203;0.015625;1.849609;
917245;0.158203;0.011719;1.839844;
917455;0.161133;0.013672;1.838867;
917665;0.164062;0.015625;1.858398;
917885;0.163086;0.021484;1.848633;
918095;0.164062;0.022461;1.833008;
918305;0.166992;0.023438;1.813477;
918515;0.165039;0.018555;1.809570;
918735;0.168945;0.013672;1.832031;
918945;0.171875;0.013672;1.826172;
919161;0.172852;0.004883;1.828125;
919371;0.171875;0.004883;1.819336;
919605;0.173828;0.000977;1.827148;
919815;0.178711;0.007812;1.817383;
920025;0.178711;-0.003906;1.812500;
920235;0.177734;0.008789;1.779297;
920445;0.177734;0.007812;1.757812;
920655;0.175781;0.013672;1.720703;
920865;0.178711;0.008789;1.672852;
921075;0.174805;0.009766;1.667969;
921295;0.180664;0.014648;1.655273;
921505;0.182617;0.020508;1.665039;
921725;0.185547;0.015625;1.691406;
921935;0.189453;0.021484;1.699219;
922145;0.193359;0.022461;1.717773;
922355;0.196289;0.025391;1.732422;
922565;0.201172;0.021484;1.757812;
922785;0.204102;0.016602;1.770508;
922995;0.208984;0.005859;1.787109;
923215;0.213867;0.010742;1.817383;
923431;0.211914;0.002930;1.779297;
923675;0.211914;0.000977;1.776367;
923885;0.196289;0.001953;1.740234;
924105;0.194336;0.007812;1.731445;
924315;0.196289;0.005859;1.647461;
924535;0.183594;0.005859;1.610352;
924745;0.166992;0.018555;1.568359;
924955;0.153320;0.022461;1.495117;
925165;0.133789;0.023438;1.372070;
925375;0.104492;0.020508;1.234375;
925585;0.080078;0.023438;1.080078;
925795;0.053711;0.026367;0.909180;
926005;0.040039;0.027344;0.749023;
926215;0.023438;0.024414;0.592773;
926425;0.013672;0.030273;0.454102;
926640;0.006836;0.026367;0.305664;
926870;0.007812;0.027344;0.220703;
927081;0.001953;0.028320;0.149414;
927305;-0.000977;0.026367;0.111328;
927515;0.000000;0.026367;0.075195;
927725;-0.001953;0.028320;0.047852;
927935;-0.000977;0.025391;0.037109;
928155;-0.000977;0.027344;0.036133;
928365;-0.002930;0.022461;0.058594;
928575;-0.000977;0.020508;0.058594;
928785;-0.002930;0.026367;0.059570;
928995;-0.005859;0.025391;0.079102;
929205;-0.004883;0.027344;0.067383;
929425;-0.006836;0.027344;0.066406;
929635;-0.010742;0.026367;0.064453;
929845;-0.004883;0.030273;0.067383;
930055;-0.011719;0.026367;0.066406;
930270;-0.010742;0.025391;0.062500;
930521;-0.008789;0.024414;0.063477;
930741;-0.011719;0.026367;0.049805;
930965;-0.008789;0.025391;0.050781;
931175;-0.009766;0.024414;0.053711;
931385;-0.012695;0.025391;0.044922;
931595;-0.012695;0.021484;0.037109;
931815;-0.011719;0.029297;0.032227;
932025;-0.014648;0.027344;0.023438;
932235;-0.013672;0.025391;0.023438;
932455;-0.013672;0.027344;0.016602;
932675;-0.010742;0.026367;0.018555;
932885;-0.015625;0.025391;0.010742;
933095;-0.014648;0.029297;0.009766;
933305;-0.013672;0.026367;0.016602;
933515;-0.015625;0.031250;0.007812;
933725;-0.015625;0.027344;0.021484;
933942;-0.015625;0.026367;0.026367;
934180;-0.018555;0.031250;0.020508;
934395;-0.016602;0.029297;0.026367;
934605;-0.017578;0.028320;0.025391;
934815;-0.018555;0.028320;0.029297;
935025;-0.017578;0.024414;0.031250;
935235;-0.014648;0.030273;0.025391;
935455;-0.015625;0.026367;0.026367;
935665;-0.016602;0.026367;0.030273;
935875;-0.017578;0.028320;0.023438;
936085;-0.018555;0.028320;0.023438;
936295;-0.016602;0.029297;0.026367;
936505;-0.017578;0.023438;0.021484;
936725;-0.018555;0.030273;0.019531;
936935;-0.017578;0.026367;0.017578;
937140;-0.018555;0.025391;0.016602;
937371;-0.018555;0.024414;0.012695;
937600;-0.020508;0.020508;0.008789;
937825;-0.016602;0.022461;0.013672;
938035;-0.018555;0.022461;0.015625;
938245;-0.018555;0.023438;0.010742;
938455;-0.018555;0.024414;0.005859;
938665;-0.018555;0.019531;0.007812;
938885;-0.016602;0.020508;0.004883;
939095;-0.019531;0.023438;0.000000;
939305;-0.018555;0.021484;0.000977;
939515;-0.018555;0.021484;0.000977;
939725;-0.020508;0.021484;-0.002930;
939935;-0.018555;0.020508;-0.003906;
940155;-0.017578;0.020508;-0.003906;
940365;-0.020508;0.020508;-0.003906;
940575;-0.020508;0.021484;-0.003906;
