datetime;time;load_cell;board_temperature;pressure_macki;pressure_tank;distance;acc_x;acc_y;acc_z;motor1_speed;motor2_speed;procedure_time;mechanical_state;motor1_temperature;motor2_temperature
2024-11-05_10-12-51.297414;639807;-178.666626;24.125;0.021667;3.41625;200.0;0.064453;0.020508;0.87793;-60000;-60000;162112;0;0;0
2024-11-05_10-12-51.485458;640107;-133.333374;24.125;0.022917;3.41625;187.0;0.040039;0.025391;0.666992;-60000;-60000;162281;0;0;0
2024-11-05_10-12-51.657785;640248;-108.0;24.125;0.026667;3.41625;172.0;0.029297;0.026367;0.548828;-60000;-60000;162462;0;0;0
2024-11-05_10-12-51.783395;640384;-101.333374;24.125;0.0625;3.416667;163.0;0.020508;0.029297;0.460938;-60000;-60000;162601;0;0;0
2024-11-05_10-12-51.940419;640528;-84.0;24.125;0.081667;3.4225;152.0;0.014648;0.027344;0.396484;-60000;-60000;162753;0;0;0
2024-11-05_10-12-52.133875;640674;-76.0;24.125;0.11875;3.416667;145.0;0.011719;0.026367;0.327148;-60000;-60000;162908;0;0;0
2024-11-05_10-12-52.254463;640817;-66.666626;24.125;0.156667;3.423333;135.0;0.014648;0.023438;0.300781;-60000;-60000;163063;0;0;0
2024-11-05_10-12-52.457587;641096;-57.333374;24.125;0.1475;3.420833;117.0;0.010742;0.024414;0.210938;-60000;-60000;163263;0;0;0
2024-11-05_10-12-52.551529;641096;-57.333374;24.125;0.1475;3.420833;117.0;0.010742;0.024414;0.210938;-60000;-60000;163371;0;0;0
2024-11-05_10-12-52.708227;641238;-50.666626;24.125;0.08375;3.416667;106.0;0.007812;0.025391;0.157227;-60000;-60000;163531;0;0;0
2024-11-05_10-12-52.880066;641526;-45.333374;24.125;0.069167;3.423333;90.0;0.004883;0.020508;0.124023;20000;20000;163683;1;0;0
2024-11-05_10-12-53.036742;641664;-36.0;24.125;0.52375;3.647083;92.0;0.007812;0.022461;0.115234;20000;20000;163843;1;0;0
2024-11-05_10-12-53.302571;641944;-30.666626;24.125;0.12375;3.435834;95.0;0.003906;0.025391;0.075195;20000;20000;164106;0;0;0
2024-11-05_10-12-53.491259;642091;-30.666626;24.125;0.122083;3.416667;93.0;0.000977;0.024414;0.079102;0;0;213;0;0;0
2024-11-05_10-12-53.678760;642226;-25.333374;24.125;0.136667;3.4375;96.0;0.003906;0.027344;0.054688;5000;5000;400;0;0;0
2024-11-05_10-12-53.850677;642381;-25.333374;24.125;0.061667;3.44375;96.0;0.000977;0.025391;0.054688;5000;5000;569;0;0;0
2024-11-05_10-12-53.975947;642526;-25.333374;24.125;0.126667;3.41625;95.0;0.00293;0.027344;0.047852;10000;10000;694;0;0;0
2024-11-05_10-12-54.147796;642667;-30.666626;24.125;0.114167;3.427083;99.0;0.000977;0.026367;0.041016;10000;10000;841;0;0;0
2024-11-05_10-12-54.289149;642816;-25.333374;24.125;0.070833;3.41625;99.0;-0.001953;0.030273;0.033203;15000;15000;1012;0;0;0
2024-11-05_10-12-54.492413;643094;-29.333374;24.125;0.070833;3.4325;103.0;-0.001953;0.027344;0.039062;15000;15000;1187;0;0;0
2024-11-05_10-12-54.633336;643238;-30.666626;24.125;0.072917;3.416667;105.0;-0.003906;0.02832;0.042969;20000;20000;1342;0;0;0
2024-11-05_10-12-54.774003;643387;-34.666626;24.125;0.067917;3.420833;107.0;-0.006836;0.02832;0.045898;20000;20000;1483;0;0;0
2024-11-05_10-12-54.914612;643529;-25.333374;24.125;0.122083;3.42125;111.0;-0.006836;0.027344;0.051758;25000;25000;1623;0;0;0
2024-11-05_10-12-55.071740;643678;-34.666626;24.125;0.115833;3.420833;114.0;-0.00293;0.020508;0.060547;25000;25000;1782;0;0;0
2024-11-05_10-12-55.337603;643964;-34.666626;24.125;0.137083;3.42375;123.0;-0.003906;0.026367;0.064453;30000;30000;2050;0;0;0
2024-11-05_10-12-55.557191;644106;-32.0;24.125;0.137083;3.422084;130.0;-0.005859;0.023438;0.054688;35000;35000;2243;0;0;0
2024-11-05_10-12-55.682893;644244;-32.0;24.125;0.129167;3.425;135.0;-0.003906;0.024414;0.061523;35000;35000;2402;0;0;0
2024-11-05_10-12-55.854811;644389;-30.666626;24.125;0.05375;3.426666;140.0;-0.004883;0.021484;0.053711;40000;40000;2563;0;0;0
2024-11-05_10-12-56.042616;644674;-30.666626;24.125;0.075;3.425;154.0;-0.007812;0.022461;0.047852;40000;40000;2753;0;0;0
2024-11-05_10-12-56.262462;644818;-29.333374;24.125;0.07375;3.412917;158.0;-0.007812;0.022461;0.049805;45000;45000;2983;0;0;0
2024-11-05_10-12-56.497593;645122;-32.0;24.125;0.049167;3.4175;177.0;-0.004883;0.019531;0.038086;50000;50000;3207;0;0;0
2024-11-05_10-12-56.638396;645270;-37.333374;24.125;0.122083;3.412917;183.0;-0.007812;0.016602;0.038086;50000;50000;3343;0;0;0
2024-11-05_10-12-56.832721;645420;-30.666626;24.125;0.332917;3.26875;193.0;-0.005859;0.018555;0.03418;55000;55000;3503;0;0;0
2024-11-05_10-12-56.988093;645564;-41.333374;24.125;0.59625;3.258333;205.0;-0.005859;0.018555;0.03418;55000;55000;3704;0;0;0
2024-11-05_10-12-57.093997;645707;-37.333374;24.125;0.711667;3.256667;209.0;-0.005859;0.017578;0.03125;-100000;-100000;3813;0;0;0
2024-11-05_10-12-57.297891;645857;-34.666626;24.125;0.763333;3.236667;198.0;-0.008789;0.018555;0.023438;-100000;-100000;4012;0;0;0
2024-11-05_10-12-57.407838;646004;4.0;24.125;0.83125;3.23125;181.0;-0.006836;0.020508;0.023438;-100000;-100000;4121;0;0;0
2024-11-05_10-12-57.581017;646148;30.666626;24.125;0.89625;3.227917;164.0;-0.007812;0.018555;0.030273;-100000;-100000;4293;0;0;0
2024-11-05_10-12-57.799770;646434;66.666748;24.125;0.997083;3.2175;131.0;-0.007812;0.020508;0.024414;-100000;-100000;4513;0;0;0
2024-11-05_10-12-57.956417;646578;34.666626;24.125;1.004167;3.215417;114.0;-0.007812;0.022461;0.030273;-100000;-100000;4645;0;0;0
2024-11-05_10-12-58.066494;646578;34.666626;24.125;1.004167;3.215417;114.0;-0.007812;0.022461;0.030273;-100000;-100000;4782;0;0;0
2024-11-05_10-12-58.191658;646727;17.333374;24.125;1.020833;3.215417;98.0;-0.011719;0.024414;0.019531;-100000;-100000;4901;0;0;0
2024-11-05_10-12-58.348433;647006;-18.666626;24.125;1.362917;3.375834;90.0;-0.007812;0.024414;0.018555;20000;20000;5063;1;0;0
2024-11-05_10-12-58.489086;647144;-21.333374;24.125;1.383333;3.21375;90.0;-0.006836;0.021484;0.03125;20000;20000;5205;0;0;0
2024-11-05_10-12-58.645706;647288;-21.333374;24.125;1.02125;3.212084;90.0;-0.009766;0.025391;0.015625;20000;20000;5363;1;0;0
2024-11-05_10-12-58.801954;647434;-22.666626;24.125;1.3275;3.378334;90.0;-0.013672;0.024414;0.019531;20000;20000;5523;0;0;0
2024-11-05_10-12-58.989456;647582;-21.333374;24.125;0.817083;3.213333;92.0;-0.013672;0.02832;0.027344;20000;20000;5692;0;0;0
2024-11-05_10-12-59.193564;647729;-21.333374;24.125;0.731667;3.215417;93.0;-0.011719;0.030273;0.015625;20000;20000;5908;0;0;0
2024-11-05_10-12-59.271652;647866;-25.333374;24.125;0.6125;3.215;94.0;-0.012695;0.029297;0.018555;20000;20000;5987;0;0;0
2024-11-05_10-12-59.474778;648018;-21.333374;24.125;0.519583;3.22;92.0;-0.015625;0.032227;0.018555;20000;20000;6193;0;0;0
2024-11-05_10-12-59.599787;648174;-21.333374;24.125;0.423333;3.215417;92.0;-0.011719;0.029297;0.020508;20000;20000;6303;0;0;0
2024-11-05_10-12-59.772214;648317;-22.666626;24.125;0.2925;3.215417;90.0;-0.010742;0.030273;0.022461;20000;20000;6471;0;0;0
2024-11-05_10-12-59.928421;648467;-22.666626;24.125;0.16125;3.215417;90.0;-0.011719;0.03125;0.018555;20000;20000;6633;0;0;0
2024-11-05_10-13-00.086219;648606;-22.666626;24.125;0.062917;3.215417;92.0;-0.013672;0.030273;0.017578;20000;20000;6803;0;0;0
2024-11-05_10-13-00.352298;648886;-22.666626;24.125;0.021667;3.215417;94.0;-0.013672;0.032227;0.021484;20000;20000;7059;0;0;0
2024-11-05_10-13-00.634317;649168;-22.666626;24.125;0.021667;3.215834;93.0;-0.009766;0.030273;0.032227;20000;20000;7321;0;0;0
2024-11-05_10-13-00.728068;649316;-22.666626;24.125;0.021667;3.217917;95.0;-0.011719;0.02832;0.03418;0;0;20;0;0;0
2024-11-05_10-13-00.899936;649456;-20.0;24.125;0.021667;3.219167;94.0;-0.008789;0.027344;0.037109;0;0;188;0;0;0
2024-11-05_10-13-01.124594;649741;-22.666626;24.125;0.059167;3.220417;91.0;-0.010742;0.02832;0.03125;5000;5000;423;0;2;0
2024-11-05_10-13-01.338822;649887;-22.666626;24.125;0.077083;3.240417;92.0;-0.010742;0.02832;0.032227;10000;10000;628;0;0;0
2024-11-05_10-13-01.793478;650447;-22.666626;24.125;3.225834;3.229167;99.0;-0.011719;0.024414;0.03125;15000;15000;1090;0;0;0
2024-11-05_10-13-01.996688;650574;-22.666626;24.125;0.070833;3.233334;102.0;-0.008789;0.02832;0.033203;20000;20000;1300;0;0;0
2024-11-05_10-13-02.184861;650726;-25.333374;24.1875;0.072917;3.22125;106.0;-0.011719;0.025391;0.027344;20000;20000;1480;0;0;0
2024-11-05_10-13-02.278912;650876;-22.666626;24.125;3.245;3.224583;106.0;-0.011719;0.023438;0.033203;25000;25000;1590;0;0;0
2024-11-05_10-13-02.482328;651016;-21.333374;24.125;3.22625;3.231667;112.0;-0.008789;0.025391;0.032227;25000;25000;1778;0;0;0
2024-11-05_10-13-02.591728;651162;-25.333374;24.125;0.123333;3.230417;115.0;-0.010742;0.02832;0.029297;30000;30000;1889;0;2;0
2024-11-05_10-13-02.764148;651308;-22.666626;24.125;0.04875;3.220834;119.0;-0.011719;0.023438;0.032227;30000;30000;2048;0;0;0
2024-11-05_10-13-02.920917;651456;-22.666626;24.125;0.056667;3.220417;123.0;-0.011719;0.025391;0.027344;35000;35000;2189;0;0;0
2024-11-05_10-13-03.077549;651596;-22.666626;24.125;0.0375;3.22375;132.0;-0.008789;0.02832;0.02832;35000;35000;2378;0;0;0
2024-11-05_10-13-03.203557;651736;-22.666626;24.125;0.057917;3.222083;136.0;-0.012695;0.025391;0.02832;40000;40000;2499;0;0;0
2024-11-05_10-13-03.422737;652016;-30.666626;24.125;0.077917;3.220834;147.0;-0.013672;0.030273;0.021484;40000;40000;2719;0;0;0
2024-11-05_10-13-03.516538;652155;-22.666626;24.125;0.09375;3.222083;154.0;-0.008789;0.02832;0.018555;45000;45000;2829;0;0;0
2024-11-05_10-13-03.689139;652297;-25.333374;24.125;0.05625;3.222917;161.0;-0.011719;0.022461;0.015625;45000;45000;2987;0;0;0
2024-11-05_10-13-03.861682;652434;-29.333374;24.125;0.047917;3.225834;170.0;-0.012695;0.021484;0.019531;50000;50000;3149;0;2;0
2024-11-05_10-13-03.987115;652577;-37.333374;24.125;0.084167;3.0725;177.0;-0.012695;0.025391;0.019531;50000;50000;3292;0;0;0
2024-11-05_10-13-04.130673;652725;-34.666626;24.125;0.41375;3.086667;187.0;-0.010742;0.022461;0.018555;55000;55000;3422;0;0;0
2024-11-05_10-13-04.284370;652859;-32.0;24.125;0.595417;3.080417;198.0;-0.011719;0.027344;0.027344;55000;55000;3590;0;0;0
2024-11-05_10-13-04.441963;653007;-30.666626;24.125;0.709583;3.077084;204.0;-0.012695;0.025391;0.013672;-100000;-100000;3730;0;0;0
2024-11-05_10-13-04.598549;653144;-20.0;24.125;0.758333;3.07625;188.0;-0.012695;0.026367;0.008789;-100000;-100000;3890;0;0;0
2024-11-05_10-13-04.739318;653287;-1.333374;24.125;0.825833;3.07625;174.0;-0.014648;0.024414;0.007812;-100000;-100000;4051;0;0;0
2024-11-05_10-13-05.068045;653582;50.666748;24.125;0.95125;3.082083;135.0;-0.011719;0.025391;0.018555;-100000;-100000;4358;0;0;0
2024-11-05_10-13-05.227374;653734;85.333252;24.125;0.994167;3.082083;122.0;-0.011719;0.026367;0.014648;-100000;-100000;4520;0;0;0
2024-11-05_10-13-05.476843;654016;17.333374;24.125;1.011667;3.095417;90.0;-0.013672;0.023438;0.006836;-100000;-100000;4774;0;0;0
2024-11-05_10-13-05.586675;654154;-16.0;24.125;1.03625;3.115417;87.0;-0.012695;0.024414;0.003906;20000;20000;4880;1;0;0
2024-11-05_10-13-05.742939;654296;-10.666626;24.125;1.4625;3.185;89.0;-0.009766;0.024414;0.079102;20000;20000;5040;1;0;0
2024-11-05_10-13-05.838617;654436;-17.333374;24.125;1.135;3.357083;93.0;-0.006836;0.026367;0.013672;-60000;-60000;5150;0;0;0
2024-11-05_10-13-06.010058;654575;-18.666626;24.1875;1.028333;3.125417;90.0;-0.011719;0.020508;0.008789;20000;20000;5300;0;0;0
2024-11-05_10-13-06.166041;654716;-17.333374;24.125;0.96625;3.135417;89.0;-0.012695;0.029297;0.001953;20000;20000;5459;0;0;0
2024-11-05_10-13-06.322334;654854;-17.333374;24.125;0.828333;3.149584;92.0;-0.011719;0.020508;0.000977;20000;20000;5617;0;0;0
2024-11-05_10-13-06.478657;654999;-17.333374;24.125;0.764583;3.150833;90.0;-0.012695;0.024414;-0.000977;20000;20000;5778;0;0;0
2024-11-05_10-13-06.650893;655286;-16.0;24.125;0.56125;3.15875;92.0;-0.011719;0.022461;-0.004883;20000;20000;5937;0;0;0
2024-11-05_10-13-06.776639;655426;-17.333374;24.1875;0.440833;3.167084;94.0;-0.014648;0.025391;-0.008789;20000;20000;6090;0;0;0
2024-11-05_10-13-06.933167;655567;-16.0;24.1875;0.3325;3.1725;92.0;-0.012695;0.022461;-0.004883;20000;20000;6240;0;0;0
2024-11-05_10-13-07.341105;655853;-17.333374;24.125;0.084167;3.183333;92.0;-0.013672;0.020508;-0.008789;20000;20000;6620;0;0;0
2024-11-05_10-13-07.419280;656001;-17.333374;24.125;0.025;3.194167;93.0;-0.014648;0.025391;-0.006836;20000;20000;6705;0;0;0
2024-11-05_10-13-07.564010;656144;-18.666626;24.1875;3.199167;3.200833;94.0;-0.015625;0.022461;-0.005859;20000;20000;6871;0;0;0
2024-11-05_10-13-07.747927;656282;-17.333374;24.1875;0.021667;3.204583;92.0;-0.014648;0.021484;-0.006836;20000;20000;7020;0;0;0
2024-11-05_10-13-07.873646;656432;-17.333374;24.1875;0.021667;3.212917;93.0;-0.014648;0.022461;-0.011719;20000;20000;7170;0;0;0
2024-11-05_10-13-08.030825;656578;-18.666626;24.1875;0.02125;3.215417;95.0;-0.017578;0.022461;-0.004883;0;0;90;0;0;0
2024-11-05_10-13-08.192525;656726;-16.0;24.1875;0.021667;3.220834;94.0;-0.014648;0.022461;-0.004883;0;0;250;0;0;0
2024-11-05_10-13-08.360429;657004;-16.0;24.1875;0.08375;3.24;91.0;-0.015625;0.020508;-0.00293;5000;5000;420;0;0;0
2024-11-05_10-13-08.501326;657146;-17.333374;24.1875;0.105833;3.252084;93.0;-0.017578;0.024414;-0.009766;5000;5000;560;0;0;0
2024-11-05_10-13-08.674012;657286;-17.333374;24.1875;0.065;3.245417;95.0;-0.017578;0.025391;-0.006836;10000;10000;737;0;0;0
2024-11-05_10-13-08.940506;657574;-18.666626;24.1875;0.039167;3.262084;97.0;-0.017578;0.024414;-0.006836;15000;15000;999;0;0;0
2024-11-05_10-13-09.223131;657866;-18.666626;24.1875;0.078333;3.269167;104.0;-0.017578;0.021484;-0.014648;20000;20000;1280;0;2;0
2024-11-05_10-13-09.461048;658004;-18.666626;24.1875;0.045417;3.27875;107.0;-0.019531;0.022461;-0.014648;25000;25000;1489;0;0;0
2024-11-05_10-13-09.614773;658147;-18.666626;24.1875;0.0825;3.282917;111.0;-0.019531;0.020508;-0.008789;25000;25000;1670;0;0;0
2024-11-05_10-13-09.755639;658284;-21.333374;24.1875;0.131667;3.294584;113.0;-0.018555;0.017578;0.0;30000;30000;1808;0;0;0
2024-11-05_10-13-09.927558;658429;-20.0;24.1875;0.047083;3.290417;120.0;-0.018555;0.017578;-0.010742;30000;30000;1969;0;0;0
2024-11-05_10-13-10.052566;658583;-18.666626;24.1875;0.0875;3.299583;124.0;-0.018555;0.015625;-0.007812;35000;35000;2120;0;0;0
2024-11-05_10-13-10.335150;658875;-20.0;24.1875;0.11;3.315417;133.0;-0.017578;0.013672;-0.003906;40000;40000;2380;0;0;0
2024-11-05_10-13-10.524118;659163;-25.333374;24.1875;0.132083;3.3275;145.0;-0.020508;0.017578;0.000977;40000;40000;2590;0;0;0
2024-11-05_10-13-10.679859;659306;-21.333374;24.1875;0.123333;3.32375;153.0;-0.020508;0.018555;0.010742;45000;45000;2750;0;0;0
2024-11-05_10-13-10.836114;659448;-21.333374;24.1875;0.046667;3.329167;160.0;-0.021484;0.020508;0.008789;45000;45000;2902;0;0;0
2024-11-05_10-13-10.976878;659594;-22.666626;24.1875;0.124583;3.332917;170.0;-0.023438;0.024414;0.010742;50000;50000;3050;0;0;0
2024-11-05_10-13-11.195679;659737;-22.666626;24.1875;0.115833;3.167084;177.0;-0.020508;0.021484;0.019531;55000;55000;3255;0;0;0
2024-11-05_10-13-11.368454;660017;-34.666626;24.1875;0.619583;3.195833;196.0;-0.022461;0.027344;0.035156;55000;55000;3440;0;0;0
2024-11-05_10-13-11.493971;660017;-34.666626;24.1875;0.619583;3.195833;196.0;-0.022461;0.027344;0.035156;-100000;-100000;3550;0;0;0
2024-11-05_10-13-11.729788;660297;-34.666626;24.1875;0.767083;3.190833;184.0;-0.024414;0.02832;0.024414;-100000;-100000;3797;0;0;0
2024-11-05_10-13-11.950155;660586;44.0;24.1875;0.890417;3.189167;154.0;-0.023438;0.026367;0.039062;-100000;-100000;4000;0;0;0
2024-11-05_10-13-12.152897;660727;37.333374;24.1875;0.937083;3.192917;135.0;-0.025391;0.026367;0.02832;-100000;-100000;4206;0;0;0
2024-11-05_10-13-12.341061;660865;50.666748;24.1875;0.982917;3.202084;121.0;-0.027344;0.032227;0.025391;-100000;-100000;4408;0;0;0
2024-11-05_10-13-12.450398;661006;78.666748;24.1875;0.985833;3.2075;105.0;-0.024414;0.03125;0.03125;-100000;-100000;4510;0;0;0
2024-11-05_10-13-12.560039;661144;128.0;24.1875;0.990417;3.20625;91.0;-0.024414;0.03418;0.037109;20000;20000;4630;1;0;0
2024-11-05_10-13-12.732307;661290;202.666748;24.25;1.379167;3.4225;90.0;-0.029297;0.036133;0.025391;20000;20000;4780;1;0;0
2024-11-05_10-13-12.888956;661438;197.333252;24.25;0.96375;3.2075;92.0;-0.029297;0.030273;0.030273;20000;20000;4941;1;0;0
2024-11-05_10-13-13.048750;661593;169.333252;24.1875;0.6925;3.389167;96.0;-0.02832;0.033203;0.03125;-60000;-60000;5100;0;0;0
2024-11-05_10-13-13.233780;661744;28.0;24.25;0.592917;3.214167;90.0;-0.029297;0.032227;0.037109;20000;20000;5257;1;0;0
