Time;acc_x;acc_y;acc_z;

1481;-0.036133;0.034180;1.019531;
1623;-0.037109;0.033203;1.019531;
1763;-0.035156;0.035156;1.021484;
1903;-0.037109;0.033203;1.022461;
2043;-0.035156;0.033203;1.021484;
2184;-0.035156;0.034180;1.021484;
2324;-0.035156;0.034180;1.018555;
2463;-0.036133;0.034180;1.019531;
2603;-0.037109;0.034180;1.025391;
2743;-0.035156;0.033203;1.021484;
2883;-0.036133;0.035156;1.023438;
3023;-0.033203;0.032227;1.020508;
3163;-0.036133;0.033203;1.021484;
3304;-0.035156;0.035156;1.020508;
3444;-0.036133;0.034180;1.023438;
3583;-0.034180;0.036133;1.023438;
3723;-0.035156;0.031250;1.018555;
3859;-0.037109;0.031250;1.017578;
4039;-0.038086;0.033203;1.022461;
4213;-0.038086;0.035156;1.023438;
4364;-0.037109;0.035156;1.018555;
4504;-0.036133;0.033203;1.018555;
4643;-0.034180;0.034180;1.020508;
4783;-0.037109;0.033203;1.022461;
4923;-0.037109;0.034180;1.023438;
5073;-0.036133;0.035156;1.017578;
5213;-0.035156;0.033203;1.018555;
5354;-0.035156;0.034180;1.022461;
5494;-0.035156;0.033203;1.022461;
5633;-0.036133;0.032227;1.019531;
5773;-0.036133;0.035156;1.022461;
5914;-0.037109;0.033203;1.019531;
6053;-0.036133;0.033203;1.018555;
6189;-0.033203;0.034180;1.020508;
6379;-0.036133;0.035156;1.022461;
6554;-0.036133;0.034180;1.022461;
6704;-0.034180;0.033203;1.020508;
6843;-0.037109;0.034180;1.025391;
6983;-0.035156;0.032227;1.019531;
7123;-0.040039;0.034180;1.020508;
7264;-0.035156;0.035156;1.024414;
7403;-0.036133;0.034180;1.022461;
7543;-0.034180;0.032227;1.021484;
7683;-0.036133;0.032227;1.020508;
7824;-0.036133;0.033203;1.018555;
7973;-0.036133;0.033203;1.018555;
8113;-0.034180;0.033203;1.023438;
8253;-0.035156;0.032227;1.019531;
8394;-0.036133;0.033203;1.021484;
8541;-0.035156;0.035156;1.021484;
8719;-0.033203;0.035156;1.022461;
8874;-0.038086;0.035156;1.021484;
9014;-0.036133;0.033203;1.021484;
9153;-0.036133;0.035156;1.020508;
9293;-0.034180;0.032227;1.021484;
9433;-0.037109;0.035156;1.020508;
9573;-0.035156;0.035156;1.020508;
9714;-0.035156;0.035156;1.024414;
9853;-0.034180;0.035156;1.022461;
9994;-0.038086;0.035156;1.021484;
10134;-0.035156;0.035156;1.024414;
10284;-0.036133;0.033203;1.019531;
10423;-0.034180;0.035156;1.023438;
10563;-0.035156;0.033203;1.019531;
10703;-0.035156;0.034180;1.024414;
10852;-0.035156;0.035156;1.023438;
11039;-0.034180;0.034180;1.021484;
11194;-0.035156;0.035156;1.021484;
11334;-0.036133;0.034180;1.019531;
11483;-0.038086;0.035156;1.021484;
11623;-0.036133;0.035156;1.021484;
11763;-0.035156;0.033203;1.018555;
11913;-0.036133;0.032227;1.018555;
12054;-0.034180;0.035156;1.021484;
12194;-0.035156;0.033203;1.021484;
12344;-0.036133;0.033203;1.021484;
12483;-0.037109;0.035156;1.020508;
12623;-0.035156;0.034180;1.019531;
12763;-0.038086;0.033203;1.018555;
12903;-0.038086;0.033203;1.019531;
13043;-0.035156;0.035156;1.019531;
13209;-0.037109;0.033203;1.019531;
13363;-0.037109;0.032227;1.020508;
13489;-0.035156;0.033203;1.019531;
13663;-0.032227;0.033203;1.022461;
13814;-0.037109;0.032227;1.022461;
13953;-0.036133;0.035156;1.022461;
14094;-0.036133;0.033203;1.023438;
14233;-0.035156;0.033203;1.020508;
14373;-0.034180;0.035156;1.024414;
14514;-0.034180;0.034180;1.020508;
14653;-0.035156;0.034180;1.022461;
14793;-0.038086;0.033203;1.019531;
14933;-0.036133;0.033203;1.021484;
15073;-0.034180;0.034180;1.024414;
15214;-0.033203;0.032227;1.017578;
15353;-0.034180;0.034180;1.023438;
15494;-0.035156;0.033203;1.021484;
15651;-0.036133;0.032227;1.023438;
15829;-0.035156;0.034180;1.024414;
15974;-0.037109;0.034180;1.021484;
16123;-0.037109;0.035156;1.022461;
16263;-0.034180;0.032227;1.021484;
16403;-0.035156;0.032227;1.021484;
16543;-0.035156;0.035156;1.024414;
16684;-0.036133;0.035156;1.020508;
16833;-0.035156;0.034180;1.023438;
16974;-0.036133;0.033203;1.020508;
17123;-0.036133;0.033203;1.023438;
17263;-0.037109;0.034180;1.020508;
17403;-0.035156;0.034180;1.021484;
17553;-0.034180;0.035156;1.024414;
17694;-0.037109;0.034180;1.021484;
17833;-0.036133;0.033203;1.021484;
17969;-0.036133;0.033203;1.022461;
18129;-0.037109;0.034180;1.021484;
18304;-0.036133;0.033203;1.023438;
18443;-0.036133;0.033203;1.018555;
18593;-0.037109;0.033203;1.021484;
18733;-0.036133;0.033203;1.019531;
18873;-0.037109;0.034180;1.020508;
19023;-0.038086;0.035156;1.021484;
19163;-0.034180;0.033203;1.021484;
19304;-0.034180;0.033203;1.019531;
19444;-0.035156;0.034180;1.021484;
19583;-0.034180;0.033203;1.024414;
19724;-0.035156;0.034180;1.023438;
19863;-0.036133;0.032227;1.022461;
20003;-0.036133;0.034180;1.018555;
20143;-0.036133;0.033203;1.020508;
20279;-0.037109;0.034180;1.023438;
20449;-0.036133;0.035156;1.022461;
20589;-0.037109;0.034180;1.022461;
20764;-0.035156;0.033203;1.021484;
20903;-0.036133;0.034180;1.022461;
21053;-0.036133;0.032227;1.019531;
21193;-0.035156;0.033203;1.018555;
21334;-0.036133;0.034180;1.019531;
21474;-0.037109;0.033203;1.019531;
21613;-0.036133;0.034180;1.022461;
21754;-0.036133;0.034180;1.025391;
21894;-0.036133;0.032227;1.020508;
22034;-0.034180;0.033203;1.023438;
22173;-0.033203;0.034180;1.023438;
22313;-0.034180;0.034180;1.022461;
22453;-0.035156;0.033203;1.021484;
22603;-0.035156;0.033203;1.021484;
22759;-0.036133;0.033203;1.019531;
22909;-0.036133;0.034180;1.020508;
23064;-0.034180;0.033203;1.023438;
23213;-0.037109;0.034180;1.021484;
23353;-0.036133;0.034180;1.020508;
23494;-0.036133;0.033203;1.021484;
23634;-0.035156;0.034180;1.021484;
23773;-0.035156;0.033203;1.024414;
23914;-0.035156;0.032227;1.021484;
24054;-0.035156;0.033203;1.020508;
24194;-0.035156;0.034180;1.024414;
24344;-0.035156;0.032227;1.024414;
24483;-0.035156;0.030273;1.021484;
24623;-0.036133;0.034180;1.021484;
24763;-0.035156;0.033203;1.021484;
24904;-0.036133;0.033203;1.020508;
25040;-0.035156;0.033203;1.022461;
25203;-0.036133;0.034180;1.018555;
25343;-0.034180;0.033203;1.019531;
25474;-0.035156;0.034180;1.021484;
25609;-0.037109;0.035156;1.021484;
25790;-0.036133;0.033203;1.022461;
25944;-0.035156;0.036133;1.025391;
26093;-0.038086;0.034180;1.017578;
26233;-0.035156;0.035156;1.019531;
26383;-0.036133;0.033203;1.018555;
26523;-0.035156;0.034180;1.022461;
26663;-0.036133;0.033203;1.021484;
26804;-0.035156;0.035156;1.022461;
26943;-0.036133;0.033203;1.019531;
27083;-0.036133;0.035156;1.020508;
27223;-0.035156;0.033203;1.021484;
27363;-0.035156;0.035156;1.019531;
27503;-0.036133;0.034180;1.024414;
27643;-0.034180;0.034180;1.023438;
27783;-0.036133;0.033203;1.018555;
27953;-0.036133;0.033203;1.020508;
28090;-0.035156;0.034180;1.024414;
28239;-0.037109;0.034180;1.022461;
28423;-0.035156;0.035156;1.020508;
28573;-0.035156;0.034180;1.021484;
28719;-0.036133;0.034180;1.020508;
28893;-0.035156;0.033203;1.021484;
29033;-0.035156;0.032227;1.020508;
29174;-0.035156;0.034180;1.022461;
29309;-0.035156;0.035156;1.023438;
29463;-0.035156;0.034180;1.021484;
29604;-0.036133;0.034180;1.019531;
29753;-0.036133;0.033203;1.019531;
29889;-0.034180;0.035156;1.023438;
30033;-0.035156;0.034180;1.020508;
30183;-0.036133;0.033203;1.021484;
30324;-0.036133;0.033203;1.021484;
30474;-0.036133;0.032227;1.022461;
30610;-0.035156;0.035156;1.024414;
30789;-0.035156;0.033203;1.021484;
30979;-0.036133;0.034180;1.020508;
31133;-0.036133;0.033203;1.021484;
31274;-0.035156;0.033203;1.018555;
31414;-0.037109;0.034180;1.022461;
31554;-0.035156;0.033203;1.021484;
31694;-0.035156;0.033203;1.019531;
31833;-0.035156;0.032227;1.021484;
31974;-0.038086;0.033203;1.019531;
32114;-0.038086;0.033203;1.021484;
32253;-0.036133;0.033203;1.021484;
32393;-0.036133;0.034180;1.020508;
32533;-0.035156;0.034180;1.022461;
32671;-0.034180;0.034180;1.021484;
32823;-0.036133;0.033203;1.021484;
32959;-0.036133;0.032227;1.020508;
33129;-0.035156;0.035156;1.021484;
33344;-0.036133;0.034180;1.022461;
33493;-0.035156;0.035156;1.021484;
33643;-0.035156;0.033203;1.022461;
33784;-0.036133;0.031250;1.021484;
33933;-0.035156;0.033203;1.021484;
34073;-0.036133;0.033203;1.022461;
34213;-0.036133;0.033203;1.020508;
34354;-0.035156;0.036133;1.021484;
34493;-0.035156;0.032227;1.021484;
34634;-0.035156;0.033203;1.021484;
34773;-0.036133;0.032227;1.020508;
34914;-0.036133;0.034180;1.021484;
35054;-0.036133;0.033203;1.020508;
35193;-0.036133;0.033203;1.022461;
35340;-0.036133;0.032227;1.021484;
35509;-0.036133;0.032227;1.020508;
35683;-0.036133;0.034180;1.021484;
35833;-0.036133;0.033203;1.022461;
35983;-0.035156;0.033203;1.020508;
36120;-0.035156;0.033203;1.020508;
36293;-0.035156;0.036133;1.020508;
36443;-0.036133;0.035156;1.020508;
36584;-0.036133;0.034180;1.022461;
36724;-0.035156;0.034180;1.021484;
36863;-0.034180;0.035156;1.021484;
37003;-0.035156;0.033203;1.022461;
37144;-0.034180;0.035156;1.023438;
37289;-0.035156;0.034180;1.020508;
37434;-0.038086;0.032227;1.021484;
37570;-0.038086;0.034180;1.021484;
37749;-0.035156;0.034180;1.019531;
37944;-0.035156;0.034180;1.022461;
38093;-0.035156;0.034180;1.021484;
38234;-0.036133;0.032227;1.019531;
38374;-0.035156;0.035156;1.022461;
38524;-0.036133;0.034180;1.019531;
38664;-0.035156;0.033203;1.022461;
38813;-0.035156;0.033203;1.023438;
38953;-0.036133;0.032227;1.021484;
39094;-0.035156;0.034180;1.022461;
39234;-0.036133;0.033203;1.022461;
39374;-0.036133;0.034180;1.020508;
39523;-0.035156;0.034180;1.022461;
39664;-0.035156;0.034180;1.023438;
39803;-0.035156;0.032227;1.022461;
39949;-0.035156;0.033203;1.021484;
40122;-0.036133;0.032227;1.020508;
40304;-0.036133;0.034180;1.021484;
40443;-0.035156;0.032227;1.022461;
40583;-0.035156;0.034180;1.022461;
40725;-0.036133;0.033203;1.020508;
40893;-0.035156;0.034180;1.023438;
41033;-0.035156;0.034180;1.021484;
41173;-0.035156;0.034180;1.022461;
41310;-0.037109;0.034180;1.022461;
41473;-0.036133;0.034180;1.020508;
41623;-0.035156;0.033203;1.021484;
41764;-0.036133;0.033203;1.021484;
41899;-0.035156;0.033203;1.022461;
42063;-0.035156;0.034180;1.022461;
42203;-0.035156;0.034180;1.021484;
42355;-0.035156;0.033203;1.021484;
42539;-0.036133;0.033203;1.021484;
42709;-0.036133;0.033203;1.021484;
42883;-0.036133;0.034180;1.021484;
43023;-0.036133;0.034180;1.020508;
43163;-0.036133;0.034180;1.021484;
43314;-0.037109;0.032227;1.020508;
43453;-0.036133;0.032227;1.020508;
43594;-0.035156;0.034180;1.021484;
43744;-0.036133;0.034180;1.021484;
43890;-0.035156;0.036133;1.021484;
44043;-0.035156;0.035156;1.022461;
44184;-0.035156;0.033203;1.022461;
44333;-0.035156;0.034180;1.020508;
44469;-0.035156;0.032227;1.021484;
44624;-0.036133;0.032227;1.020508;
44763;-0.034180;0.035156;1.022461;
44909;-0.036133;0.033203;1.021484;
45089;-0.036133;0.034180;1.021484;
45274;-0.036133;0.035156;1.022461;
45414;-0.035156;0.035156;1.024414;
45554;-0.036133;0.033203;1.019531;
45694;-0.036133;0.033203;1.022461;
45833;-0.036133;0.034180;1.020508;
45974;-0.035156;0.032227;1.020508;
46114;-0.035156;0.034180;1.022461;
46254;-0.035156;0.032227;1.020508;
46393;-0.035156;0.032227;1.022461;
46529;-0.037109;0.035156;1.020508;
46674;-0.035156;0.034180;1.021484;
46813;-0.035156;0.033203;1.021484;
46953;-0.035156;0.033203;1.022461;
47093;-0.035156;0.035156;1.021484;
47249;-0.036133;0.033203;1.021484;
47439;-0.035156;0.034180;1.020508;
47603;-0.036133;0.033203;1.022461;
47739;-0.035156;0.035156;1.022461;
47894;-0.035156;0.035156;1.020508;
48043;-0.035156;0.033203;1.021484;
48184;-0.035156;0.034180;1.021484;
48321;-0.035156;0.034180;1.020508;
48474;-0.035156;0.035156;1.021484;
48623;-0.035156;0.033203;1.020508;
48764;-0.035156;0.034180;1.022461;
48899;-0.036133;0.035156;1.022461;
49044;-0.036133;0.033203;1.022461;
49183;-0.035156;0.034180;1.021484;
49324;-0.035156;0.033203;1.023438;
49460;-0.035156;0.033203;1.022461;
49621;-0.035156;0.034180;1.022461;
49791;-0.034180;0.034180;1.020508;
49963;-0.036133;0.033203;1.020508;
50113;-0.037109;0.032227;1.021484;
50254;-0.035156;0.034180;1.022461;
50403;-0.036133;0.034180;1.020508;
50541;-0.035156;0.033203;1.022461;
50724;-0.034180;0.034180;1.021484;
50863;-0.035156;0.036133;1.021484;
51003;-0.035156;0.033203;1.021484;
51145;-0.035156;0.033203;1.022461;
51314;-0.035156;0.033203;1.024414;
51464;-0.035156;0.033203;1.021484;
51604;-0.034180;0.034180;1.020508;
51749;-0.036133;0.032227;1.023438;
51889;-0.036133;0.033203;1.020508;
52069;-0.034180;0.033203;1.021484;
52244;-0.035156;0.034180;1.022461;
52391;-0.037109;0.034180;1.020508;
52534;-0.035156;0.034180;1.023438;
52673;-0.035156;0.033203;1.020508;
52814;-0.034180;0.033203;1.020508;
52949;-0.035156;0.034180;1.021484;
53104;-0.035156;0.033203;1.023438;
53244;-0.036133;0.033203;1.023438;
53393;-0.036133;0.035156;1.024414;
53529;-0.036133;0.034180;1.020508;
53684;-0.035156;0.032227;1.021484;
53824;-0.036133;0.035156;1.020508;
53963;-0.036133;0.034180;1.021484;
54100;-0.036133;0.035156;1.020508;
54249;-0.035156;0.033203;1.022461;
54420;-0.035156;0.035156;1.023438;
54584;-0.036133;0.034180;1.022461;
54734;-0.035156;0.033203;1.021484;
54874;-0.035156;0.034180;1.021484;
55014;-0.036133;0.034180;1.021484;
55154;-0.036133;0.033203;1.021484;
55293;-0.036133;0.033203;1.021484;
55433;-0.036133;0.033203;1.022461;
55574;-0.036133;0.034180;1.022461;
55713;-0.035156;0.033203;1.020508;
55863;-0.036133;0.033203;1.022461;
56004;-0.035156;0.034180;1.022461;
56144;-0.036133;0.033203;1.021484;
56291;-0.035156;0.033203;1.022461;
56444;-0.035156;0.034180;1.023438;
56589;-0.036133;0.032227;1.022461;
56759;-0.035156;0.032227;1.022461;
56930;-0.036133;0.033203;1.020508;
57104;-0.033203;0.034180;1.022461;
57244;-0.035156;0.035156;1.022461;
57384;-0.034180;0.034180;1.021484;
57535;-0.035156;0.032227;1.022461;
57694;-0.035156;0.034180;1.022461;
57834;-0.034180;0.033203;1.021484;
57974;-0.035156;0.034180;1.023438;
58123;-0.036133;0.035156;1.022461;
58284;-0.036133;0.034180;1.022461;
58424;-0.035156;0.033203;1.021484;
58564;-0.035156;0.034180;1.021484;
58714;-0.035156;0.033203;1.022461;
58854;-0.036133;0.032227;1.021484;
59003;-0.034180;0.034180;1.022461;
59145;-0.037109;0.035156;1.021484;
59299;-0.036133;0.033203;1.020508;
59450;-0.035156;0.033203;1.021484;
59609;-0.035156;0.033203;1.021484;
59773;-0.035156;0.034180;1.022461;
59924;-0.036133;0.033203;1.019531;
60074;-0.036133;0.034180;1.023438;
60223;-0.035156;0.033203;1.022461;
60364;-0.035156;0.034180;1.021484;
60513;-0.036133;0.034180;1.021484;
60649;-0.035156;0.032227;1.021484;
60789;-0.036133;0.034180;1.020508;
60944;-0.037109;0.031250;1.020508;
61093;-0.035156;0.033203;1.022461;
61233;-0.035156;0.033203;1.022461;
61369;-0.037109;0.032227;1.020508;
61523;-0.037109;0.035156;1.020508;
61659;-0.035156;0.034180;1.021484;
61819;-0.035156;0.034180;1.021484;
61960;-0.035156;0.034180;1.021484;
62099;-0.036133;0.034180;1.022461;
62263;-0.035156;0.033203;1.023438;
62413;-0.035156;0.033203;1.021484;
62554;-0.037109;0.033203;1.023438;
62694;-0.036133;0.033203;1.022461;
62833;-0.036133;0.034180;1.019531;
62974;-0.034180;0.035156;1.021484;
63124;-0.036133;0.033203;1.021484;
63274;-0.036133;0.032227;1.021484;
63413;-0.035156;0.035156;1.023438;
63554;-0.035156;0.034180;1.023438;
63693;-0.035156;0.033203;1.021484;
63834;-0.036133;0.033203;1.020508;
63974;-0.035156;0.034180;1.023438;
64113;-0.035156;0.033203;1.021484;
64250;-0.034180;0.033203;1.020508;
64419;-0.035156;0.035156;1.024414;
64601;-0.036133;0.032227;1.021484;
64763;-0.035156;0.034180;1.022461;
64915;-0.034180;0.035156;1.022461;
65084;-0.035156;0.034180;1.023438;
65224;-0.035156;0.034180;1.022461;
65364;-0.036133;0.034180;1.021484;
65513;-0.035156;0.035156;1.023438;
65664;-0.035156;0.034180;1.022461;
65804;-0.035156;0.034180;1.021484;
65943;-0.034180;0.034180;1.022461;
66083;-0.035156;0.034180;1.022461;
66234;-0.036133;0.033203;1.020508;
66383;-0.035156;0.034180;1.021484;
66524;-0.035156;0.036133;1.021484;
66673;-0.035156;0.034180;1.023438;
66814;-0.035156;0.033203;1.022461;
66959;-0.036133;0.034180;1.021484;
67130;-0.035156;0.033203;1.021484;
67305;-0.035156;0.034180;1.022461;
67473;-0.035156;0.034180;1.023438;
67614;-0.035156;0.030273;1.023438;
67753;-0.035156;0.034180;1.023438;
67889;-0.035156;0.034180;1.020508;
68034;-0.037109;0.033203;1.022461;
68174;-0.036133;0.034180;1.023438;
68324;-0.035156;0.035156;1.022461;
68464;-0.035156;0.033203;1.021484;
68604;-0.037109;0.033203;1.022461;
68744;-0.035156;0.033203;1.023438;
68883;-0.036133;0.035156;1.021484;
69024;-0.036133;0.033203;1.023438;
69164;-0.035156;0.034180;1.021484;
69309;-0.036133;0.033203;1.023438;
69489;-0.035156;0.034180;1.021484;
69664;-0.035156;0.034180;1.022461;
69804;-0.036133;0.034180;1.022461;
69943;-0.035156;0.034180;1.022461;
70083;-0.035156;0.034180;1.022461;
70224;-0.036133;0.031250;1.020508;
70363;-0.036133;0.033203;1.022461;
70504;-0.036133;0.033203;1.022461;
70643;-0.035156;0.034180;1.023438;
70794;-0.035156;0.033203;1.023438;
70934;-0.035156;0.034180;1.023438;
71073;-0.035156;0.034180;1.022461;
71214;-0.036133;0.034180;1.022461;
71370;-0.036133;0.033203;1.023438;
71523;-0.035156;0.033203;1.021484;
71659;-0.034180;0.035156;1.022461;
71819;-0.036133;0.034180;1.021484;
71979;-0.036133;0.033203;1.022461;
72129;-0.035156;0.033203;1.022461;
72283;-0.035156;0.033203;1.022461;
72433;-0.035156;0.034180;1.021484;
72574;-0.034180;0.033203;1.021484;
72709;-0.035156;0.035156;1.022461;
72873;-0.035156;0.034180;1.021484;
73014;-0.035156;0.034180;1.023438;
73154;-0.035156;0.035156;1.022461;
73300;-0.035156;0.034180;1.022461;
73454;-0.035156;0.034180;1.021484;
73593;-0.036133;0.035156;1.021484;
73734;-0.035156;0.033203;1.023438;
73874;-0.034180;0.033203;1.022461;
74024;-0.036133;0.034180;1.022461;
74164;-0.035156;0.034180;1.022461;
74310;-0.035156;0.033203;1.022461;
74469;-0.036133;0.034180;1.022461;
74609;-0.035156;0.032227;1.021484;
74759;-0.036133;0.032227;1.022461;
74923;-0.036133;0.035156;1.022461;
75064;-0.035156;0.034180;1.021484;
75204;-0.036133;0.032227;1.023438;
75340;-0.035156;0.032227;1.021484;
75494;-0.035156;0.033203;1.021484;
75643;-0.037109;0.035156;1.022461;
75784;-0.035156;0.033203;1.020508;
75929;-0.036133;0.032227;1.020508;
76083;-0.035156;0.033203;1.022461;
76224;-0.035156;0.033203;1.022461;
76363;-0.035156;0.035156;1.020508;
76499;-0.036133;0.034180;1.021484;
76654;-0.036133;0.034180;1.020508;
76794;-0.035156;0.034180;1.022461;
76939;-0.035156;0.033203;1.022461;
77100;-0.034180;0.034180;1.022461;
77259;-0.035156;0.032227;1.021484;
77414;-0.036133;0.033203;1.020508;
77563;-0.036133;0.032227;1.021484;
77704;-0.036133;0.035156;1.021484;
77839;-0.036133;0.034180;1.021484;
77984;-0.036133;0.035156;1.021484;
78123;-0.035156;0.034180;1.023438;
78264;-0.035156;0.033203;1.022461;
78404;-0.036133;0.034180;1.019531;
78544;-0.036133;0.033203;1.023438;
78683;-0.036133;0.034180;1.021484;
78823;-0.036133;0.035156;1.021484;
78964;-0.035156;0.033203;1.024414;
79104;-0.035156;0.034180;1.022461;
79239;-0.035156;0.033203;1.022461;
79389;-0.035156;0.032227;1.021484;
79549;-0.036133;0.034180;1.021484;
79714;-0.034180;0.035156;1.022461;
79854;-0.035156;0.034180;1.021484;
79994;-0.036133;0.033203;1.021484;
80134;-0.035156;0.033203;1.022461;
80269;-0.035156;0.034180;1.024414;
80433;-0.035156;0.034180;1.022461;
80583;-0.035156;0.035156;1.021484;
80724;-0.036133;0.035156;1.023438;
80859;-0.035156;0.036133;1.023438;
81024;-0.035156;0.033203;1.021484;
81163;-0.035156;0.033203;1.024414;
81304;-0.035156;0.033203;1.022461;
81439;-0.035156;0.033203;1.021484;
81604;-0.036133;0.035156;1.024414;
81739;-0.036133;0.033203;1.022461;
81889;-0.034180;0.034180;1.021484;
82049;-0.035156;0.034180;1.021484;
82214;-0.036133;0.033203;1.020508;
82353;-0.034180;0.034180;1.022461;
82493;-0.035156;0.033203;1.022461;
82629;-0.035156;0.034180;1.023438;
82774;-0.035156;0.035156;1.022461;
82913;-0.035156;0.035156;1.022461;
83053;-0.035156;0.035156;1.023438;
83189;-0.035156;0.033203;1.023438;
83343;-0.036133;0.034180;1.022461;
83483;-0.033203;0.035156;1.023438;
83623;-0.036133;0.033203;1.022461;
83759;-0.035156;0.034180;1.022461;
83913;-0.035156;0.034180;1.022461;
84049;-0.035156;0.034180;1.022461;
84219;-0.036133;0.034180;1.023438;
84389;-0.035156;0.034180;1.023438;
84564;-0.034180;0.035156;1.021484;
84704;-0.035156;0.034180;1.023438;
84844;-0.035156;0.034180;1.023438;
84983;-0.034180;0.036133;1.023438;
85120;-0.035156;0.033203;1.023438;
85264;-0.035156;0.033203;1.022461;
85403;-0.035156;0.035156;1.021484;
85543;-0.035156;0.034180;1.022461;
85679;-0.034180;0.035156;1.022461;
85834;-0.036133;0.034180;1.022461;
85973;-0.036133;0.034180;1.024414;
86113;-0.035156;0.032227;1.021484;
86249;-0.035156;0.034180;1.020508;
86413;-0.035156;0.034180;1.022461;
86549;-0.036133;0.034180;1.020508;
86719;-0.035156;0.034180;1.021484;
86879;-0.036133;0.035156;1.020508;
87030;-0.035156;0.036133;1.022461;
87183;-0.034180;0.034180;1.021484;
87323;-0.035156;0.034180;1.022461;
87464;-0.035156;0.033203;1.023438;
87599;-0.036133;0.034180;1.022461;
87743;-0.036133;0.035156;1.024414;
87883;-0.036133;0.032227;1.021484;
88024;-0.036133;0.034180;1.022461;
88163;-0.035156;0.032227;1.023438;
88314;-0.034180;0.034180;1.021484;
88454;-0.035156;0.034180;1.022461;
88604;-0.035156;0.033203;1.022461;
88744;-0.036133;0.032227;1.020508;
88884;-0.034180;0.035156;1.023438;
89023;-0.035156;0.034180;1.022461;
89169;-0.035156;0.033203;1.021484;
89329;-0.036133;0.035156;1.024414;
89489;-0.036133;0.034180;1.023438;
89644;-0.036133;0.033203;1.022461;
89784;-0.035156;0.033203;1.023438;
89924;-0.036133;0.033203;1.022461;
90073;-0.035156;0.034180;1.021484;
90214;-0.035156;0.034180;1.023438;
90354;-0.034180;0.033203;1.022461;
90493;-0.035156;0.034180;1.021484;
90634;-0.035156;0.032227;1.022461;
90770;-0.036133;0.034180;1.021484;
90914;-0.036133;0.034180;1.023438;
91063;-0.036133;0.033203;1.021484;
91204;-0.036133;0.033203;1.022461;
91339;-0.036133;0.033203;1.022461;
91484;-0.036133;0.033203;1.021484;
91629;-0.035156;0.035156;1.021484;
91780;-0.036133;0.034180;1.023438;
91939;-0.034180;0.035156;1.022461;
92089;-0.036133;0.033203;1.021484;
92244;-0.035156;0.034180;1.021484;
92384;-0.036133;0.034180;1.022461;
92524;-0.036133;0.035156;1.023438;
92663;-0.035156;0.035156;1.022461;
92804;-0.034180;0.035156;1.022461;
92943;-0.035156;0.034180;1.021484;
93084;-0.035156;0.035156;1.021484;
93223;-0.036133;0.034180;1.022461;
93374;-0.036133;0.034180;1.021484;
93513;-0.035156;0.034180;1.022461;
93653;-0.035156;0.035156;1.024414;
93794;-0.036133;0.034180;1.022461;
93929;-0.035156;0.035156;1.022461;
94074;-0.036133;0.034180;1.021484;
94219;-0.036133;0.032227;1.022461;
94380;-0.037109;0.032227;1.022461;
94539;-0.037109;0.035156;1.021484;
94704;-0.035156;0.034180;1.022461;
94854;-0.036133;0.035156;1.022461;
94994;-0.035156;0.033203;1.023438;
95129;-0.037109;0.033203;1.021484;
95269;-0.035156;0.031250;1.021484;
95414;-0.035156;0.033203;1.023438;
95554;-0.035156;0.035156;1.023438;
95693;-0.036133;0.034180;1.023438;
95839;-0.036133;0.034180;1.022461;
95984;-0.035156;0.033203;1.022461;
96124;-0.034180;0.034180;1.023438;
96263;-0.036133;0.035156;1.021484;
96400;-0.036133;0.031250;1.022461;
96559;-0.035156;0.034180;1.021484;
96720;-0.035156;0.034180;1.021484;
96880;-0.035156;0.035156;1.023438;
97029;-0.035156;0.036133;1.022461;
97174;-0.036133;0.033203;1.022461;
97313;-0.036133;0.034180;1.022461;
97454;-0.035156;0.034180;1.022461;
97589;-0.036133;0.033203;1.021484;
97753;-0.035156;0.033203;1.021484;
97903;-0.036133;0.033203;1.021484;
98043;-0.036133;0.033203;1.022461;
98179;-0.035156;0.033203;1.022461;
98343;-0.036133;0.033203;1.024414;
98494;-0.036133;0.033203;1.024414;
98634;-0.036133;0.034180;1.022461;
98779;-0.035156;0.033203;1.023438;
98943;-0.036133;0.035156;1.023438;
99083;-0.035156;0.036133;1.022461;
99231;-0.036133;0.035156;1.022461;
99390;-0.035156;0.033203;1.022461;
99549;-0.035156;0.034180;1.022461;
99713;-0.035156;0.035156;1.023438;
99864;-0.034180;0.036133;1.020508;
100004;-0.034180;0.034180;1.020508;
100141;-0.035156;0.033203;1.022461;
100304;-0.036133;0.035156;1.020508;
100443;-0.034180;0.034180;1.023438;
100583;-0.036133;0.034180;1.021484;
100721;-0.035156;0.035156;1.022461;
100894;-0.034180;0.034180;1.024414;
101033;-0.035156;0.033203;1.021484;
101174;-0.035156;0.034180;1.023438;
101310;-0.036133;0.035156;1.023438;
101473;-0.035156;0.033203;1.021484;
101614;-0.036133;0.033203;1.022461;
101759;-0.035156;0.032227;1.022461;
101919;-0.036133;0.034180;1.022461;
102069;-0.035156;0.036133;1.023438;
102219;-0.035156;0.035156;1.021484;
102384;-0.035156;0.033203;1.023438;
102534;-0.035156;0.034180;1.022461;
102669;-0.036133;0.035156;1.022461;
102844;-0.034180;0.034180;1.021484;
102983;-0.036133;0.036133;1.022461;
103124;-0.034180;0.035156;1.022461;
103259;-0.035156;0.036133;1.023438;
103403;-0.035156;0.035156;1.022461;
103544;-0.036133;0.033203;1.022461;
103694;-0.036133;0.033203;1.022461;
103834;-0.035156;0.033203;1.021484;
103994;-0.034180;0.033203;1.020508;
104134;-0.035156;0.035156;1.022461;
104274;-0.035156;0.035156;1.023438;
104410;-0.036133;0.036133;1.024414;
104569;-0.035156;0.034180;1.022461;
104739;-0.036133;0.033203;1.022461;
104913;-0.035156;0.033203;1.021484;
105049;-0.036133;0.034180;1.021484;
105214;-0.036133;0.033203;1.021484;
105363;-0.037109;0.031250;1.022461;
105504;-0.036133;0.033203;1.023438;
105639;-0.037109;0.034180;1.023438;
105793;-0.034180;0.035156;1.021484;
105934;-0.035156;0.034180;1.023438;
106073;-0.036133;0.033203;1.021484;
106209;-0.036133;0.033203;1.021484;
106373;-0.035156;0.035156;1.021484;
106514;-0.036133;0.033203;1.021484;
106654;-0.034180;0.033203;1.022461;
106794;-0.034180;0.034180;1.021484;
106959;-0.036133;0.034180;1.024414;
107121;-0.037109;0.034180;1.022461;
107293;-0.036133;0.033203;1.023438;
107444;-0.034180;0.034180;1.021484;
107584;-0.035156;0.035156;1.021484;
107724;-0.035156;0.034180;1.024414;
107864;-0.035156;0.034180;1.024414;
108014;-0.035156;0.037109;1.022461;
108154;-0.036133;0.035156;1.024414;
108294;-0.036133;0.034180;1.021484;
108433;-0.036133;0.033203;1.022461;
108570;-0.034180;0.035156;1.023438;
108724;-0.036133;0.033203;1.021484;
108864;-0.036133;0.034180;1.020508;
109003;-0.036133;0.033203;1.022461;
109144;-0.036133;0.033203;1.023438;
109281;-0.034180;0.036133;1.023438;
109439;-0.035156;0.033203;1.022461;
109599;-0.036133;0.033203;1.022461;
109754;-0.037109;0.032227;1.022461;
109894;-0.035156;0.033203;1.022461;
110033;-0.037109;0.035156;1.023438;
110173;-0.037109;0.034180;1.021484;
110324;-0.035156;0.034180;1.023438;
110463;-0.034180;0.035156;1.021484;
110603;-0.035156;0.032227;1.022461;
110744;-0.035156;0.035156;1.024414;
110890;-0.036133;0.035156;1.022461;
111044;-0.035156;0.033203;1.023438;
111193;-0.035156;0.035156;1.022461;
111334;-0.040039;0.032227;0.998047;
111469;-0.035156;0.035156;1.020508;
111623;-0.034180;0.035156;1.026367;
111770;-0.037109;0.033203;1.016602;
111929;-0.035156;0.034180;1.026367;
112090;-0.035156;0.033203;1.027344;
112239;-0.034180;0.033203;1.023438;
112394;-0.035156;0.031250;1.026367;
112534;-0.032227;0.035156;1.025391;
112674;-0.035156;0.037109;1.015625;
112810;-0.038086;0.035156;1.012695;
112963;-0.038086;0.038086;1.049805;
113103;-0.035156;0.033203;1.019531;
113244;-0.036133;0.034180;1.019531;
113384;-0.035156;0.034180;1.019531;
113523;-0.037109;0.033203;1.016602;
113663;-0.034180;0.034180;1.027344;
113803;-0.035156;0.035156;1.027344;
113964;-0.033203;0.034180;1.028320;
114104;-0.034180;0.035156;1.023438;
114239;-0.037109;0.035156;1.012695;
114390;-0.038086;0.034180;1.020508;
114529;-0.034180;0.034180;1.023438;
114699;-0.036133;0.034180;1.020508;
114870;-0.036133;0.035156;1.017578;
115044;-0.037109;0.034180;1.018555;
115184;-0.036133;0.033203;1.016602;
115324;-0.035156;0.034180;1.021484;
115459;-0.036133;0.033203;1.022461;
115604;-0.035156;0.034180;1.022461;
115743;-0.036133;0.032227;1.023438;
115883;-0.037109;0.032227;1.020508;
116025;-0.035156;0.035156;1.021484;
116179;-0.038086;0.035156;1.011719;
116324;-0.035156;0.037109;1.016602;
116463;-0.035156;0.033203;1.026367;
116604;-0.036133;0.033203;1.031250;
116741;-0.033203;0.031250;1.032227;
116891;-0.035156;0.035156;1.024414;
117049;-0.031250;0.033203;1.030273;
117220;-0.038086;0.036133;1.020508;
117369;-0.037109;0.032227;1.015625;
117534;-0.032227;0.032227;1.024414;
117684;-0.035156;0.030273;1.020508;
117824;-0.040039;0.035156;1.000977;
117970;-0.036133;0.033203;1.017578;
118133;-0.034180;0.036133;1.027344;
118273;-0.036133;0.034180;1.024414;
118413;-0.036133;0.034180;1.025391;
118550;-0.035156;0.033203;1.021484;
118704;-0.036133;0.031250;1.021484;
118844;-0.037109;0.035156;1.023438;
118984;-0.035156;0.035156;1.023438;
119119;-0.035156;0.033203;1.023438;
119284;-0.037109;0.034180;1.012695;
119431;-0.033203;0.034180;1.020508;
119580;-0.033203;0.034180;1.028320;
119751;-0.035156;0.033203;1.024414;
119909;-0.038086;0.035156;1.013672;
120074;-0.036133;0.035156;1.022461;
120223;-0.033203;0.035156;1.027344;
120364;-0.033203;0.033203;1.024414;
120501;-0.034180;0.035156;1.019531;
120654;-0.035156;0.033203;1.022461;
120794;-0.036133;0.032227;1.021484;
120933;-0.036133;0.035156;1.023438;
121074;-0.035156;0.036133;1.021484;
121210;-0.035156;0.033203;1.020508;
121373;-0.034180;0.036133;1.024414;
121514;-0.036133;0.035156;1.022461;
121653;-0.036133;0.033203;1.019531;
121790;-0.035156;0.034180;1.023438;
121949;-0.033203;0.035156;1.026367;
122109;-0.034180;0.033203;1.021484;
122279;-0.035156;0.035156;1.020508;
122419;-0.036133;0.034180;1.023438;
122574;-0.035156;0.033203;1.018555;
122714;-0.036133;0.036133;1.027344;
122854;-0.036133;0.034180;1.015625;
122994;-0.035156;0.038086;1.027344;
123154;-0.033203;0.034180;1.029297;
123293;-0.036133;0.034180;1.024414;
123434;-0.035156;0.035156;1.028320;
123574;-0.032227;0.032227;1.030273;
123709;-0.036133;0.033203;1.023438;
123854;-0.035156;0.034180;1.023438;
124003;-0.034180;0.035156;1.021484;
124144;-0.036133;0.033203;1.025391;
124290;-0.035156;0.034180;1.023438;
124441;-0.034180;0.033203;1.020508;
124589;-0.034180;0.034180;1.024414;
124739;-0.035156;0.035156;1.021484;
124904;-0.032227;0.031250;1.029297;
125054;-0.034180;0.036133;1.024414;
125194;-0.033203;0.034180;1.032227;
125334;-0.035156;0.033203;1.021484;
125489;-0.036133;0.033203;1.021484;
125634;-0.035156;0.030273;1.017578;
125774;-0.035156;0.033203;1.020508;
125913;-0.035156;0.033203;1.019531;
126049;-0.035156;0.034180;1.022461;
126203;-0.035156;0.036133;1.033203;
126344;-0.034180;0.032227;1.019531;
126484;-0.035156;0.034180;1.023438;
126624;-0.035156;0.034180;1.023438;
126784;-0.035156;0.034180;1.023438;
126919;-0.034180;0.035156;1.023438;
127069;-0.035156;0.032227;1.022461;
127219;-0.034180;0.033203;1.022461;
127389;-0.034180;0.035156;1.023438;
127564;-0.034180;0.033203;1.023438;
127704;-0.035156;0.031250;1.022461;
127844;-0.035156;0.035156;1.022461;
127979;-0.036133;0.033203;1.023438;
128121;-0.034180;0.034180;1.022461;
128274;-0.035156;0.034180;1.022461;
128414;-0.033203;0.035156;1.024414;
128553;-0.035156;0.034180;1.023438;
128694;-0.036133;0.033203;1.023438;
128844;-0.034180;0.034180;1.023438;
128993;-0.035156;0.034180;1.022461;
129134;-0.034180;0.033203;1.023438;
129274;-0.036133;0.033203;1.021484;
129409;-0.035156;0.033203;1.022461;
129561;-0.034180;0.033203;1.023438;
129720;-0.035156;0.034180;1.023438;
129900;-0.034180;0.034180;1.023438;
130074;-0.035156;0.034180;1.023438;
130209;-0.034180;0.035156;1.022461;
130374;-0.035156;0.034180;1.023438;
130524;-0.036133;0.033203;1.022461;
130664;-0.035156;0.034180;1.023438;
130801;-0.035156;0.035156;1.023438;
130964;-0.034180;0.034180;1.023438;
131104;-0.036133;0.035156;1.024414;
131243;-0.035156;0.034180;1.023438;
131384;-0.036133;0.034180;1.024414;
131524;-0.034180;0.033203;1.023438;
131664;-0.034180;0.035156;1.024414;
131804;-0.034180;0.034180;1.023438;
131943;-0.034180;0.035156;1.023438;
132090;-0.035156;0.033203;1.023438;
132251;-0.035156;0.033203;1.023438;
132409;-0.034180;0.035156;1.023438;
132570;-0.035156;0.033203;1.021484;
132719;-0.035156;0.036133;1.024414;
132864;-0.034180;0.033203;1.023438;
133003;-0.033203;0.035156;1.024414;
133144;-0.034180;0.035156;1.022461;
133280;-0.034180;0.035156;1.023438;
133443;-0.036133;0.033203;1.022461;
133583;-0.034180;0.034180;1.022461;
133724;-0.035156;0.033203;1.022461;
133869;-0.035156;0.036133;1.023438;
134034;-0.036133;0.033203;1.024414;
134173;-0.034180;0.035156;1.023438;
134313;-0.035156;0.033203;1.025391;
134449;-0.034180;0.035156;1.022461;
134610;-0.036133;0.032227;1.021484;
134770;-0.036133;0.034180;1.022461;
134929;-0.036133;0.034180;1.023438;
135084;-0.035156;0.036133;1.023438;
135223;-0.034180;0.034180;1.022461;
135364;-0.034180;0.035156;1.023438;
135499;-0.034180;0.035156;1.025391;
135674;-0.033203;0.033203;1.023438;
135824;-0.036133;0.033203;1.023438;
135963;-0.036133;0.034180;1.024414;
136100;-0.036133;0.031250;1.022461;
136264;-0.033203;0.034180;1.023438;
136404;-0.035156;0.033203;1.024414;
136543;-0.035156;0.034180;1.024414;
136683;-0.036133;0.033203;1.020508;
136833;-0.034180;0.034180;1.024414;
136979;-0.034180;0.035156;1.024414;
137139;-0.036133;0.033203;1.022461;
137289;-0.034180;0.035156;1.023438;
137453;-0.035156;0.034180;1.020508;
137594;-0.035156;0.035156;1.022461;
137734;-0.035156;0.034180;1.022461;
137874;-0.034180;0.034180;1.024414;
138024;-0.036133;0.034180;1.023438;
138173;-0.033203;0.035156;1.025391;
138314;-0.033203;0.034180;1.022461;
138453;-0.035156;0.036133;1.023438;
138594;-0.035156;0.035156;1.022461;
138733;-0.036133;0.034180;1.022461;
138874;-0.034180;0.035156;1.023438;
139014;-0.035156;0.033203;1.024414;
139159;-0.034180;0.034180;1.025391;
139313;-0.035156;0.034180;1.023438;
139459;-0.036133;0.034180;1.022461;
139609;-0.036133;0.035156;1.021484;
139769;-0.035156;0.034180;1.023438;
139930;-0.034180;0.033203;1.023438;
140084;-0.035156;0.033203;1.019531;
140224;-0.035156;0.034180;1.024414;
140364;-0.035156;0.034180;1.023438;
140519;-0.033203;0.036133;1.023438;
140664;-0.034180;0.034180;1.024414;
140814;-0.034180;0.033203;1.023438;
140953;-0.033203;0.035156;1.024414;
141089;-0.036133;0.035156;1.022461;
141243;-0.034180;0.036133;1.024414;
141384;-0.034180;0.033203;1.023438;
141523;-0.036133;0.033203;1.022461;
141664;-0.034180;0.034180;1.025391;
141814;-0.034180;0.033203;1.021484;
141949;-0.035156;0.034180;1.022461;
142109;-0.034180;0.033203;1.023438;
142270;-0.034180;0.034180;1.021484;
142434;-0.035156;0.033203;1.024414;
142574;-0.035156;0.033203;1.021484;
142713;-0.034180;0.035156;1.022461;
142854;-0.034180;0.036133;1.023438;
142989;-0.035156;0.036133;1.022461;
143133;-0.036133;0.033203;1.022461;
143273;-0.034180;0.034180;1.023438;
143413;-0.033203;0.033203;1.023438;
143624;-0.035156;0.033203;1.025391;
143844;-0.034180;0.036133;1.022461;
144065;-0.034180;0.033203;1.024414;
144313;-0.032227;0.033203;1.023438;
144533;-0.034180;0.034180;1.023438;
144751;-0.034180;0.037109;1.024414;
144989;-0.035156;0.034180;1.023438;
145209;-0.035156;0.033203;1.023438;
145434;-0.035156;0.034180;1.023438;
145654;-0.034180;0.036133;1.023438;
145869;-0.035156;0.032227;1.022461;
146114;-0.034180;0.034180;1.024414;
146334;-0.035156;0.033203;1.023438;
146554;-0.034180;0.034180;1.024414;
146774;-0.035156;0.035156;1.024414;
146993;-0.035156;0.034180;1.022461;
147234;-0.035156;0.035156;1.023438;
147453;-0.033203;0.034180;1.023438;
147670;-0.036133;0.033203;1.023438;
147923;-0.036133;0.034180;1.023438;
148143;-0.035156;0.033203;1.021484;
148364;-0.034180;0.033203;1.022461;
148579;-0.035156;0.035156;1.022461;
148829;-0.035156;0.034180;1.022461;
149083;-0.035156;0.034180;1.021484;
149304;-0.035156;0.033203;1.021484;
149519;-0.035156;0.034180;1.024414;
149754;-0.035156;0.033203;1.025391;
149974;-0.035156;0.033203;1.023438;
150190;-0.034180;0.034180;1.023438;
150413;-0.033203;0.035156;1.025391;
150633;-0.034180;0.035156;1.023438;
150854;-0.035156;0.036133;1.022461;
151073;-0.034180;0.035156;1.023438;
151290;-0.034180;0.033203;1.023438;
151543;-0.035156;0.033203;1.022461;
151764;-0.035156;0.035156;1.025391;
151984;-0.036133;0.034180;1.021484;
152199;-0.034180;0.034180;1.022461;
152455;-0.034180;0.035156;1.023438;
152694;-0.036133;0.033203;1.023438;
152913;-0.036133;0.033203;1.023438;
153129;-0.034180;0.035156;1.023438;
153364;-0.035156;0.033203;1.021484;
153584;-0.035156;0.034180;1.023438;
153804;-0.035156;0.034180;1.023438;
154024;-0.035156;0.034180;1.021484;
154244;-0.035156;0.036133;1.024414;
154474;-0.034180;0.035156;1.024414;
154693;-0.035156;0.034180;1.022461;
154909;-0.035156;0.034180;1.024414;
155133;-0.034180;0.035156;1.024414;
155354;-0.035156;0.034180;1.022461;
155574;-0.034180;0.033203;1.023438;
155789;-0.035156;0.034180;1.024414;
156031;-0.035156;0.032227;1.023438;
156283;-0.034180;0.034180;1.024414;
156504;-0.035156;0.035156;1.023438;
156724;-0.034180;0.034180;1.022461;
156944;-0.036133;0.032227;1.023438;
157164;-0.037109;0.035156;1.023438;
157343;-0.035156;0.034180;1.023438;
157553;-0.035156;0.035156;1.024414;
157773;-0.036133;0.033203;1.024414;
158013;-0.034180;0.036133;1.022461;
158233;-0.034180;0.036133;1.024414;
158454;-0.035156;0.034180;1.022461;
158673;-0.034180;0.036133;1.024414;
158894;-0.034180;0.035156;1.023438;
159124;-0.035156;0.033203;1.024414;
159340;-0.035156;0.035156;1.024414;
159580;-0.035156;0.034180;1.024414;
159833;-0.034180;0.035156;1.024414;
160054;-0.034180;0.035156;1.023438;
160269;-0.036133;0.033203;1.023438;
160523;-0.035156;0.035156;1.024414;
160744;-0.036133;0.034180;1.021484;
160964;-0.035156;0.034180;1.022461;
161184;-0.035156;0.035156;1.019531;
161403;-0.032227;0.033203;1.029297;
161624;-0.037109;0.035156;1.020508;
161844;-0.037109;0.033203;1.014648;
162059;-0.032227;0.037109;1.030273;
162313;-0.035156;0.033203;1.022461;
162533;-0.040039;0.036133;1.013672;
162749;-0.035156;0.034180;1.020508;
162981;-0.035156;0.035156;1.023438;
163229;-0.035156;0.033203;1.024414;
163484;-0.035156;0.033203;1.023438;
163703;-0.036133;0.034180;1.023438;
163919;-0.036133;0.034180;1.023438;
164173;-0.035156;0.034180;1.022461;
164394;-0.035156;0.035156;1.023438;
164614;-0.034180;0.035156;1.024414;
164834;-0.035156;0.033203;1.021484;
165055;-0.034180;0.032227;1.023438;
165293;-0.035156;0.034180;1.024414;
165513;-0.035156;0.034180;1.025391;
165734;-0.034180;0.034180;1.023438;
165953;-0.036133;0.033203;1.023438;
166174;-0.035156;0.034180;1.023438;
166404;-0.035156;0.033203;1.024414;
166619;-0.035156;0.036133;1.025391;
166869;-0.035156;0.034180;1.023438;
167113;-0.030273;0.039062;1.021484;
167334;-0.043945;0.031250;0.983398;
167554;-0.035156;0.034180;1.026367;
167773;-0.034180;0.034180;1.024414;
167993;-0.034180;0.035156;1.025391;
168224;-0.035156;0.035156;1.022461;
168443;-0.035156;0.034180;1.025391;
168661;-0.035156;0.035156;1.021484;
168903;-0.035156;0.035156;1.022461;
169123;-0.035156;0.035156;1.025391;
169339;-0.034180;0.034180;1.021484;
169583;-0.034180;0.035156;1.025391;
169804;-0.034180;0.034180;1.024414;
170019;-0.034180;0.035156;1.024414;
170239;-0.033203;0.035156;1.023438;
170484;-0.035156;0.034180;1.024414;
170704;-0.034180;0.035156;1.024414;
170923;-0.034180;0.033203;1.024414;
171139;-0.034180;0.036133;1.023438;
171394;-0.035156;0.034180;1.025391;
171614;-0.035156;0.033203;1.022461;
171833;-0.035156;0.032227;1.022461;
172053;-0.034180;0.033203;1.024414;
172275;-0.035156;0.034180;1.021484;
172523;-0.034180;0.035156;1.024414;
172744;-0.034180;0.036133;1.023438;
172959;-0.034180;0.035156;1.022461;
173183;-0.035156;0.035156;1.018555;
173404;-0.033203;0.033203;1.041992;
173624;-0.032227;0.033203;1.029297;
173840;-0.034180;0.035156;1.025391;
174085;-0.035156;0.032227;1.024414;
174334;-0.036133;0.033203;1.024414;
174554;-0.035156;0.032227;1.020508;
174773;-0.035156;0.033203;1.024414;
174993;-0.034180;0.035156;1.024414;
175209;-0.034180;0.034180;1.026367;
175464;-0.035156;0.034180;1.023438;
175684;-0.035156;0.034180;1.024414;
175904;-0.035156;0.032227;1.024414;
176124;-0.035156;0.033203;1.023438;
176343;-0.034180;0.034180;1.023438;
176563;-0.034180;0.033203;1.022461;
176784;-0.033203;0.034180;1.024414;
177004;-0.034180;0.034180;1.023438;
177223;-0.035156;0.034180;1.025391;
177449;-0.035156;0.033203;1.023438;
177700;-0.035156;0.034180;1.023438;
177944;-0.036133;0.031250;1.024414;
178163;-0.035156;0.034180;1.024414;
178384;-0.034180;0.036133;1.026367;
178603;-0.035156;0.033203;1.023438;
178824;-0.035156;0.034180;1.024414;
179054;-0.033203;0.033203;1.022461;
179273;-0.034180;0.035156;1.024414;
179494;-0.036133;0.032227;1.054688;
179724;-0.039062;0.031250;1.020508;
179944;-0.043945;0.040039;1.083008;
180159;-0.033203;0.033203;1.029297;
180393;-0.034180;0.034180;1.023438;
180614;-0.033203;0.034180;1.025391;
180830;-0.034180;0.034180;1.027344;
181069;-0.035156;0.034180;1.022461;
181323;-0.035156;0.034180;1.024414;
181543;-0.035156;0.033203;1.022461;
181760;-0.036133;0.033203;1.023438;
182014;-0.035156;0.033203;1.025391;
182233;-0.033203;0.036133;1.023438;
182454;-0.035156;0.034180;1.023438;
182674;-0.034180;0.033203;1.023438;
182891;-0.034180;0.035156;1.024414;
183143;-0.035156;0.034180;1.022461;
183364;-0.034180;0.035156;1.025391;
183579;-0.034180;0.033203;1.023438;
183794;-0.034180;0.034180;1.024414;
184014;-0.035156;0.035156;1.024414;
184229;-0.034180;0.035156;1.024414;
184470;-0.034180;0.033203;1.024414;
184709;-0.035156;0.034180;1.025391;
184964;-0.034180;0.034180;1.024414;
185184;-0.034180;0.035156;1.025391;
185399;-0.034180;0.034180;1.024414;
185624;-0.023438;0.034180;1.090820;
185844;-0.031250;0.039062;0.994141;
186064;-0.030273;0.032227;1.018555;
186283;-0.030273;0.031250;1.053711;
186504;-0.038086;0.037109;1.008789;
186733;-0.036133;0.034180;1.025391;
186953;-0.034180;0.035156;1.020508;
187174;-0.035156;0.033203;1.024414;
187393;-0.035156;0.035156;1.025391;
187613;-0.035156;0.033203;1.026367;
187829;-0.035156;0.033203;1.023438;
188069;-0.034180;0.034180;1.024414;
188319;-0.035156;0.034180;1.024414;
188573;-0.034180;0.034180;1.025391;
188793;-0.034180;0.036133;1.025391;
189014;-0.035156;0.033203;1.023438;
189233;-0.034180;0.035156;1.024414;
189449;-0.033203;0.035156;1.024414;
189694;-0.034180;0.034180;1.022461;
189913;-0.034180;0.036133;1.024414;
190134;-0.037109;0.034180;1.024414;
190354;-0.035156;0.033203;1.024414;
190574;-0.035156;0.034180;1.024414;
190793;-0.033203;0.034180;1.023438;
191014;-0.035156;0.033203;1.025391;
191231;-0.035156;0.033203;1.024414;
191479;-0.034180;0.036133;1.024414;
191729;-0.035156;0.033203;1.024414;
191964;-0.034180;0.035156;1.024414;
192183;-0.034180;0.033203;1.023438;
192393;-0.035156;0.034180;1.024414;
192624;-0.034180;0.033203;1.023438;
192843;-0.033203;0.034180;1.023438;
193064;-0.034180;0.035156;1.024414;
193293;-0.035156;0.034180;1.026367;
193513;-0.035156;0.035156;1.025391;
193730;-0.035156;0.033203;1.025391;
193974;-0.035156;0.033203;1.024414;
194193;-0.034180;0.035156;1.025391;
194414;-0.034180;0.032227;1.022461;
194634;-0.034180;0.033203;1.024414;
194854;-0.034180;0.035156;1.024414;
195079;-0.035156;0.034180;1.025391;
195329;-0.036133;0.033203;1.025391;
195570;-0.032227;0.036133;1.023438;
195824;-0.035156;0.033203;1.023438;
196044;-0.030273;0.033203;1.025391;
196259;-0.039062;0.035156;1.000977;
196473;-0.048828;0.043945;0.976562;
196694;-0.037109;0.038086;1.013672;
196914;-0.034180;0.035156;1.028320;
197134;-0.034180;0.034180;1.025391;
197354;-0.034180;0.035156;1.025391;
197594;-0.035156;0.034180;1.025391;
197814;-0.036133;0.033203;1.021484;
198030;-0.033203;0.033203;1.039062;
198283;-0.035156;0.034180;1.029297;
198503;-0.034180;0.035156;1.019531;
198729;-0.036133;0.034180;1.022461;
198959;-0.036133;0.032227;1.025391;
199213;-0.036133;0.034180;1.019531;
199443;-0.036133;0.036133;1.028320;
199659;-0.035156;0.032227;1.027344;
199904;-0.033203;0.033203;1.024414;
200124;-0.036133;0.034180;1.023438;
200339;-0.034180;0.034180;1.022461;
200594;-0.035156;0.032227;1.027344;
200813;-0.035156;0.033203;1.027344;
201030;-0.037109;0.035156;1.017578;
201254;-0.035156;0.034180;1.031250;
201473;-0.034180;0.033203;1.025391;
201694;-0.033203;0.033203;1.025391;
201914;-0.036133;0.036133;1.026367;
202135;-0.036133;0.039062;1.022461;
202380;-0.032227;0.032227;1.033203;
202629;0.000000;0.049805;1.124023;
202854;-0.034180;0.035156;1.029297;
203074;-0.035156;0.031250;1.021484;
203293;-0.035156;0.033203;1.026367;
203513;-0.035156;0.033203;1.023438;
203734;-0.034180;0.036133;1.025391;
203954;-0.036133;0.033203;1.026367;
204174;-0.037109;0.032227;1.020508;
204394;-0.033203;0.034180;1.026367;
204613;-0.035156;0.035156;1.021484;
204834;-0.034180;0.035156;1.024414;
205049;-0.034180;0.034180;1.026367;
205294;-0.035156;0.034180;1.022461;
205513;-0.036133;0.035156;1.024414;
205731;-0.034180;0.034180;1.025391;
205969;-0.036133;0.032227;1.021484;
206209;-0.034180;0.034180;1.024414;
206453;-0.034180;0.034180;1.025391;
206674;-0.034180;0.035156;1.024414;
206893;-0.035156;0.036133;1.030273;
207134;-0.037109;0.034180;1.020508;
207354;-0.036133;0.033203;1.016602;
207569;-0.034180;0.032227;1.031250;
207823;-0.034180;0.031250;1.030273;
208044;-0.038086;0.035156;1.017578;
208264;-0.034180;0.035156;1.026367;
208483;-0.032227;0.029297;1.050781;
208704;-0.035156;0.034180;1.025391;
208923;-0.035156;0.033203;1.026367;
209143;-0.033203;0.036133;1.026367;
209359;-0.033203;0.034180;1.026367;
209611;-0.034180;0.032227;1.035156;
209860;-0.035156;0.035156;1.017578;
210110;-0.033203;0.035156;1.027344;
210363;-0.032227;0.035156;1.029297;
210584;-0.036133;0.034180;1.018555;
210804;-0.035156;0.033203;1.022461;
211024;-0.035156;0.035156;1.017578;
211244;-0.036133;0.034180;1.023438;
211473;-0.034180;0.034180;1.022461;
211694;-0.036133;0.033203;1.024414;
211909;-0.035156;0.034180;1.025391;
212154;-0.033203;0.035156;1.024414;
212373;-0.035156;0.034180;1.025391;
212594;-0.035156;0.035156;1.024414;
212813;-0.035156;0.033203;1.025391;
213034;-0.035156;0.033203;1.024414;
213270;-0.034180;0.034180;1.025391;
213529;-0.035156;0.033203;1.024414;
213759;-0.033203;0.035156;1.025391;
214014;-0.035156;0.033203;1.025391;
214233;-0.033203;0.035156;1.023438;
214449;-0.034180;0.034180;1.026367;
214673;-0.035156;0.034180;1.023438;
214893;-0.034180;0.034180;1.026367;
215114;-0.034180;0.034180;1.025391;
215333;-0.035156;0.034180;1.025391;
215554;-0.035156;0.035156;1.025391;
215774;-0.035156;0.035156;1.026367;
215993;-0.036133;0.035156;1.024414;
216214;-0.036133;0.035156;1.025391;
216433;-0.034180;0.033203;1.024414;
216654;-0.035156;0.034180;1.025391;
216869;-0.033203;0.034180;1.024414;
217131;-0.034180;0.036133;1.023438;
217379;-0.034180;0.035156;1.024414;
217604;-0.035156;0.033203;1.024414;
217823;-0.034180;0.035156;1.025391;
218044;-0.034180;0.034180;1.025391;
218264;-0.035156;0.033203;1.025391;
218483;-0.034180;0.036133;1.025391;
218714;-0.035156;0.033203;1.023438;
218933;-0.033203;0.034180;1.024414;
219154;-0.035156;0.035156;1.024414;
219373;-0.035156;0.034180;1.025391;
219593;-0.035156;0.034180;1.026367;
219809;-0.034180;0.034180;1.025391;
220064;-0.035156;0.035156;1.023438;
220279;-0.035156;0.036133;1.025391;
220530;-0.035156;0.033203;1.025391;
220779;-0.035156;0.034180;1.024414;
221024;-0.036133;0.033203;1.026367;
221243;-0.034180;0.035156;1.025391;
221464;-0.035156;0.034180;1.025391;
221684;-0.034180;0.035156;1.025391;
221903;-0.035156;0.034180;1.027344;
222124;-0.033203;0.035156;1.025391;
222343;-0.035156;0.033203;1.025391;
222563;-0.036133;0.034180;1.025391;
222784;-0.035156;0.034180;1.025391;
223003;-0.035156;0.031250;1.024414;
223225;-0.033203;0.034180;1.025391;
223473;-0.034180;0.035156;1.024414;
223695;-0.034180;0.033203;1.023438;
223930;-0.034180;0.035156;1.025391;
224179;-0.034180;0.034180;1.026367;
224443;-0.033203;0.034180;1.025391;
224659;-0.033203;0.035156;1.025391;
224903;-0.034180;0.035156;1.024414;
225124;-0.033203;0.033203;1.027344;
225339;-0.033203;0.034180;1.025391;
225564;-0.035156;0.035156;1.025391;
225784;-0.034180;0.035156;1.025391;
226004;-0.034180;0.035156;1.022461;
226224;-0.035156;0.033203;1.024414;
226443;-0.034180;0.034180;1.025391;
226664;-0.034180;0.034180;1.025391;
226883;-0.034180;0.034180;1.023438;
227103;-0.034180;0.034180;1.025391;
227333;-0.034180;0.033203;1.024414;
227549;-0.032227;0.035156;1.025391;
227789;-0.035156;0.035156;1.023438;
228054;-0.034180;0.034180;1.025391;
228283;-0.034180;0.033203;1.025391;
228499;-0.035156;0.033203;1.024414;
228743;-0.035156;0.032227;1.025391;
228963;-0.033203;0.035156;1.025391;
229180;-0.035156;0.033203;1.025391;
229423;-0.034180;0.034180;1.023438;
229644;-0.034180;0.034180;1.024414;
229859;-0.034180;0.034180;1.025391;
230114;-0.034180;0.034180;1.022461;
230333;-0.035156;0.034180;1.027344;
230550;-0.034180;0.033203;1.024414;
230774;-0.034180;0.035156;1.024414;
230993;-0.035156;0.032227;1.027344;
231209;-0.034180;0.036133;1.026367;
231439;-0.034180;0.033203;1.024414;
231693;-0.034180;0.035156;1.026367;
231915;-0.034180;0.035156;1.027344;
232163;-0.034180;0.034180;1.025391;
232383;-0.034180;0.033203;1.026367;
232599;-0.034180;0.033203;1.025391;
232834;-0.035156;0.036133;1.026367;
233054;-0.034180;0.034180;1.026367;
233269;-0.035156;0.035156;1.024414;
233524;-0.033203;0.033203;1.024414;
233753;-0.033203;0.035156;1.024414;
233974;-0.035156;0.033203;1.024414;
234194;-0.034180;0.032227;1.023438;
234413;-0.033203;0.035156;1.027344;
234635;-0.034180;0.036133;1.024414;
234891;-0.034180;0.035156;1.026367;
235140;-0.035156;0.032227;1.024414;
235394;-0.033203;0.035156;1.025391;
235613;-0.035156;0.033203;1.024414;
235829;-0.034180;0.034180;1.024414;
236064;-0.033203;0.034180;1.025391;
236284;-0.034180;0.036133;1.027344;
236504;-0.033203;0.035156;1.024414;
236723;-0.034180;0.033203;1.024414;
236943;-0.033203;0.033203;1.025391;
237164;-0.033203;0.034180;1.024414;
237383;-0.034180;0.034180;1.024414;
237604;-0.034180;0.035156;1.025391;
237843;-0.033203;0.035156;1.023438;
238064;-0.034180;0.036133;1.027344;
238280;-0.034180;0.034180;1.026367;
238510;-0.034180;0.033203;1.025391;
238759;-0.035156;0.033203;1.026367;
239014;-0.033203;0.035156;1.021484;
239233;-0.034180;0.036133;1.027344;
239463;-0.034180;0.034180;1.025391;
239683;-0.035156;0.033203;1.024414;
239904;-0.035156;0.033203;1.024414;
240124;-0.033203;0.034180;1.025391;
240344;-0.034180;0.034180;1.024414;
240564;-0.034180;0.035156;1.027344;
240784;-0.034180;0.036133;1.026367;
241004;-0.035156;0.032227;1.025391;
241224;-0.035156;0.035156;1.025391;
241443;-0.034180;0.034180;1.024414;
241664;-0.033203;0.034180;1.026367;
241883;-0.034180;0.035156;1.025391;
242099;-0.034180;0.033203;1.026367;
242339;-0.035156;0.033203;1.025391;
242583;-0.034180;0.032227;1.022461;
242804;-0.034180;0.034180;1.027344;
243024;-0.034180;0.035156;1.025391;
243244;-0.034180;0.035156;1.026367;
243464;-0.035156;0.034180;1.025391;
243684;-0.033203;0.033203;1.025391;
243904;-0.034180;0.033203;1.024414;
244124;-0.034180;0.034180;1.027344;
244344;-0.035156;0.035156;1.026367;
244563;-0.033203;0.034180;1.024414;
244784;-0.034180;0.035156;1.025391;
245004;-0.035156;0.033203;1.025391;
245223;-0.034180;0.033203;1.025391;
245439;-0.033203;0.035156;1.024414;
245669;-0.034180;0.033203;1.025391;
245924;-0.034180;0.034180;1.026367;
246144;-0.033203;0.033203;1.026367;
246364;-0.034180;0.034180;1.025391;
246584;-0.033203;0.033203;1.025391;
246804;-0.033203;0.036133;1.025391;
247024;-0.036133;0.034180;1.024414;
247243;-0.035156;0.034180;1.025391;
247464;-0.034180;0.037109;1.024414;
247683;-0.033203;0.035156;1.025391;
247904;-0.035156;0.033203;1.025391;
248124;-0.034180;0.034180;1.026367;
248343;-0.034180;0.033203;1.024414;
248564;-0.033203;0.035156;1.026367;
248785;-0.034180;0.033203;1.025391;
249029;-0.033203;0.034180;1.028320;
249283;-0.034180;0.034180;1.026367;
249504;-0.033203;0.035156;1.025391;
249723;-0.036133;0.033203;1.026367;
249944;-0.035156;0.034180;1.025391;
250164;-0.033203;0.036133;1.024414;
250383;-0.033203;0.034180;1.025391;
250604;-0.035156;0.033203;1.025391;
250823;-0.036133;0.034180;1.026367;
251043;-0.034180;0.034180;1.025391;
251263;-0.034180;0.034180;1.027344;
251484;-0.033203;0.035156;1.025391;
251704;-0.034180;0.033203;1.025391;
251923;-0.034180;0.034180;1.025391;
252145;-0.035156;0.035156;1.025391;
252389;-0.033203;0.035156;1.027344;
252634;-0.034180;0.035156;1.026367;
252853;-0.034180;0.038086;1.026367;
253073;-0.034180;0.033203;1.024414;
253293;-0.034180;0.033203;1.024414;
253514;-0.035156;0.033203;1.025391;
253734;-0.036133;0.035156;1.024414;
253953;-0.035156;0.035156;1.024414;
254174;-0.034180;0.034180;1.025391;
254393;-0.034180;0.033203;1.022461;
254613;-0.034180;0.035156;1.026367;
254834;-0.034180;0.037109;1.027344;
255054;-0.034180;0.033203;1.027344;
255274;-0.034180;0.034180;1.026367;
255493;-0.036133;0.031250;1.025391;
255709;-0.035156;0.035156;1.024414;
255964;-0.034180;0.034180;1.025391;
256184;-0.033203;0.033203;1.023438;
256404;-0.034180;0.035156;1.025391;
256623;-0.034180;0.036133;1.023438;
256844;-0.035156;0.034180;1.026367;
257053;-0.034180;0.035156;1.026367;
257273;-0.034180;0.034180;1.027344;
257494;-0.033203;0.036133;1.026367;
257714;-0.034180;0.035156;1.026367;
257934;-0.034180;0.036133;1.027344;
258153;-0.035156;0.034180;1.027344;
258374;-0.035156;0.032227;1.025391;
258594;-0.036133;0.034180;1.027344;
258814;-0.034180;0.035156;1.028320;
259029;-0.040039;0.040039;1.014648;
259271;-0.036133;0.034180;1.026367;
259504;-0.032227;0.032227;1.038086;
259721;-0.036133;0.032227;1.012695;
259944;-0.031250;0.033203;1.033203;
260164;-0.036133;0.032227;1.017578;
260383;-0.030273;0.034180;1.034180;
260604;-0.036133;0.034180;1.015625;
260824;-0.034180;0.035156;1.028320;
261044;-0.034180;0.036133;1.025391;
261264;-0.034180;0.035156;1.026367;
261483;-0.035156;0.034180;1.026367;
261703;-0.034180;0.034180;1.026367;
261933;-0.035156;0.034180;1.024414;
262154;-0.034180;0.034180;1.025391;
262374;-0.034180;0.034180;1.024414;
262589;-0.034180;0.034180;1.026367;
262830;-0.035156;0.033203;1.025391;
263084;-0.034180;0.035156;1.024414;
263303;-0.035156;0.033203;1.024414;
263523;-0.034180;0.032227;1.024414;
263743;-0.034180;0.036133;1.026367;
263953;-0.033203;0.036133;1.025391;
264173;-0.035156;0.033203;1.025391;
264394;-0.035156;0.034180;1.024414;
264614;-0.034180;0.035156;1.026367;
264833;-0.034180;0.033203;1.025391;
265053;-0.018555;0.027344;1.101562;
265274;-0.035156;0.031250;1.026367;
265494;-0.034180;0.034180;1.026367;
265714;-0.033203;0.035156;1.025391;
265930;-0.034180;0.035156;1.026367;
266179;-0.034180;0.035156;1.025391;
266433;-0.034180;0.035156;1.026367;
266654;-0.033203;0.035156;1.025391;
266874;-0.034180;0.034180;1.024414;
267093;-0.034180;0.036133;1.025391;
267314;-0.034180;0.035156;1.025391;
267533;-0.033203;0.035156;1.025391;
267753;-0.034180;0.035156;1.025391;
267974;-0.033203;0.034180;1.026367;
268194;-0.035156;0.034180;1.025391;
268414;-0.034180;0.034180;1.024414;
268633;-0.034180;0.035156;1.025391;
268854;-0.033203;0.035156;1.027344;
269073;-0.035156;0.032227;1.025391;
269290;-0.034180;0.035156;1.025391;
269531;-0.034180;0.034180;1.026367;
269773;-0.034180;0.034180;1.025391;
269994;-0.034180;0.032227;1.027344;
270214;-0.034180;0.035156;1.026367;
270434;-0.033203;0.035156;1.026367;
270654;-0.034180;0.034180;1.024414;
270873;-0.033203;0.033203;1.025391;
271094;-0.031250;0.023438;1.053711;
271313;-0.032227;0.026367;1.034180;
271533;-0.027344;0.037109;1.067383;
271753;-0.033203;0.036133;1.025391;
271973;-0.035156;0.034180;1.028320;
272194;-0.034180;0.035156;1.025391;
272414;-0.035156;0.033203;1.025391;
272630;-0.033203;0.034180;1.026367;
272869;-0.035156;0.033203;1.026367;
273124;-0.035156;0.034180;1.025391;
273353;-0.033203;0.035156;1.025391;
273574;-0.034180;0.033203;1.024414;
273794;-0.033203;0.033203;1.024414;
274014;-0.033203;0.035156;1.024414;
274234;-0.033203;0.035156;1.026367;
274453;-0.033203;0.035156;1.026367;
274674;-0.033203;0.035156;1.026367;
274893;-0.034180;0.034180;1.026367;
275114;-0.034180;0.035156;1.025391;
275334;-0.035156;0.033203;1.025391;
275553;-0.033203;0.034180;1.026367;
275774;-0.034180;0.034180;1.026367;
275989;-0.034180;0.035156;1.025391;
276240;-0.034180;0.033203;1.024414;
276493;-0.034180;0.034180;1.025391;
276714;-0.034180;0.034180;1.025391;
276933;-0.033203;0.034180;1.025391;
277154;-0.034180;0.034180;1.026367;
277369;-0.034180;0.033203;1.024414;
277594;-0.033203;0.036133;1.025391;
277814;-0.034180;0.034180;1.025391;
278034;-0.033203;0.033203;1.026367;
278253;-0.034180;0.034180;1.025391;
278474;-0.035156;0.033203;1.025391;
278693;-0.034180;0.034180;1.025391;
278914;-0.034180;0.034180;1.025391;
279133;-0.034180;0.036133;1.025391;
279355;-0.033203;0.035156;1.025391;
279599;-0.036133;0.032227;1.025391;
279853;-0.034180;0.035156;1.027344;
280073;-0.034180;0.034180;1.027344;
280294;-0.034180;0.034180;1.025391;
280514;-0.034180;0.034180;1.027344;
280734;-0.033203;0.034180;1.025391;
280954;-0.033203;0.035156;1.027344;
281174;-0.033203;0.035156;1.026367;
281394;-0.033203;0.034180;1.026367;
281613;-0.033203;0.035156;1.025391;
281834;-0.034180;0.034180;1.025391;
282053;-0.034180;0.034180;1.025391;
282274;-0.034180;0.034180;1.025391;
282494;-0.034180;0.034180;1.026367;
282715;-0.033203;0.036133;1.026367;
282959;-0.034180;0.034180;1.025391;
283214;-0.033203;0.034180;1.025391;
283434;-0.034180;0.033203;1.027344;
283653;-0.034180;0.035156;1.027344;
283874;-0.035156;0.034180;1.026367;
284093;-0.034180;0.035156;1.026367;
284314;-0.035156;0.035156;1.027344;
284534;-0.034180;0.035156;1.025391;
284754;-0.034180;0.034180;1.025391;
284973;-0.034180;0.035156;1.026367;
285193;-0.034180;0.034180;1.027344;
285414;-0.033203;0.033203;1.026367;
285633;-0.033203;0.033203;1.025391;
285853;-0.034180;0.035156;1.025391;
286075;-0.034180;0.033203;1.024414;
286319;-0.034180;0.035156;1.027344;
286564;-0.035156;0.033203;1.027344;
286784;-0.033203;0.035156;1.028320;
287014;-0.034180;0.034180;1.025391;
287233;-0.035156;0.034180;1.026367;
287453;-0.034180;0.034180;1.025391;
287674;-0.035156;0.033203;1.026367;
287894;-0.028320;0.028320;1.094727;
288113;-0.035156;0.038086;1.002930;
288323;-0.031250;0.036133;1.027344;
288543;-0.034180;0.033203;1.025391;
288763;-0.034180;0.033203;1.026367;
288983;-0.033203;0.035156;1.026367;
289204;-0.035156;0.034180;1.026367;
289424;-0.034180;0.035156;1.025391;
289649;-0.034180;0.034180;1.026367;
289874;-0.029297;0.032227;1.039062;
290094;-0.035156;0.034180;1.025391;
290314;-0.032227;0.036133;1.030273;
290533;-0.036133;0.034180;1.022461;
290754;-0.034180;0.033203;1.023438;
290974;-0.037109;0.032227;1.025391;
291193;-0.034180;0.035156;1.025391;
291414;-0.033203;0.035156;1.026367;
291633;-0.032227;0.033203;1.030273;
291854;-0.032227;0.035156;1.026367;
292074;-0.034180;0.034180;1.025391;
292293;-0.032227;0.034180;1.027344;
292514;-0.033203;0.034180;1.015625;
292734;-0.037109;0.035156;1.021484;
292951;-0.031250;0.037109;1.037109;
293199;-0.035156;0.032227;1.023438;
293424;-0.032227;0.034180;1.034180;
293643;-0.032227;0.035156;1.039062;
293874;-0.035156;0.031250;1.021484;
294094;-0.036133;0.032227;1.032227;
294313;-0.035156;0.035156;1.028320;
294534;-0.034180;0.035156;1.027344;
294754;-0.035156;0.035156;1.026367;
294973;-0.035156;0.033203;1.025391;
295194;-0.035156;0.032227;1.025391;
295414;-0.034180;0.034180;1.026367;
295634;-0.033203;0.034180;1.029297;
295853;-0.032227;0.029297;0.998047;
296073;-0.034180;0.030273;1.011719;
296294;-0.034180;0.037109;1.027344;
296512;-0.035156;0.034180;0.985352;
296749;-0.036133;0.037109;1.050781;
296983;-0.028320;0.038086;1.025391;
297204;-0.039062;0.034180;1.006836;
297423;-0.034180;0.035156;1.024414;
297644;-0.034180;0.035156;1.028320;
297859;-0.033203;0.035156;1.028320;
298094;-0.036133;0.035156;1.015625;
298314;-0.030273;0.037109;1.044922;
298533;-0.036133;0.037109;1.036133;
298754;-0.034180;0.035156;1.024414;
298974;-0.034180;0.035156;1.025391;
299193;-0.034180;0.033203;1.025391;
299415;-0.031250;0.042969;1.043945;
299643;-0.038086;0.037109;1.088867;
299864;-0.032227;0.038086;1.023438;
300080;-0.034180;0.034180;1.023438;
300331;-0.034180;0.036133;1.024414;
300563;-0.034180;0.034180;1.027344;
300784;-0.035156;0.033203;1.023438;
301004;-0.033203;0.034180;1.026367;
301223;-0.035156;0.034180;1.025391;
301443;-0.033203;0.036133;1.048828;
301664;-0.036133;0.034180;1.024414;
301884;-0.036133;0.035156;1.019531;
302103;-0.033203;0.034180;1.028320;
302324;-0.035156;0.036133;1.023438;
302544;-0.033203;0.033203;1.030273;
302764;-0.035156;0.031250;1.024414;
302985;-0.031250;0.036133;1.033203;
303213;-0.034180;0.034180;1.036133;
303434;-0.034180;0.035156;1.027344;
303650;-0.034180;0.034180;1.026367;
303899;-0.035156;0.035156;1.028320;
304144;-0.037109;0.033203;1.016602;
304364;-0.035156;0.033203;1.025391;
304583;-0.036133;0.033203;1.025391;
304803;-0.036133;0.037109;1.022461;
305024;-0.035156;0.030273;1.028320;
305243;-0.034180;0.033203;1.028320;
305464;-0.034180;0.035156;1.025391;
305683;-0.034180;0.037109;1.036133;
305904;-0.034180;0.032227;1.017578;
306121;-0.035156;0.034180;1.026367;
306344;-0.036133;0.032227;1.027344;
306564;-0.034180;0.035156;1.027344;
306783;-0.033203;0.035156;1.024414;
307004;-0.035156;0.033203;1.027344;
307219;-0.037109;0.035156;1.024414;
307459;-0.034180;0.035156;1.034180;
307714;-0.033203;0.034180;1.032227;
307934;-0.035156;0.035156;1.026367;
308151;-0.033203;0.036133;1.028320;
308373;-0.034180;0.033203;1.023438;
308594;-0.033203;0.033203;1.025391;
308814;-0.033203;0.036133;1.026367;
309034;-0.034180;0.034180;1.025391;
309253;-0.035156;0.033203;1.026367;
309473;-0.034180;0.035156;1.027344;
309693;-0.033203;0.034180;1.025391;
309913;-0.033203;0.035156;1.028320;
310134;-0.034180;0.033203;1.027344;
310343;-0.033203;0.034180;1.026367;
310561;-0.035156;0.034180;1.025391;
310799;-0.035156;0.033203;1.026367;
311054;-0.034180;0.035156;1.026367;
311274;-0.034180;0.035156;1.026367;
311493;-0.035156;0.035156;1.024414;
311713;-0.035156;0.035156;1.027344;
311933;-0.033203;0.035156;1.026367;
312153;-0.035156;0.036133;1.028320;
312374;-0.034180;0.034180;1.025391;
312593;-0.034180;0.033203;1.026367;
312813;-0.033203;0.034180;1.026367;
313034;-0.034180;0.036133;1.026367;
313254;-0.035156;0.033203;1.025391;
313473;-0.036133;0.034180;1.027344;
313694;-0.033203;0.035156;1.024414;
313909;-0.033203;0.034180;1.028320;
314151;-0.033203;0.034180;1.023438;
314404;-0.032227;0.036133;1.024414;
314623;-0.034180;0.035156;1.024414;
314843;-0.034180;0.034180;1.027344;
315063;-0.034180;0.035156;1.027344;
315284;-0.033203;0.034180;1.026367;
315504;-0.033203;0.035156;1.026367;
315723;-0.035156;0.034180;1.026367;
315944;-0.035156;0.032227;1.028320;
316163;-0.033203;0.035156;1.026367;
316384;-0.035156;0.033203;1.028320;
316603;-0.034180;0.035156;1.025391;
316824;-0.034180;0.033203;1.027344;
317044;-0.033203;0.035156;1.024414;
317259;-0.035156;0.034180;1.027344;
317499;-0.033203;0.037109;1.024414;
317753;-0.033203;0.035156;1.026367;
317974;-0.033203;0.033203;1.027344;
318193;-0.034180;0.034180;1.027344;
318412;-0.034180;0.036133;1.025391;
318634;-0.033203;0.035156;1.025391;
318854;-0.034180;0.034180;1.028320;
319074;-0.033203;0.034180;1.024414;
319294;-0.035156;0.034180;1.027344;
319514;-0.036133;0.034180;1.024414;
319734;-0.035156;0.033203;1.025391;
319953;-0.034180;0.035156;1.024414;
320174;-0.034180;0.035156;1.026367;
320394;-0.033203;0.036133;1.025391;
320614;-0.033203;0.032227;1.023438;
320829;-0.033203;0.035156;1.027344;
321084;-0.035156;0.034180;1.025391;
321303;-0.034180;0.032227;1.027344;
321523;-0.033203;0.034180;1.026367;
321744;-0.033203;0.035156;1.027344;
321964;-0.033203;0.035156;1.026367;
322183;-0.033203;0.035156;1.027344;
322404;-0.035156;0.033203;1.027344;
322634;-0.034180;0.033203;1.027344;
322854;-0.034180;0.035156;1.027344;
323074;-0.033203;0.034180;1.026367;
323294;-0.033203;0.033203;1.024414;
323514;-0.035156;0.034180;1.027344;
323734;-0.035156;0.033203;1.026367;
323953;-0.034180;0.034180;1.028320;
324179;-0.033203;0.034180;1.027344;
324433;-0.034180;0.034180;1.027344;
324653;-0.034180;0.036133;1.026367;
324874;-0.034180;0.033203;1.026367;
325093;-0.033203;0.035156;1.027344;
325314;-0.033203;0.036133;1.026367;
325534;-0.035156;0.034180;1.027344;
325753;-0.034180;0.035156;1.025391;
325974;-0.034180;0.035156;1.027344;
326194;-0.034180;0.034180;1.025391;
326414;-0.034180;0.035156;1.027344;
326634;-0.035156;0.035156;1.027344;
326854;-0.033203;0.034180;1.026367;
327074;-0.035156;0.033203;1.026367;
327293;-0.033203;0.033203;1.026367;
327509;-0.034180;0.035156;1.026367;
327759;-0.035156;0.036133;1.027344;
327984;-0.034180;0.033203;1.027344;
328203;-0.035156;0.035156;1.026367;
328423;-0.034180;0.034180;1.028320;
328644;-0.032227;0.036133;1.026367;
328863;-0.033203;0.034180;1.027344;
329084;-0.034180;0.035156;1.025391;
329304;-0.033203;0.035156;1.026367;
329524;-0.034180;0.033203;1.026367;
329744;-0.034180;0.034180;1.026367;
329964;-0.034180;0.035156;1.026367;
330184;-0.034180;0.035156;1.026367;
330404;-0.033203;0.034180;1.026367;
330624;-0.034180;0.032227;1.027344;
330844;-0.035156;0.034180;1.027344;
331059;-0.033203;0.036133;1.026367;
331300;-0.034180;0.035156;1.026367;
331544;-0.033203;0.034180;1.025391;
331764;-0.033203;0.033203;1.027344;
331983;-0.033203;0.034180;1.025391;
332204;-0.034180;0.032227;1.025391;
332423;-0.034180;0.035156;1.027344;
332643;-0.035156;0.033203;1.027344;
332864;-0.032227;0.038086;1.026367;
333083;-0.033203;0.036133;1.029297;
333304;-0.034180;0.033203;1.027344;
333524;-0.033203;0.035156;1.026367;
333744;-0.032227;0.036133;1.028320;
333964;-0.034180;0.034180;1.025391;
334184;-0.032227;0.035156;1.026367;
334404;-0.034180;0.034180;1.025391;
334619;-0.035156;0.034180;1.026367;
334870;-0.034180;0.036133;1.025391;
335114;-0.033203;0.035156;1.027344;
335334;-0.035156;0.033203;1.025391;
335554;-0.034180;0.035156;1.028320;
335774;-0.034180;0.035156;1.027344;
335994;-0.034180;0.034180;1.026367;
336214;-0.033203;0.034180;1.027344;
336434;-0.034180;0.035156;1.026367;
336654;-0.035156;0.035156;1.026367;
336873;-0.033203;0.036133;1.028320;
337104;-0.035156;0.034180;1.027344;
337324;-0.035156;0.034180;1.025391;
337544;-0.034180;0.035156;1.028320;
337763;-0.035156;0.033203;1.026367;
337984;-0.033203;0.037109;1.028320;
338200;-0.034180;0.034180;1.026367;
338449;-0.033203;0.035156;1.028320;
338694;-0.034180;0.036133;1.027344;
338913;-0.033203;0.035156;1.027344;
339124;-0.034180;0.035156;1.027344;
339343;-0.035156;0.035156;1.026367;
339564;-0.034180;0.035156;1.024414;
339784;-0.034180;0.034180;1.027344;
340004;-0.034180;0.036133;1.028320;
340224;-0.032227;0.033203;1.026367;
340443;-0.034180;0.034180;1.028320;
340664;-0.033203;0.035156;1.028320;
340884;-0.035156;0.035156;1.027344;
341104;-0.034180;0.033203;1.025391;
341323;-0.034180;0.033203;1.028320;
341543;-0.033203;0.035156;1.027344;
341759;-0.033203;0.034180;1.027344;
341999;-0.034180;0.036133;1.027344;
342254;-0.034180;0.035156;1.025391;
342474;-0.035156;0.033203;1.026367;
342693;-0.036133;0.033203;1.026367;
342914;-0.034180;0.035156;1.027344;
343134;-0.036133;0.035156;1.026367;
343353;-0.033203;0.035156;1.027344;
343574;-0.034180;0.034180;1.026367;
343793;-0.033203;0.035156;1.028320;
344013;-0.034180;0.034180;1.026367;
344234;-0.034180;0.034180;1.027344;
344454;-0.033203;0.034180;1.027344;
344673;-0.035156;0.032227;1.028320;
344893;-0.034180;0.033203;1.027344;
345109;-0.035156;0.035156;1.027344;
345349;-0.034180;0.035156;1.028320;
345604;-0.034180;0.033203;1.026367;
345823;-0.034180;0.034180;1.026367;
346044;-0.032227;0.036133;1.027344;
346274;-0.034180;0.034180;1.027344;
346494;-0.033203;0.034180;1.027344;
346714;-0.034180;0.036133;1.026367;
346934;-0.033203;0.035156;1.026367;
347154;-0.034180;0.037109;1.026367;
347373;-0.034180;0.034180;1.027344;
347594;-0.034180;0.035156;1.027344;
347813;-0.034180;0.034180;1.027344;
348033;-0.034180;0.036133;1.027344;
348254;-0.035156;0.033203;1.026367;
348469;-0.034180;0.035156;1.027344;
348709;-0.035156;0.034180;1.027344;
348954;-0.033203;0.036133;1.025391;
349174;-0.034180;0.035156;1.027344;
349394;-0.034180;0.035156;1.026367;
349613;-0.034180;0.035156;1.027344;
349834;-0.034180;0.035156;1.027344;
350053;-0.034180;0.035156;1.028320;
350274;-0.034180;0.035156;1.027344;
350494;-0.035156;0.035156;1.027344;
350713;-0.034180;0.035156;1.027344;
350933;-0.034180;0.033203;1.026367;
351154;-0.034180;0.033203;1.027344;
351373;-0.035156;0.034180;1.026367;
351593;-0.033203;0.035156;1.027344;
351814;-0.034180;0.035156;1.026367;
352031;-0.034180;0.035156;1.028320;
352283;-0.035156;0.034180;1.026367;
352504;-0.034180;0.034180;1.026367;
352724;-0.033203;0.036133;1.028320;
352944;-0.033203;0.035156;1.027344;
353163;-0.033203;0.034180;1.027344;
353383;-0.035156;0.035156;1.027344;
353603;-0.034180;0.034180;1.027344;
353823;-0.033203;0.033203;1.027344;
354043;-0.034180;0.034180;1.029297;
354263;-0.034180;0.034180;1.025391;
354484;-0.034180;0.036133;1.026367;
354704;-0.034180;0.034180;1.026367;
354923;-0.033203;0.035156;1.026367;
355144;-0.034180;0.034180;1.025391;
355360;-0.035156;0.035156;1.027344;
355609;-0.034180;0.035156;1.027344;
355844;-0.034180;0.035156;1.027344;
356063;-0.035156;0.034180;1.027344;
356284;-0.034180;0.035156;1.028320;
356505;-0.035156;0.034180;1.027344;
356734;-0.034180;0.033203;1.025391;
356954;-0.035156;0.035156;1.027344;
357174;-0.034180;0.032227;1.027344;
357394;-0.033203;0.036133;1.027344;
357614;-0.033203;0.036133;1.026367;
357834;-0.034180;0.035156;1.027344;
358053;-0.033203;0.035156;1.027344;
358274;-0.034180;0.034180;1.027344;
358493;-0.033203;0.034180;1.027344;
358713;-0.034180;0.034180;1.027344;
358929;-0.033203;0.034180;1.027344;
359169;-0.035156;0.034180;1.027344;
359403;-0.034180;0.033203;1.026367;
359624;-0.035156;0.035156;1.027344;
359844;-0.035156;0.034180;1.026367;
360064;-0.034180;0.034180;1.026367;
360283;-0.034180;0.035156;1.028320;
360504;-0.033203;0.036133;1.025391;
360734;-0.035156;0.033203;1.027344;
360954;-0.033203;0.036133;1.026367;
361174;-0.033203;0.034180;1.027344;
361394;-0.033203;0.034180;1.026367;
361614;-0.034180;0.034180;1.027344;
361834;-0.035156;0.034180;1.027344;
362054;-0.034180;0.036133;1.026367;
362273;-0.035156;0.035156;1.027344;
362489;-0.034180;0.034180;1.027344;
362739;-0.034180;0.034180;1.025391;
362983;-0.033203;0.035156;1.027344;
363203;-0.031250;0.037109;1.027344;
363424;-0.033203;0.036133;1.026367;
363644;-0.034180;0.034180;1.027344;
363864;-0.034180;0.033203;1.028320;
364084;-0.034180;0.035156;1.027344;
364304;-0.034180;0.035156;1.026367;
364524;-0.034180;0.032227;1.027344;
364744;-0.034180;0.033203;1.025391;
364964;-0.033203;0.034180;1.026367;
365184;-0.033203;0.035156;1.025391;
365404;-0.034180;0.036133;1.028320;
365624;-0.034180;0.034180;1.027344;
365844;-0.034180;0.034180;1.027344;
366059;-0.034180;0.035156;1.026367;
366299;-0.034180;0.033203;1.025391;
366544;-0.034180;0.034180;1.028320;
366764;-0.034180;0.035156;1.027344;
366984;-0.033203;0.035156;1.027344;
367204;-0.033203;0.033203;1.028320;
367423;-0.034180;0.034180;1.026367;
367644;-0.034180;0.036133;1.027344;
367863;-0.035156;0.034180;1.028320;
368094;-0.035156;0.033203;1.026367;
368314;-0.034180;0.034180;1.028320;
368533;-0.035156;0.034180;1.026367;
368754;-0.034180;0.035156;1.027344;
368974;-0.032227;0.036133;1.026367;
369194;-0.034180;0.033203;1.028320;
369414;-0.034180;0.034180;1.027344;
369629;-0.035156;0.034180;1.027344;
369869;-0.034180;0.034180;1.027344;
370123;-0.034180;0.034180;1.026367;
370343;-0.034180;0.035156;1.027344;
370564;-0.033203;0.034180;1.026367;
370783;-0.033203;0.034180;1.028320;
371003;-0.035156;0.034180;1.026367;
371224;-0.033203;0.035156;1.027344;
371444;-0.034180;0.034180;1.027344;
371664;-0.033203;0.036133;1.027344;
371883;-0.033203;0.036133;1.027344;
372103;-0.033203;0.037109;1.028320;
372323;-0.033203;0.035156;1.025391;
372543;-0.034180;0.035156;1.028320;
372763;-0.033203;0.036133;1.027344;
372983;-0.032227;0.036133;1.027344;
373199;-0.034180;0.034180;1.027344;
373439;-0.034180;0.035156;1.028320;
373683;-0.033203;0.033203;1.026367;
373904;-0.034180;0.035156;1.028320;
374124;-0.033203;0.034180;1.027344;
374344;-0.034180;0.034180;1.028320;
374563;-0.034180;0.035156;1.029297;
374783;-0.034180;0.034180;1.026367;
375004;-0.034180;0.033203;1.027344;
375234;-0.033203;0.034180;1.027344;
375454;-0.034180;0.036133;1.027344;
375673;-0.034180;0.034180;1.026367;
375894;-0.033203;0.035156;1.028320;
376114;-0.034180;0.035156;1.026367;
376334;-0.032227;0.035156;1.025391;
376550;-0.034180;0.034180;1.027344;
376791;-0.034180;0.036133;1.026367;
377044;-0.034180;0.033203;1.029297;
377274;-0.034180;0.033203;1.028320;
377493;-0.035156;0.035156;1.027344;
377713;-0.034180;0.036133;1.025391;
377934;-0.032227;0.036133;1.027344;
378154;-0.035156;0.034180;1.028320;
378374;-0.033203;0.034180;1.026367;
378594;-0.033203;0.037109;1.028320;
378813;-0.036133;0.033203;1.025391;
379033;-0.034180;0.033203;1.027344;
379254;-0.033203;0.035156;1.027344;
379473;-0.033203;0.035156;1.027344;
379693;-0.033203;0.036133;1.025391;
379909;-0.032227;0.035156;1.027344;
380159;-0.034180;0.036133;1.027344;
380414;-0.033203;0.034180;1.027344;
380634;-0.033203;0.034180;1.026367;
380853;-0.035156;0.036133;1.027344;
381074;-0.033203;0.035156;1.029297;
381294;-0.033203;0.035156;1.026367;
381513;-0.033203;0.033203;1.028320;
381733;-0.033203;0.034180;1.027344;
381953;-0.034180;0.034180;1.026367;
382174;-0.033203;0.034180;1.025391;
382393;-0.034180;0.034180;1.024414;
382613;-0.034180;0.034180;1.025391;
382834;-0.035156;0.035156;1.027344;
383053;-0.034180;0.036133;1.026367;
383271;-0.034180;0.034180;1.027344;
383509;-0.033203;0.035156;1.027344;
383763;-0.034180;0.034180;1.028320;
383983;-0.033203;0.035156;1.029297;
384204;-0.034180;0.035156;1.026367;
384424;-0.036133;0.033203;1.028320;
384639;-0.033203;0.036133;1.028320;
384864;-0.034180;0.034180;1.027344;
385084;-0.034180;0.034180;1.028320;
385303;-0.033203;0.037109;1.028320;
385524;-0.036133;0.033203;1.027344;
385743;-0.034180;0.034180;1.027344;
385964;-0.034180;0.036133;1.026367;
386183;-0.034180;0.033203;1.027344;
386404;-0.035156;0.034180;1.025391;
386619;-0.034180;0.035156;1.027344;
386859;-0.034180;0.035156;1.028320;
387103;-0.033203;0.034180;1.026367;
387323;-0.034180;0.035156;1.025391;
387543;-0.034180;0.035156;1.029297;
387763;-0.033203;0.035156;1.027344;
387984;-0.034180;0.036133;1.027344;
388203;-0.033203;0.032227;1.024414;
388424;-0.033203;0.035156;1.029297;
388643;-0.034180;0.035156;1.026367;
388863;-0.034180;0.036133;1.028320;
389083;-0.032227;0.035156;1.027344;
389303;-0.034180;0.034180;1.028320;
389524;-0.033203;0.035156;1.027344;
389744;-0.033203;0.036133;1.027344;
389964;-0.034180;0.033203;1.028320;
390179;-0.033203;0.036133;1.027344;
390431;-0.034180;0.035156;1.028320;
390654;-0.034180;0.033203;1.027344;
390873;-0.034180;0.034180;1.026367;
391094;-0.034180;0.035156;1.028320;
391313;-0.033203;0.035156;1.027344;
391533;-0.033203;0.035156;1.027344;
391754;-0.034180;0.034180;1.028320;
391973;-0.033203;0.034180;1.028320;
392194;-0.035156;0.034180;1.026367;
392414;-0.033203;0.035156;1.027344;
392634;-0.034180;0.033203;1.027344;
392854;-0.033203;0.035156;1.026367;
393073;-0.033203;0.035156;1.026367;
393294;-0.034180;0.037109;1.028320;
393509;-0.034180;0.034180;1.026367;
393764;-0.032227;0.036133;1.025391;
393984;-0.034180;0.034180;1.029297;
394204;-0.033203;0.034180;1.026367;
394424;-0.032227;0.034180;1.027344;
394643;-0.034180;0.035156;1.027344;
394863;-0.032227;0.034180;1.027344;
395083;-0.034180;0.035156;1.027344;
395304;-0.034180;0.033203;1.025391;
395524;-0.035156;0.032227;1.026367;
395744;-0.032227;0.036133;1.028320;
395964;-0.033203;0.034180;1.028320;
396184;-0.034180;0.034180;1.027344;
396404;-0.034180;0.033203;1.028320;
396624;-0.034180;0.033203;1.027344;
396843;-0.033203;0.034180;1.027344;
397059;-0.034180;0.035156;1.027344;
397301;-0.033203;0.036133;1.026367;
397554;-0.035156;0.033203;1.026367;
397773;-0.033203;0.035156;1.027344;
397994;-0.034180;0.034180;1.026367;
398213;-0.033203;0.034180;1.025391;
398444;-0.034180;0.035156;1.027344;
398664;-0.033203;0.034180;1.027344;
398883;-0.034180;0.035156;1.026367;
399104;-0.034180;0.034180;1.027344;
399324;-0.034180;0.035156;1.025391;
399544;-0.033203;0.034180;1.027344;
399764;-0.033203;0.035156;1.028320;
399984;-0.034180;0.034180;1.027344;
400204;-0.035156;0.034180;1.028320;
400424;-0.034180;0.033203;1.026367;
400639;-0.035156;0.033203;1.027344;
400879;-0.034180;0.036133;1.027344;
401134;-0.034180;0.034180;1.027344;
401354;-0.035156;0.033203;1.027344;
401574;-0.033203;0.036133;1.027344;
401794;-0.033203;0.035156;1.028320;
402014;-0.033203;0.034180;1.026367;
402233;-0.033203;0.036133;1.026367;
402453;-0.034180;0.034180;1.029297;
402673;-0.033203;0.036133;1.026367;
402893;-0.034180;0.033203;1.028320;
403113;-0.034180;0.034180;1.026367;
403334;-0.033203;0.035156;1.028320;
403553;-0.033203;0.035156;1.025391;
403773;-0.034180;0.033203;1.028320;
403993;-0.033203;0.036133;1.026367;
404209;-0.033203;0.034180;1.026367;
404449;-0.033203;0.035156;1.029297;
404703;-0.034180;0.034180;1.027344;
404924;-0.034180;0.034180;1.026367;
405143;-0.035156;0.034180;1.028320;
405364;-0.033203;0.034180;1.026367;
405583;-0.035156;0.034180;1.027344;
405804;-0.034180;0.035156;1.028320;
406024;-0.034180;0.035156;1.026367;
406243;-0.033203;0.035156;1.028320;
406464;-0.034180;0.036133;1.029297;
406683;-0.034180;0.032227;1.026367;
406904;-0.034180;0.034180;1.027344;
407124;-0.033203;0.034180;1.026367;
407343;-0.033203;0.035156;1.025391;
407559;-0.035156;0.034180;1.027344;
407789;-0.035156;0.034180;1.027344;
408043;-0.033203;0.037109;1.026367;
408263;-0.032227;0.035156;1.028320;
408484;-0.035156;0.032227;1.028320;
408704;-0.034180;0.034180;1.026367;
408923;-0.032227;0.036133;1.028320;
409144;-0.034180;0.033203;1.027344;
409363;-0.034180;0.034180;1.027344;
409583;-0.033203;0.035156;1.028320;
409803;-0.033203;0.035156;1.029297;
410023;-0.034180;0.032227;1.027344;
410233;-0.033203;0.034180;1.028320;
410453;-0.033203;0.034180;1.026367;
410684;-0.033203;0.035156;1.027344;
410905;-0.034180;0.035156;1.025391;
411149;-0.033203;0.036133;1.026367;
411403;-0.034180;0.034180;1.027344;
411623;-0.034180;0.035156;1.027344;
411843;-0.034180;0.036133;1.028320;
412064;-0.033203;0.035156;1.026367;
412283;-0.035156;0.033203;1.028320;
412499;-0.032227;0.036133;1.027344;
412724;-0.033203;0.034180;1.027344;
412943;-0.034180;0.033203;1.026367;
413163;-0.035156;0.034180;1.027344;
413384;-0.033203;0.035156;1.025391;
413604;-0.035156;0.034180;1.027344;
413824;-0.033203;0.035156;1.028320;
414043;-0.035156;0.033203;1.027344;
414265;-0.033203;0.036133;1.028320;
414510;-0.032227;0.033203;1.026367;
414763;-0.034180;0.034180;1.027344;
414983;-0.034180;0.035156;1.029297;
415203;-0.033203;0.035156;1.026367;
415424;-0.032227;0.035156;1.026367;
415635;-0.034180;0.034180;1.027344;
415854;-0.034180;0.034180;1.027344;
416073;-0.033203;0.034180;1.027344;
416293;-0.033203;0.035156;1.028320;
416513;-0.033203;0.034180;1.026367;
416733;-0.034180;0.033203;1.027344;
416953;-0.035156;0.034180;1.027344;
417173;-0.034180;0.033203;1.027344;
417393;-0.034180;0.033203;1.027344;
417613;-0.034180;0.033203;1.027344;
417850;-0.033203;0.036133;1.029297;
418083;-0.034180;0.034180;1.026367;
418303;-0.032227;0.034180;1.028320;
418524;-0.034180;0.033203;1.028320;
418743;-0.033203;0.035156;1.027344;
418963;-0.035156;0.034180;1.027344;
419183;-0.035156;0.034180;1.028320;
419403;-0.035156;0.033203;1.027344;
419623;-0.034180;0.035156;1.028320;
419843;-0.034180;0.034180;1.027344;
420064;-0.033203;0.035156;1.028320;
420283;-0.034180;0.034180;1.027344;
420503;-0.034180;0.033203;1.026367;
420733;-0.033203;0.035156;1.026367;
420953;-0.034180;0.034180;1.027344;
421169;-0.033203;0.035156;1.027344;
421413;-0.034180;0.035156;1.027344;
421633;-0.033203;0.035156;1.028320;
421853;-0.034180;0.034180;1.027344;
422074;-0.034180;0.034180;1.027344;
422293;-0.033203;0.037109;1.026367;
422513;-0.034180;0.034180;1.027344;
422733;-0.034180;0.035156;1.028320;
422954;-0.034180;0.033203;1.027344;
423173;-0.033203;0.036133;1.028320;
423393;-0.034180;0.035156;1.026367;
423613;-0.033203;0.035156;1.028320;
423834;-0.034180;0.034180;1.025391;
424055;-0.033203;0.036133;1.027344;
424283;-0.033203;0.035156;1.028320;
424500;-0.034180;0.033203;1.026367;
424744;-0.032227;0.035156;1.027344;
424963;-0.033203;0.035156;1.028320;
425184;-0.034180;0.035156;1.028320;
425403;-0.033203;0.035156;1.027344;
425623;-0.034180;0.033203;1.027344;
425843;-0.033203;0.035156;1.029297;
426063;-0.033203;0.035156;1.027344;
426293;-0.033203;0.035156;1.028320;
426513;-0.033203;0.035156;1.029297;
426734;-0.034180;0.034180;1.026367;
426953;-0.034180;0.034180;1.027344;
427173;-0.034180;0.034180;1.028320;
427394;-0.034180;0.035156;1.029297;
427613;-0.035156;0.034180;1.027344;
427833;-0.033203;0.034180;1.028320;
428049;-0.033203;0.035156;1.026367;
428289;-0.034180;0.035156;1.027344;
428533;-0.033203;0.036133;1.027344;
428743;-0.034180;0.035156;1.028320;
428963;-0.033203;0.035156;1.027344;
429183;-0.034180;0.034180;1.027344;
429404;-0.033203;0.036133;1.028320;
429623;-0.034180;0.033203;1.026367;
429843;-0.034180;0.035156;1.028320;
430063;-0.033203;0.035156;1.028320;
430283;-0.034180;0.035156;1.028320;
430493;-0.033203;0.034180;1.026367;
430714;-0.033203;0.034180;1.029297;
