Time;acc_x;acc_y;acc_z;

1609;0.023438;0.024414;1.004883;
1753;0.023438;0.025391;0.989258;
1893;0.025391;0.022461;0.980469;
2033;0.022461;0.022461;0.977539;
2173;0.020508;0.014648;0.977539;
2313;0.024414;0.023438;0.982422;
2453;0.025391;0.021484;0.978516;
2594;0.022461;0.022461;0.969727;
2733;0.027344;0.021484;0.973633;
2873;0.023438;0.022461;0.987305;
3013;0.023438;0.028320;0.992188;
3154;0.017578;0.025391;0.968750;
3293;0.020508;0.028320;0.971680;
3434;0.030273;0.025391;0.990234;
3574;0.025391;0.022461;0.994141;
3713;0.020508;0.033203;0.990234;
3853;0.025391;0.036133;0.999023;
3989;0.024414;0.025391;0.987305;
4139;0.024414;0.028320;1.012695;
4290;0.021484;0.025391;1.000000;
4453;0.022461;0.027344;1.021484;
4594;0.029297;0.026367;1.052734;
4734;0.027344;0.027344;1.048828;
4873;0.027344;0.024414;1.059570;
5013;0.024414;0.025391;1.059570;
5153;0.025391;0.024414;1.054688;
5293;0.028320;0.017578;1.051758;
5430;0.030273;0.018555;1.078125;
5579;0.030273;0.021484;1.069336;
5724;0.029297;0.020508;1.060547;
5863;0.029297;0.016602;1.059570;
6004;0.027344;0.015625;1.051758;
6139;0.027344;0.008789;1.044922;
6294;0.030273;0.019531;1.047852;
6429;0.027344;0.020508;1.056641;
6579;0.027344;0.025391;1.054688;
6729;0.025391;0.024414;1.040039;
6879;0.026367;0.025391;1.041992;
7039;0.025391;0.020508;1.025391;
7189;0.026367;0.022461;1.042969;
7333;0.020508;0.028320;1.033203;
7473;0.023438;0.026367;1.034180;
7613;0.023438;0.015625;1.022461;
7749;0.026367;0.023438;1.031250;
7904;0.029297;0.028320;1.042969;
8054;0.026367;0.020508;1.057617;
8193;0.025391;0.018555;1.068359;
8329;0.028320;0.030273;1.076172;
8459;0.029297;0.024414;1.082031;
8613;0.033203;0.022461;1.114258;
8763;0.034180;0.030273;1.128906;
8903;0.036133;0.025391;1.126953;
9039;0.030273;0.021484;1.118164;
9194;0.030273;0.029297;1.107422;
9329;0.030273;0.023438;1.112305;
9479;0.031250;0.024414;1.104492;
9620;0.029297;0.028320;1.094727;
9779;0.031250;0.028320;1.084961;
9929;0.030273;0.016602;1.077148;
10084;0.030273;0.018555;1.066406;
10224;0.026367;0.020508;1.038086;
10374;0.023438;0.023438;1.035156;
10513;0.021484;0.020508;1.022461;
10664;0.026367;0.023438;1.008789;
10799;0.023438;0.017578;1.000000;
10954;0.019531;0.026367;1.000977;
11103;0.026367;0.019531;0.993164;
11243;0.025391;0.017578;0.987305;
11380;0.020508;0.021484;0.981445;
11534;0.024414;0.029297;0.994141;
11674;0.023438;0.019531;1.001953;
11813;0.020508;0.028320;0.993164;
11949;0.024414;0.028320;0.995117;
12089;0.018555;0.024414;0.998047;
12239;0.020508;0.025391;0.998047;
12399;0.025391;0.029297;0.996094;
12559;0.021484;0.027344;0.991211;
12709;0.017578;0.032227;0.997070;
12864;0.023438;0.031250;0.994141;
13004;0.015625;0.024414;0.983398;
13153;0.020508;0.029297;0.978516;
13293;0.024414;0.025391;0.981445;
13440;0.017578;0.027344;0.985352;
13603;0.019531;0.030273;0.963867;
13754;0.022461;0.024414;0.978516;
13894;0.019531;0.017578;0.970703;
14030;0.021484;0.023438;0.970703;
14183;0.018555;0.028320;0.972656;
14324;0.019531;0.026367;0.967773;
14473;0.020508;0.022461;0.988281;
14614;0.024414;0.024414;0.979492;
14759;0.017578;0.022461;0.978516;
14909;0.021484;0.031250;0.997070;
15050;0.023438;0.022461;0.997070;
15199;0.022461;0.020508;1.006836;
15359;0.021484;0.017578;1.022461;
15499;0.023438;0.025391;1.042969;
15654;0.025391;0.022461;1.041016;
15794;0.028320;0.028320;1.054688;
15943;0.024414;0.026367;1.063477;
16080;0.027344;0.032227;1.083984;
16234;0.026367;0.024414;1.095703;
16373;0.028320;0.026367;1.099609;
16514;0.029297;0.029297;1.101562;
16649;0.029297;0.028320;1.099609;
16804;0.028320;0.023438;1.113281;
16944;0.033203;0.022461;1.113281;
17093;0.031250;0.022461;1.103516;
17234;0.027344;0.019531;1.083984;
17369;0.028320;0.018555;1.090820;
17514;0.025391;0.027344;1.071289;
17650;0.025391;0.018555;1.057617;
17809;0.023438;0.020508;1.049805;
17970;0.021484;0.019531;1.018555;
18129;0.020508;0.021484;1.007812;
18280;0.022461;0.019531;0.998047;
18433;0.022461;0.023438;0.988281;
18574;0.023438;0.021484;0.976562;
18723;0.019531;0.031250;0.978516;
18859;0.018555;0.032227;0.985352;
19013;0.018555;0.028320;0.972656;
19154;0.017578;0.026367;0.965820;
19294;0.017578;0.030273;0.971680;
19444;0.015625;0.024414;0.968750;
19579;0.017578;0.027344;0.959961;
19724;0.020508;0.029297;0.966797;
19864;0.017578;0.032227;0.985352;
20003;0.018555;0.032227;1.002930;
20144;0.020508;0.028320;1.003906;
20279;0.020508;0.028320;1.007812;
20429;0.021484;0.025391;1.017578;
20581;0.021484;0.027344;1.027344;
20740;0.023438;0.019531;1.044922;
20890;0.028320;0.019531;1.065430;
21044;0.027344;0.020508;1.069336;
21194;0.025391;0.019531;1.084961;
21334;0.027344;0.022461;1.090820;
21469;0.026367;0.027344;1.093750;
21624;0.026367;0.030273;1.096680;
21763;0.024414;0.022461;1.091797;
21903;0.029297;0.026367;1.080078;
22043;0.026367;0.020508;1.078125;
22169;0.026367;0.018555;1.073242;
22314;0.024414;0.022461;1.068359;
22454;0.027344;0.023438;1.072266;
22593;0.024414;0.027344;1.062500;
22734;0.022461;0.029297;1.045898;
22871;0.024414;0.034180;1.042969;
23019;0.024414;0.030273;1.040039;
23179;0.022461;0.025391;1.023438;
23309;0.021484;0.025391;1.015625;
23449;0.016602;0.028320;1.007812;
23609;0.017578;0.014648;0.999023;
23769;0.019531;0.022461;0.995117;
23923;0.020508;0.012695;0.995117;
24064;0.019531;0.016602;0.980469;
24203;0.019531;0.020508;0.972656;
24339;0.018555;0.027344;0.980469;
24494;0.018555;0.021484;0.975586;
24634;0.020508;0.028320;0.975586;
24773;0.017578;0.019531;0.977539;
24909;0.015625;0.026367;0.989258;
25063;0.018555;0.032227;0.996094;
25203;0.021484;0.030273;1.004883;
25343;0.019531;0.024414;1.002930;
25485;0.019531;0.029297;0.996094;
25644;0.017578;0.027344;0.995117;
25795;0.021484;0.028320;1.003906;
25939;0.018555;0.026367;1.005859;
26099;0.017578;0.023438;1.000000;
26250;0.015625;0.028320;1.009766;
26399;0.016602;0.026367;1.003906;
26559;0.017578;0.029297;0.996094;
26703;0.020508;0.021484;0.998047;
26844;0.021484;0.024414;1.003906;
26983;0.018555;0.021484;0.997070;
27119;0.020508;0.022461;0.988281;
27283;0.020508;0.020508;0.990234;
27433;0.017578;0.019531;0.980469;
27573;0.015625;0.028320;0.988281;
27714;0.016602;0.025391;0.993164;
27864;0.018555;0.023438;0.994141;
28004;0.021484;0.026367;0.993164;
28143;0.018555;0.028320;0.997070;
28283;0.019531;0.021484;1.003906;
28419;0.018555;0.023438;1.002930;
28569;0.019531;0.028320;1.006836;
28729;0.019531;0.023438;1.015625;
28889;0.017578;0.028320;1.024414;
29040;0.016602;0.033203;1.028320;
29189;0.015625;0.032227;1.032227;
29344;0.019531;0.028320;1.038086;
29484;0.021484;0.026367;1.039062;
29624;0.022461;0.026367;1.039062;
29759;0.023438;0.019531;1.059570;
29914;0.025391;0.016602;1.067383;
30053;0.025391;0.015625;1.062500;
30193;0.021484;0.021484;1.083984;
30334;0.022461;0.022461;1.069336;
30469;0.026367;0.021484;1.074219;
30609;0.022461;0.024414;1.082031;
30763;0.022461;0.020508;1.076172;
30903;0.026367;0.024414;1.078125;
31043;0.023438;0.023438;1.089844;
31179;0.021484;0.027344;1.080078;
31329;0.024414;0.023438;1.080078;
31489;0.021484;0.023438;1.091797;
31640;0.019531;0.029297;1.097656;
31799;0.023438;0.027344;1.087891;
31954;0.026367;0.024414;1.087891;
32094;0.025391;0.018555;1.085938;
32243;0.025391;0.024414;1.086914;
32383;0.025391;0.023438;1.086914;
32519;0.024414;0.022461;1.084961;
32673;0.021484;0.022461;1.074219;
32813;0.022461;0.026367;1.073242;
32954;0.022461;0.026367;1.080078;
33089;0.019531;0.024414;1.072266;
33219;0.025391;0.025391;1.068359;
33359;0.024414;0.024414;1.070312;
33514;0.021484;0.026367;1.070312;
33664;0.022461;0.025391;1.079102;
33803;0.023438;0.028320;1.080078;
33939;0.018555;0.032227;1.080078;
34089;0.019531;0.029297;1.059570;
34249;0.021484;0.021484;1.063477;
34404;0.018555;0.028320;1.074219;
34543;0.021484;0.026367;1.060547;
34670;0.025391;0.024414;1.045898;
34819;0.018555;0.023438;1.050781;
34969;0.020508;0.020508;1.059570;
35113;0.024414;0.022461;1.061523;
35254;0.020508;0.029297;1.041016;
35393;0.021484;0.029297;1.043945;
35540;0.018555;0.023438;1.031250;
35694;0.021484;0.019531;1.025391;
35833;0.024414;0.018555;1.013672;
35973;0.017578;0.014648;1.012695;
36113;0.016602;0.017578;1.016602;
36259;0.023438;0.021484;0.993164;
36413;0.016602;0.019531;0.985352;
36553;0.015625;0.024414;0.980469;
36694;0.017578;0.026367;0.970703;
36834;0.010742;0.033203;0.984375;
36959;0.019531;0.035156;0.984375;
37109;0.017578;0.035156;0.999023;
37259;0.017578;0.034180;1.027344;
37419;0.019531;0.033203;1.041016;
37579;0.022461;0.041016;1.065430;
37719;0.019531;0.032227;1.084961;
37863;0.024414;0.029297;1.097656;
38014;0.026367;0.020508;1.110352;
38153;0.024414;0.024414;1.128906;
38295;0.029297;0.021484;1.124023;
38449;0.029297;0.028320;1.112305;
38613;0.026367;0.022461;1.093750;
38753;0.024414;0.023438;1.084961;
38893;0.021484;0.024414;1.074219;
39029;0.025391;0.019531;1.055664;
39174;0.022461;0.018555;1.042969;
39314;0.021484;0.022461;1.040039;
39454;0.018555;0.025391;1.029297;
39590;0.021484;0.021484;1.020508;
39741;0.021484;0.027344;1.007812;
39899;0.016602;0.026367;1.000977;
40060;0.019531;0.026367;0.998047;
40211;0.017578;0.034180;0.992188;
40364;0.012695;0.036133;0.985352;
40503;0.016602;0.041016;0.990234;
40639;0.014648;0.038086;1.007812;
40793;0.014648;0.033203;1.024414;
40943;0.019531;0.030273;1.039062;
41084;0.022461;0.032227;1.070312;
41230;0.025391;0.031250;1.086914;
41384;0.027344;0.028320;1.096680;
41534;0.020508;0.028320;1.103516;
41674;0.025391;0.031250;1.127930;
41823;0.028320;0.028320;1.145508;
41959;0.028320;0.031250;1.144531;
42113;0.026367;0.029297;1.145508;
42253;0.027344;0.034180;1.125000;
42389;0.026367;0.037109;1.129883;
42549;0.025391;0.039062;1.125000;
42700;0.023438;0.041016;1.101562;
42849;0.024414;0.035156;1.080078;
42983;0.024414;0.029297;1.067383;
43109;0.020508;0.033203;1.083984;
43265;0.024414;0.035156;1.083008;
43423;0.023438;0.030273;1.073242;
43563;0.020508;0.029297;1.080078;
43704;0.020508;0.027344;1.106445;
43854;0.023438;0.026367;1.121094;
43993;0.027344;0.023438;1.105469;
44129;0.028320;0.024414;1.123047;
44261;0.029297;0.026367;1.142578;
44404;0.027344;0.026367;1.140625;
44544;0.029297;0.029297;1.148438;
44683;0.030273;0.026367;1.151367;
44823;0.024414;0.026367;1.129883;
44959;0.029297;0.023438;1.125000;
45114;0.026367;0.029297;1.105469;
45249;0.024414;0.028320;1.087891;
45409;0.023438;0.034180;1.070312;
45549;0.019531;0.038086;1.057617;
45699;0.020508;0.036133;1.041992;
45859;0.021484;0.035156;1.038086;
46023;0.015625;0.034180;1.013672;
46164;0.015625;0.034180;1.004883;
46299;0.018555;0.036133;1.001953;
46453;0.015625;0.037109;1.004883;
46593;0.016602;0.025391;0.989258;
46744;0.017578;0.026367;0.986328;
46879;0.016602;0.025391;0.986328;
47030;0.015625;0.021484;0.991211;
47174;0.016602;0.024414;0.997070;
47313;0.016602;0.023438;0.998047;
47453;0.015625;0.028320;0.992188;
47589;0.016602;0.028320;0.993164;
47749;0.018555;0.027344;1.018555;
47894;0.018555;0.024414;0.998047;
48029;0.021484;0.028320;1.023438;
48179;0.015625;0.031250;1.037109;
48310;0.017578;0.032227;1.050781;
48479;0.019531;0.030273;1.044922;
48629;0.021484;0.026367;1.052734;
48779;0.020508;0.024414;1.052734;
48939;0.023438;0.027344;1.065430;
49084;0.021484;0.029297;1.067383;
49224;0.021484;0.030273;1.073242;
49364;0.024414;0.029297;1.049805;
49499;0.022461;0.034180;1.046875;
49653;0.019531;0.036133;1.040039;
49803;0.021484;0.031250;1.056641;
49943;0.017578;0.034180;1.047852;
50089;0.020508;0.033203;1.041016;
50244;0.017578;0.034180;1.040039;
50383;0.014648;0.036133;1.035156;
50524;0.021484;0.041992;1.037109;
50659;0.020508;0.038086;1.033203;
50813;0.018555;0.034180;1.031250;
50955;0.016602;0.032227;1.037109;
51099;0.019531;0.034180;1.034180;
51249;0.017578;0.031250;1.041016;
51399;0.018555;0.029297;1.036133;
51549;0.018555;0.034180;1.045898;
51679;0.017578;0.029297;1.053711;
51834;0.020508;0.035156;1.075195;
51974;0.020508;0.027344;1.074219;
52123;0.024414;0.023438;1.091797;
52260;0.023438;0.025391;1.101562;
52414;0.024414;0.026367;1.129883;
52553;0.024414;0.024414;1.155273;
52694;0.028320;0.025391;1.176758;
52829;0.028320;0.023438;1.194336;
52969;0.032227;0.030273;1.226562;
53124;0.034180;0.030273;1.251953;
53264;0.036133;0.027344;1.248047;
53404;0.039062;0.026367;1.263672;
53539;0.036133;0.029297;1.276367;
53690;0.036133;0.031250;1.283203;
53849;0.037109;0.032227;1.290039;
54009;0.038086;0.030273;1.277344;
54150;0.035156;0.028320;1.258789;
54299;0.035156;0.031250;1.252930;
54429;0.031250;0.032227;1.231445;
54584;0.028320;0.029297;1.214844;
54723;0.032227;0.028320;1.184570;
54864;0.030273;0.028320;1.173828;
55013;0.025391;0.026367;1.160156;
55160;0.025391;0.028320;1.153320;
55313;0.026367;0.031250;1.145508;
55454;0.025391;0.030273;1.140625;
55594;0.026367;0.033203;1.141602;
55734;0.024414;0.032227;1.151367;
55870;0.026367;0.031250;1.159180;
56024;0.028320;0.030273;1.169922;
56163;0.031250;0.027344;1.173828;
56299;0.031250;0.025391;1.171875;
56450;0.028320;0.026367;1.180664;
56599;0.032227;0.029297;1.194336;
56749;0.030273;0.025391;1.189453;
56899;0.028320;0.029297;1.173828;
57049;0.029297;0.026367;1.167969;
57179;0.023438;0.029297;1.161133;
57334;0.023438;0.028320;1.137695;
57473;0.026367;0.027344;1.115234;
57609;0.024414;0.025391;1.103516;
57763;0.021484;0.026367;1.073242;
57903;0.020508;0.032227;1.074219;
58043;0.018555;0.030273;1.059570;
58194;0.019531;0.030273;1.044922;
58319;0.018555;0.034180;1.041992;
58464;0.017578;0.035156;1.030273;
58603;0.017578;0.041016;1.042969;
58743;0.018555;0.030273;1.030273;
58883;0.020508;0.033203;1.041992;
59034;0.016602;0.035156;1.052734;
59173;0.017578;0.035156;1.062500;
59373;0.019531;0.030273;1.076172;
59574;0.019531;0.035156;1.081055;
59769;0.019531;0.036133;1.092773;
59930;0.018555;0.040039;1.107422;
60079;0.020508;0.037109;1.116211;
60229;0.020508;0.033203;1.104492;
60380;0.023438;0.023438;1.108398;
60520;0.023438;0.024414;1.105469;
60669;0.022461;0.024414;1.112305;
60819;0.024414;0.022461;1.098633;
60974;0.024414;0.024414;1.090820;
61114;0.022461;0.019531;1.079102;
61264;0.020508;0.024414;1.075195;
61404;0.018555;0.030273;1.083984;
61539;0.017578;0.032227;1.080078;
61694;0.021484;0.032227;1.068359;
61829;0.020508;0.033203;1.066406;
61984;0.018555;0.031250;1.073242;
62133;0.015625;0.037109;1.057617;
62273;0.021484;0.035156;1.067383;
62419;0.018555;0.030273;1.065430;
62573;0.019531;0.026367;1.071289;
62723;0.021484;0.032227;1.086914;
62850;0.021484;0.036133;1.098633;
62999;0.021484;0.033203;1.107422;
63149;0.022461;0.033203;1.110352;
63299;0.021484;0.031250;1.107422;
63439;0.022461;0.034180;1.115234;
63569;0.023438;0.032227;1.116211;
63714;0.023438;0.029297;1.117188;
63855;0.024414;0.032227;1.121094;
64010;0.020508;0.029297;1.111328;
64153;0.021484;0.036133;1.129883;
64293;0.022461;0.031250;1.120117;
64434;0.023438;0.032227;1.100586;
64569;0.025391;0.028320;1.098633;
64724;0.021484;0.028320;1.100586;
64864;0.023438;0.027344;1.105469;
65003;0.023438;0.031250;1.105469;
65140;0.025391;0.031250;1.103516;
65290;0.021484;0.035156;1.107422;
65443;0.020508;0.036133;1.121094;
65583;0.022461;0.039062;1.130859;
65720;0.020508;0.041992;1.128906;
65869;0.024414;0.032227;1.129883;
66019;0.024414;0.036133;1.126953;
66170;0.024414;0.038086;1.123047;
66319;0.024414;0.036133;1.125000;
66460;0.025391;0.029297;1.126953;
66614;0.025391;0.034180;1.122070;
66753;0.023438;0.033203;1.115234;
66889;0.017578;0.030273;1.111328;
67043;0.021484;0.035156;1.109375;
67183;0.021484;0.033203;1.099609;
67323;0.024414;0.034180;1.104492;
67459;0.022461;0.034180;1.092773;
67600;0.021484;0.039062;1.100586;
67753;0.022461;0.030273;1.108398;
67893;0.023438;0.035156;1.116211;
68033;0.020508;0.029297;1.109375;
68173;0.021484;0.033203;1.125977;
68313;0.020508;0.033203;1.139648;
68450;0.025391;0.041016;1.134766;
68593;0.022461;0.034180;1.133789;
68739;0.024414;0.040039;1.144531;
68900;0.026367;0.038086;1.143555;
69040;0.026367;0.026367;1.156250;
69189;0.028320;0.018555;1.166992;
69324;0.021484;0.033203;1.136719;
69449;0.023438;0.030273;1.160156;
69593;0.022461;0.031250;1.158203;
69729;0.025391;0.029297;1.146484;
69893;0.026367;0.034180;1.154297;
70033;0.023438;0.036133;1.149414;
70173;0.025391;0.031250;1.140625;
70315;0.023438;0.038086;1.147461;
70464;0.021484;0.028320;1.133789;
70613;0.027344;0.037109;1.131836;
70753;0.019531;0.040039;1.150391;
70893;0.025391;0.041992;1.158203;
71039;0.023438;0.027344;1.137695;
71183;0.029297;0.042969;1.141602;
71323;0.023438;0.033203;1.128906;
71459;0.027344;0.032227;1.148438;
71609;0.023438;0.031250;1.144531;
71759;0.027344;0.033203;1.165039;
71909;0.025391;0.031250;1.149414;
72049;0.025391;0.032227;1.152344;
72199;0.022461;0.029297;1.156250;
72349;0.030273;0.025391;1.161133;
72503;0.024414;0.034180;1.155273;
72649;0.026367;0.031250;1.155273;
72794;0.024414;0.027344;1.153320;
72933;0.029297;0.024414;1.148438;
73073;0.024414;0.022461;1.148438;
73209;0.027344;0.027344;1.153320;
73339;0.020508;0.033203;1.149414;
73473;0.021484;0.038086;1.146484;
73614;0.021484;0.031250;1.143555;
73753;0.027344;0.041992;1.152344;
73903;0.023438;0.033203;1.134766;
74043;0.024414;0.036133;1.140625;
74184;0.019531;0.036133;1.160156;
74323;0.029297;0.045898;1.146484;
74459;0.022461;0.032227;1.151367;
74609;0.024414;0.048828;1.150391;
74749;0.021484;0.045898;1.149414;
74899;0.020508;0.037109;1.152344;
75049;0.030273;0.008789;1.169922;
75199;0.030273;0.035156;1.168945;
75350;0.026367;0.024414;1.153320;
75500;0.026367;0.041016;1.166016;
75653;0.024414;0.038086;1.159180;
75799;0.026367;0.041016;1.142578;
75953;0.029297;0.035156;1.149414;
76104;0.027344;0.041992;1.145508;
76243;0.022461;0.035156;1.151367;
76384;0.023438;0.037109;1.130859;
76519;0.028320;0.035156;1.116211;
76664;0.026367;0.036133;1.109375;
76804;0.022461;0.029297;1.116211;
76943;0.023438;0.040039;1.117188;
77093;0.027344;0.037109;1.142578;
77239;0.022461;0.028320;1.123047;
77394;0.028320;0.031250;1.121094;
77529;0.025391;0.040039;1.118164;
77689;0.020508;0.041992;1.117188;
77840;0.019531;0.037109;1.124023;
77989;0.027344;0.029297;1.120117;
78140;0.018555;0.024414;1.123047;
78289;0.028320;0.036133;1.144531;
78434;0.022461;0.032227;1.120117;
78573;0.027344;0.036133;1.124023;
78709;0.025391;0.019531;1.108398;
78864;0.027344;0.037109;1.117188;
79004;0.021484;0.025391;1.116211;
79154;0.022461;0.033203;1.126953;
79294;0.027344;0.021484;1.139648;
79439;0.027344;0.037109;1.138672;
79584;0.019531;0.031250;1.111328;
79724;0.026367;0.032227;1.104492;
79873;0.020508;0.034180;1.115234;
80013;0.024414;0.039062;1.121094;
80149;0.025391;0.037109;1.105469;
80304;0.021484;0.028320;1.114258;
80440;0.019531;0.024414;1.097656;
80589;0.023438;0.033203;1.079102;
80749;0.019531;0.043945;1.080078;
80899;0.021484;0.037109;1.063477;
81050;0.022461;0.029297;1.065430;
81189;0.018555;0.038086;1.083984;
81339;0.017578;0.049805;1.059570;
81483;0.023438;0.027344;1.051758;
81619;0.020508;0.032227;1.060547;
81773;0.022461;0.029297;1.039062;
81913;0.018555;0.044922;1.046875;
82053;0.013672;0.039062;1.052734;
82189;0.020508;0.030273;1.038086;
82344;0.016602;0.033203;1.053711;
82484;0.020508;0.026367;1.072266;
82624;0.019531;0.029297;1.057617;
82774;0.020508;0.024414;1.066406;
82909;0.025391;0.030273;1.064453;
83063;0.021484;0.032227;1.050781;
83204;0.018555;0.053711;1.084961;
83345;0.017578;0.046875;1.078125;
83499;0.020508;0.036133;1.070312;
83649;0.020508;0.034180;1.070312;
83800;0.019531;0.037109;1.065430;
83950;0.014648;0.038086;1.068359;
84099;0.021484;0.045898;1.070312;
84249;0.020508;0.037109;1.070312;
84389;0.022461;0.025391;1.058594;
84529;0.021484;0.034180;1.036133;
84674;0.020508;0.042969;1.048828;
84814;0.018555;0.029297;1.043945;
84963;0.023438;0.029297;1.048828;
85100;0.015625;0.036133;1.049805;
85254;0.019531;0.031250;1.051758;
85394;0.015625;0.038086;1.050781;
85534;0.022461;0.039062;1.062500;
85673;0.024414;0.031250;1.079102;
85809;0.021484;0.030273;1.069336;
85953;0.019531;0.034180;1.079102;
86093;0.024414;0.037109;1.092773;
86233;0.025391;0.033203;1.090820;
86375;0.024414;0.031250;1.111328;
86519;0.024414;0.041992;1.126953;
86669;0.023438;0.039062;1.121094;
86799;0.027344;0.024414;1.130859;
86949;0.030273;0.030273;1.130859;
87099;0.028320;0.034180;1.152344;
87249;0.026367;0.027344;1.158203;
87399;0.026367;0.037109;1.160156;
87553;0.025391;0.035156;1.174805;
87693;0.028320;0.043945;1.167969;
87834;0.025391;0.026367;1.166992;
87974;0.027344;0.028320;1.165039;
88119;0.026367;0.035156;1.144531;
88273;0.030273;0.026367;1.156250;
88423;0.029297;0.030273;1.175781;
88564;0.027344;0.034180;1.153320;
88700;0.030273;0.032227;1.151367;
88854;0.029297;0.024414;1.158203;
88993;0.025391;0.046875;1.167969;
89134;0.023438;0.040039;1.136719;
89284;0.025391;0.030273;1.140625;
89435;0.023438;0.038086;1.137695;
89589;0.024414;0.039062;1.132812;
89750;0.028320;0.032227;1.125000;
89899;0.027344;0.041992;1.120117;
90059;0.023438;0.032227;1.123047;
90210;0.026367;0.034180;1.106445;
90353;0.025391;0.039062;1.116211;
90493;0.024414;0.038086;1.110352;
90629;0.022461;0.030273;1.095703;
90774;0.023438;0.033203;1.088867;
90914;0.018555;0.033203;1.083008;
91054;0.022461;0.034180;1.082031;
91193;0.022461;0.028320;1.073242;
91334;0.021484;0.038086;1.070312;
91474;0.022461;0.037109;1.072266;
91613;0.020508;0.038086;1.068359;
91753;0.020508;0.038086;1.045898;
91889;0.021484;0.032227;1.054688;
92033;0.013672;0.034180;1.060547;
92173;0.019531;0.040039;1.054688;
92310;0.020508;0.033203;1.060547;
92459;0.022461;0.033203;1.064453;
92611;0.020508;0.033203;1.064453;
92759;0.025391;0.035156;1.078125;
92909;0.020508;0.031250;1.041992;
93040;0.016602;0.043945;1.054688;
93179;0.016602;0.026367;1.048828;
93319;0.015625;0.037109;1.050781;
93473;0.018555;0.029297;1.054688;
93623;0.023438;0.035156;1.088867;
93763;0.022461;0.028320;1.068359;
93903;0.024414;0.043945;1.062500;
94050;0.018555;0.038086;1.050781;
94194;0.023438;0.044922;1.071289;
94334;0.016602;0.039062;1.079102;
94473;0.019531;0.042969;1.063477;
94609;0.022461;0.038086;1.064453;
94763;0.014648;0.047852;1.057617;
94913;0.015625;0.035156;1.049805;
95054;0.024414;0.036133;1.070312;
95189;0.019531;0.041016;1.055664;
95339;0.022461;0.051758;1.049805;
95490;0.016602;0.035156;1.044922;
95619;0.016602;0.040039;1.059570;
95760;0.015625;0.024414;1.063477;
95909;0.027344;0.022461;1.076172;
96059;0.018555;0.023438;1.085938;
96209;0.019531;0.042969;1.083984;
96363;0.026367;0.027344;1.077148;
96503;0.020508;0.034180;1.086914;
96643;0.025391;0.033203;1.093750;
96779;0.019531;0.040039;1.093750;
96924;0.021484;0.028320;1.080078;
97064;0.024414;0.041992;1.094727;
97203;0.022461;0.040039;1.099609;
97343;0.015625;0.033203;1.074219;
97479;0.027344;0.037109;1.088867;
97633;0.020508;0.058594;1.067383;
97773;0.021484;0.036133;1.072266;
97913;0.021484;0.042969;1.075195;
98049;0.019531;0.047852;1.088867;
98199;0.013672;0.021484;1.062500;
98349;0.020508;0.009766;1.056641;
98489;0.019531;0.032227;1.065430;
98629;0.016602;0.026367;1.022461;
98780;0.017578;0.014648;1.013672;
98939;0.016602;0.013672;1.021484;
99089;0.018555;0.021484;1.042969;
99244;0.022461;0.009766;1.042969;
99390;0.024414;0.026367;1.054688;
99544;0.018555;0.027344;1.080078;
99684;0.023438;0.024414;1.078125;
99823;0.015625;0.026367;1.054688;
99963;0.020508;0.030273;1.053711;
100100;0.018555;0.033203;1.083984;
100253;0.012695;0.038086;1.115234;
100393;0.022461;0.040039;1.130859;
100533;0.025391;0.032227;1.119141;
100669;0.022461;0.027344;1.103516;
100823;0.021484;0.031250;1.098633;
100974;0.022461;0.027344;1.097656;
101113;0.017578;0.017578;1.071289;
101249;0.021484;0.025391;1.078125;
101400;0.018555;0.031250;1.070312;
101549;0.015625;0.020508;1.060547;
101710;0.017578;0.027344;1.055664;
101859;0.019531;0.029297;1.071289;
102009;0.021484;0.023438;1.053711;
102164;0.020508;0.026367;1.049805;
102304;0.013672;0.023438;1.029297;
102453;0.014648;0.025391;1.013672;
102593;0.016602;0.028320;1.006836;
102729;0.019531;0.026367;1.011719;
102883;0.014648;0.024414;1.010742;
103023;0.012695;0.033203;1.008789;
103163;0.014648;0.030273;1.018555;
103299;0.016602;0.028320;1.041992;
103449;0.021484;0.026367;1.042969;
103594;0.017578;0.034180;1.039062;
103733;0.015625;0.028320;1.046875;
103873;0.018555;0.026367;1.071289;
104010;0.016602;0.027344;1.061523;
104159;0.019531;0.027344;1.056641;
104310;0.016602;0.027344;1.051758;
104459;0.011719;0.036133;1.035156;
104620;0.016602;0.029297;1.033203;
104769;0.016602;0.031250;1.036133;
104924;0.013672;0.032227;1.038086;
105073;0.016602;0.028320;1.028320;
105213;0.017578;0.027344;1.026367;
105349;0.015625;0.031250;1.026367;
105499;0.017578;0.030273;1.016602;
105643;0.017578;0.028320;1.023438;
105793;0.020508;0.033203;1.026367;
105933;0.014648;0.038086;1.027344;
106069;0.012695;0.033203;1.037109;
106213;0.016602;0.027344;1.028320;
106359;0.017578;0.031250;1.015625;
106513;0.017578;0.027344;1.013672;
106653;0.015625;0.028320;1.014648;
106793;0.017578;0.031250;1.021484;
106940;0.013672;0.029297;1.018555;
107089;0.018555;0.027344;1.022461;
107241;0.014648;0.032227;1.021484;
107399;0.007812;0.030273;1.003906;
107543;0.013672;0.033203;1.013672;
107669;0.015625;0.030273;1.018555;
107809;0.014648;0.028320;1.012695;
107953;0.013672;0.029297;1.004883;
108093;0.016602;0.023438;1.011719;
108233;0.014648;0.029297;1.019531;
108373;0.016602;0.022461;1.012695;
108513;0.013672;0.030273;1.027344;
108653;0.011719;0.033203;1.013672;
108794;0.019531;0.030273;1.007812;
108934;0.014648;0.026367;1.001953;
109073;0.013672;0.026367;0.979492;
109213;0.011719;0.024414;0.967773;
109353;0.011719;0.025391;0.973633;
109493;0.010742;0.026367;0.964844;
109633;0.009766;0.032227;0.960938;
109773;0.005859;0.029297;0.958984;
109919;0.011719;0.028320;0.960938;
110059;0.014648;0.027344;0.967773;
110203;0.010742;0.028320;0.950195;
110344;0.007812;0.029297;0.958984;
110480;0.009766;0.032227;0.963867;
110629;0.010742;0.025391;0.967773;
110769;0.011719;0.029297;0.968750;
110919;0.011719;0.029297;0.972656;
111074;0.008789;0.028320;0.983398;
111213;0.009766;0.033203;0.986328;
111353;0.014648;0.029297;0.990234;
111493;0.013672;0.026367;0.995117;
111633;0.014648;0.025391;1.000977;
111774;0.013672;0.030273;1.012695;
111913;0.013672;0.027344;1.012695;
112053;0.014648;0.029297;1.014648;
112194;0.012695;0.029297;1.012695;
112333;0.012695;0.027344;1.019531;
112473;0.011719;0.027344;1.018555;
112624;0.014648;0.023438;1.004883;
112764;0.017578;0.025391;1.009766;
112904;0.010742;0.029297;1.024414;
113039;0.013672;0.028320;1.022461;
113191;0.013672;0.027344;1.021484;
113339;0.015625;0.026367;1.009766;
113489;0.013672;0.025391;1.015625;
113641;0.010742;0.032227;1.008789;
113783;0.009766;0.028320;1.004883;
113934;0.012695;0.024414;1.003906;
114074;0.013672;0.023438;1.006836;
114213;0.013672;0.027344;1.000000;
114353;0.012695;0.025391;1.000977;
114493;0.013672;0.031250;1.002930;
114634;0.014648;0.032227;1.004883;
114784;0.012695;0.032227;1.008789;
114924;0.012695;0.033203;1.015625;
115064;0.012695;0.032227;1.014648;
115204;0.016602;0.027344;1.015625;
115343;0.015625;0.029297;1.011719;
115493;0.016602;0.024414;1.026367;
115633;0.011719;0.028320;1.019531;
115779;0.014648;0.028320;1.030273;
115939;0.013672;0.024414;1.027344;
116089;0.015625;0.026367;1.032227;
116239;0.012695;0.028320;1.023438;
116384;0.011719;0.025391;1.018555;
116524;0.012695;0.029297;1.023438;
116664;0.015625;0.028320;1.020508;
116804;0.012695;0.027344;1.012695;
116944;0.012695;0.023438;0.996094;
117083;0.013672;0.027344;0.994141;
117223;0.012695;0.025391;1.003906;
117363;0.012695;0.024414;1.005859;
117504;0.008789;0.027344;0.989258;
117644;0.008789;0.026367;0.987305;
117784;0.008789;0.023438;0.995117;
117924;0.015625;0.023438;1.003906;
118064;0.013672;0.020508;0.998047;
118204;0.010742;0.021484;1.005859;
118343;0.013672;0.029297;1.013672;
118489;0.011719;0.029297;1.020508;
118643;0.014648;0.029297;1.021484;
118779;0.011719;0.031250;1.022461;
118919;0.010742;0.028320;1.024414;
119069;0.011719;0.030273;1.031250;
119219;0.015625;0.025391;1.034180;
119374;0.015625;0.024414;1.027344;
119514;0.016602;0.027344;1.024414;
119654;0.010742;0.026367;1.024414;
119793;0.012695;0.026367;1.032227;
119934;0.013672;0.027344;1.036133;
120074;0.013672;0.027344;1.028320;
120213;0.012695;0.026367;1.022461;
120353;0.010742;0.027344;1.020508;
120494;0.015625;0.024414;1.021484;
120633;0.016602;0.025391;1.017578;
120773;0.011719;0.026367;1.008789;
120913;0.010742;0.030273;1.023438;
121054;0.012695;0.026367;1.014648;
121194;0.011719;0.027344;1.023438;
121344;0.012695;0.029297;1.026367;
121481;0.014648;0.029297;1.025391;
121619;0.012695;0.027344;1.041016;
121769;0.016602;0.026367;1.055664;
121919;0.016602;0.032227;1.054688;
122073;0.015625;0.030273;1.057617;
122214;0.015625;0.029297;1.064453;
122353;0.011719;0.035156;1.067383;
122494;0.014648;0.029297;1.070312;
122644;0.016602;0.029297;1.074219;
122784;0.018555;0.030273;1.074219;
122924;0.013672;0.028320;1.082031;
123073;0.013672;0.028320;1.076172;
123214;0.016602;0.027344;1.091797;
123353;0.019531;0.030273;1.078125;
123493;0.018555;0.027344;1.071289;
123634;0.012695;0.028320;1.071289;
123773;0.015625;0.029297;1.073242;
123913;0.015625;0.027344;1.064453;
124049;0.014648;0.028320;1.051758;
124209;0.013672;0.026367;1.045898;
124359;0.012695;0.026367;1.035156;
124510;0.014648;0.023438;1.039062;
124663;0.013672;0.025391;1.037109;
124800;0.014648;0.028320;1.034180;
124944;0.011719;0.023438;1.013672;
125084;0.011719;0.023438;1.013672;
125223;0.008789;0.028320;1.011719;
125359;0.010742;0.026367;1.009766;
125514;0.012695;0.028320;1.014648;
125653;0.006836;0.032227;1.006836;
125793;0.006836;0.032227;1.019531;
125929;0.010742;0.028320;1.016602;
126064;0.014648;0.025391;1.032227;
126214;0.013672;0.028320;1.044922;
126354;0.012695;0.029297;1.058594;
126493;0.014648;0.030273;1.083008;
126630;0.016602;0.027344;1.089844;
126779;0.018555;0.027344;1.102539;
126929;0.016602;0.026367;1.097656;
127079;0.016602;0.026367;1.097656;
127230;0.014648;0.029297;1.097656;
127379;0.014648;0.030273;1.098633;
127529;0.016602;0.029297;1.087891;
127683;0.018555;0.026367;1.081055;
127823;0.016602;0.025391;1.063477;
127964;0.013672;0.028320;1.062500;
128104;0.013672;0.026367;1.047852;
128239;0.013672;0.028320;1.036133;
128394;0.013672;0.024414;1.032227;
128534;0.010742;0.027344;1.023438;
128673;0.010742;0.028320;1.024414;
128809;0.008789;0.028320;1.015625;
128964;0.012695;0.028320;1.003906;
129103;0.010742;0.025391;1.000977;
129244;0.012695;0.024414;1.008789;
129383;0.012695;0.026367;1.013672;
129519;0.012695;0.031250;1.016602;
129659;0.009766;0.028320;1.011719;
129809;0.010742;0.030273;1.025391;
129960;0.010742;0.033203;1.014648;
130109;0.011719;0.033203;1.024414;
130260;0.009766;0.030273;1.026367;
130409;0.011719;0.031250;1.021484;
130563;0.010742;0.027344;1.013672;
130703;0.009766;0.028320;1.023438;
130843;0.011719;0.030273;1.031250;
130989;0.012695;0.027344;1.025391;
131144;0.013672;0.025391;1.025391;
131284;0.012695;0.026367;1.026367;
131423;0.010742;0.023438;1.017578;
131564;0.009766;0.028320;1.034180;
131699;0.010742;0.024414;1.018555;
131854;0.015625;0.024414;1.015625;
131994;0.014648;0.025391;1.015625;
132134;0.010742;0.021484;1.016602;
132273;0.011719;0.027344;1.017578;
132419;0.011719;0.024414;1.020508;
132570;0.012695;0.026367;1.011719;
132720;0.014648;0.023438;1.012695;
132879;0.010742;0.024414;1.015625;
133029;0.012695;0.026367;1.019531;
133179;0.009766;0.036133;1.035156;
133330;0.011719;0.031250;1.028320;
133484;0.008789;0.031250;1.020508;
133623;0.011719;0.032227;1.023438;
133773;0.009766;0.032227;1.024414;
133909;0.012695;0.033203;1.036133;
134064;0.009766;0.026367;1.025391;
134204;0.011719;0.028320;1.015625;
134343;0.010742;0.024414;0.994141;
134480;0.010742;0.026367;0.996094;
134634;0.006836;0.027344;0.998047;
134773;0.009766;0.029297;0.994141;
134923;0.006836;0.027344;0.986328;
135063;0.008789;0.027344;0.984375;
135200;0.008789;0.027344;0.991211;
135349;0.008789;0.029297;0.997070;
135499;0.008789;0.028320;1.005859;
135659;0.010742;0.026367;0.992188;
135799;0.012695;0.026367;0.982422;
135949;0.008789;0.027344;0.985352;
136090;0.011719;0.027344;0.984375;
136240;0.008789;0.025391;0.998047;
136384;0.011719;0.031250;1.006836;
136534;0.012695;0.029297;1.016602;
136673;0.007812;0.031250;1.002930;
136809;0.008789;0.035156;1.007812;
136964;0.005859;0.028320;1.012695;
137103;0.010742;0.029297;1.016602;
137243;0.009766;0.030273;1.001953;
137383;0.010742;0.028320;1.001953;
137513;0.006836;0.029297;0.996094;
137649;0.008789;0.030273;0.999023;
137794;0.006836;0.029297;0.976562;
137933;0.008789;0.027344;0.983398;
138073;0.002930;0.029297;0.982422;
138219;0.006836;0.033203;0.985352;
138369;0.005859;0.029297;0.984375;
138520;0.007812;0.029297;1.002930;
138669;0.008789;0.028320;1.009766;
138810;0.013672;0.030273;1.045898;
138960;0.009766;0.026367;1.051758;
139104;0.014648;0.032227;1.058594;
139244;0.010742;0.028320;1.042969;
139384;0.009766;0.026367;1.022461;
139519;0.005859;0.028320;1.022461;
139669;0.006836;0.029297;1.000977;
139824;0.003906;0.028320;0.979492;
139963;0.006836;0.028320;0.954102;
140103;0.002930;0.025391;0.937500;
140239;0.004883;0.027344;0.925781;
140384;0.002930;0.028320;0.911133;
140524;0.003906;0.026367;0.907227;
140664;0.003906;0.025391;0.892578;
140804;0.000977;0.030273;0.896484;
140939;0.000977;0.028320;0.881836;
141089;0.000977;0.029297;0.893555;
141240;-0.003906;0.026367;0.891602;
141390;0.001953;0.029297;0.904297;
141521;0.002930;0.031250;0.919922;
141669;0.004883;0.035156;0.941406;
141824;0.002930;0.030273;0.953125;
141969;0.006836;0.032227;0.976562;
142123;0.008789;0.026367;0.982422;
142263;0.007812;0.024414;1.001953;
142403;0.010742;0.024414;1.007812;
142539;0.006836;0.028320;1.032227;
142679;0.008789;0.025391;1.034180;
142824;0.009766;0.027344;1.033203;
142973;0.008789;0.025391;1.029297;
143113;0.008789;0.026367;1.028320;
143249;0.007812;0.027344;1.022461;
143403;0.007812;0.020508;0.995117;
143553;0.008789;0.022461;0.979492;
143693;0.005859;0.022461;0.955078;
143839;0.004883;0.025391;0.946289;
143989;0.003906;0.028320;0.948242;
144139;0.001953;0.026367;0.934570;
144289;0.001953;0.027344;0.933594;
144441;0.000977;0.026367;0.920898;
144599;0.000977;0.030273;0.922852;
144749;-0.000977;0.033203;0.926758;
144904;0.000977;0.027344;0.932617;
145044;0.000977;0.028320;0.952148;
145193;0.004883;0.029297;0.967773;
145329;0.007812;0.028320;0.986328;
145484;0.003906;0.026367;1.009766;
145624;0.008789;0.029297;1.029297;
145774;0.009766;0.022461;1.047852;
145913;0.009766;0.027344;1.059570;
146059;0.012695;0.030273;1.073242;
146200;0.012695;0.023438;1.074219;
146353;0.013672;0.021484;1.083984;
146503;0.013672;0.025391;1.106445;
146643;0.011719;0.025391;1.121094;
146789;0.013672;0.021484;1.105469;
146939;0.013672;0.023438;1.120117;
147099;0.011719;0.024414;1.115234;
147243;0.012695;0.029297;1.113281;
147389;0.010742;0.025391;1.124023;
147539;0.011719;0.028320;1.127930;
147679;0.015625;0.029297;1.114258;
147809;0.015625;0.025391;1.112305;
147964;0.012695;0.027344;1.102539;
148103;0.013672;0.029297;1.091797;
148253;0.009766;0.028320;1.077148;
148379;0.009766;0.028320;1.071289;
148533;0.011719;0.030273;1.046875;
148673;0.006836;0.029297;1.035156;
148813;0.003906;0.031250;1.011719;
148949;0.002930;0.029297;0.990234;
149084;0.002930;0.039062;0.951172;
149219;0.003906;0.028320;0.938477;
149364;0.004883;0.028320;0.952148;
149503;-0.001953;0.024414;0.910156;
149643;0.006836;0.035156;0.930664;
149784;-0.003906;0.023438;0.929688;
149919;0.002930;0.028320;0.929688;
150071;0.002930;0.023438;0.934570;
150219;-0.001953;0.030273;0.914062;
150369;-0.008789;0.028320;0.916992;
150509;-0.000977;0.035156;0.921875;
150649;-0.004883;0.031250;0.911133;
150799;0.003906;0.042969;0.921875;
150949;-0.003906;0.041992;0.924805;
151093;-0.004883;0.034180;0.933594;
151219;-0.001953;0.023438;0.950195;
151364;-0.003906;0.030273;0.935547;
151504;0.000000;0.029297;0.928711;
151644;-0.004883;0.024414;0.915039;
151783;-0.001953;0.029297;0.935547;
151924;-0.003906;0.034180;0.939453;
152069;-0.007812;0.022461;0.919922;
152224;-0.003906;0.030273;0.931641;
152374;-0.001953;0.021484;0.911133;
152514;-0.005859;0.019531;0.891602;
152649;-0.003906;0.018555;0.873047;
152804;-0.006836;0.022461;0.859375;
152953;-0.005859;0.010742;0.853516;
153093;-0.004883;0.013672;0.853516;
153230;-0.008789;0.025391;0.848633;
153390;-0.012695;0.027344;0.835938;
153519;-0.005859;0.029297;0.817383;
153659;-0.014648;0.027344;0.776367;
153821;-0.006836;0.019531;0.776367;
153969;-0.015625;0.021484;0.763672;
154120;-0.012695;0.020508;0.766602;
154283;-0.011719;0.020508;0.793945;
154424;-0.010742;0.014648;0.812500;
154574;-0.009766;0.034180;0.825195;
154713;-0.007812;0.031250;0.858398;
154864;-0.012695;0.040039;0.890625;
155004;-0.007812;0.037109;0.916016;
155143;-0.007812;0.040039;0.925781;
155283;-0.004883;0.034180;0.942383;
155419;-0.006836;0.042969;0.940430;
155563;-0.006836;0.040039;0.939453;
155703;-0.006836;0.032227;0.958008;
155843;-0.004883;0.026367;0.984375;
155979;-0.002930;0.032227;1.010742;
156120;0.000000;0.028320;1.036133;
156270;0.001953;0.023438;1.026367;
156424;0.003906;0.026367;1.029297;
156574;-0.001953;0.016602;1.048828;
156710;0.001953;0.025391;1.041016;
156859;0.003906;0.024414;1.039062;
157009;0.000000;0.022461;1.054688;
157159;-0.001953;0.015625;1.022461;
157314;0.002930;0.026367;1.005859;
157453;-0.001953;0.012695;0.990234;
157593;0.000000;0.021484;0.994141;
157744;-0.005859;0.027344;0.987305;
157883;-0.003906;0.025391;0.974609;
158034;-0.004883;0.028320;0.957031;
158169;-0.008789;0.035156;0.974609;
158324;-0.008789;0.033203;0.964844;
158464;-0.006836;0.028320;0.965820;
158604;-0.007812;0.031250;0.988281;
158744;-0.002930;0.032227;0.992188;
158884;-0.005859;0.021484;0.980469;
159023;-0.002930;0.027344;0.983398;
159159;-0.005859;0.025391;0.983398;
159299;-0.002930;0.018555;0.996094;
159443;-0.009766;0.018555;0.988281;
159579;-0.001953;0.018555;0.987305;
159739;-0.006836;0.016602;0.992188;
159879;-0.006836;0.014648;1.002930;
160020;-0.005859;0.025391;1.022461;
160171;0.000000;0.025391;1.031250;
160324;-0.002930;0.024414;1.054688;
160463;0.000977;0.026367;1.089844;
160604;-0.002930;0.030273;1.050781;
160739;-0.004883;0.039062;1.048828;
160893;-0.000977;0.032227;1.019531;
161033;-0.005859;0.040039;1.005859;
161173;-0.001953;0.030273;0.997070;
161309;-0.009766;0.034180;0.991211;
161464;-0.015625;0.032227;0.971680;
161604;-0.009766;0.041016;1.016602;
161744;-0.009766;0.035156;1.066406;
161884;-0.004883;0.025391;1.063477;
162029;-0.005859;0.018555;1.051758;
162173;-0.005859;0.010742;1.078125;
162315;-0.002930;0.007812;1.065430;
162469;-0.007812;0.010742;1.062500;
162619;0.000000;0.016602;1.115234;
162769;-0.003906;0.017578;1.136719;
162919;-0.007812;0.028320;1.127930;
163069;-0.000977;0.038086;1.108398;
163224;-0.005859;0.016602;1.075195;
163364;-0.008789;0.024414;1.060547;
163504;-0.007812;0.029297;1.036133;
163640;-0.012695;0.031250;1.018555;
163783;-0.003906;0.023438;1.027344;
163924;-0.011719;0.025391;1.043945;
164073;-0.007812;0.022461;1.036133;
164210;-0.009766;0.028320;0.993164;
164354;-0.011719;0.025391;0.975586;
164494;-0.010742;0.025391;1.021484;
164633;-0.006836;0.014648;1.027344;
164780;-0.012695;0.025391;0.992188;
164929;-0.014648;0.023438;0.969727;
165084;-0.011719;0.031250;0.963867;
165219;-0.009766;0.029297;1.014648;
165370;-0.008789;0.017578;1.061523;
165519;-0.008789;0.019531;1.073242;
165659;-0.007812;0.017578;1.053711;
165799;-0.005859;0.032227;1.052734;
165939;-0.006836;0.029297;1.073242;
166074;-0.010742;0.022461;1.088867;
166214;-0.008789;0.033203;1.084961;
166355;-0.007812;0.028320;1.078125;
166514;-0.007812;0.022461;1.079102;
166653;-0.000977;0.028320;1.093750;
166803;-0.005859;0.043945;1.091797;
166944;-0.009766;0.040039;1.089844;
167079;-0.010742;0.041016;1.083984;
167224;-0.014648;0.041016;1.074219;
167363;-0.006836;0.026367;1.066406;
167503;-0.012695;0.024414;1.024414;
167644;-0.011719;0.020508;1.008789;
167784;-0.013672;0.027344;0.994141;
167923;-0.005859;0.020508;1.024414;
168059;-0.013672;0.026367;1.017578;
168209;-0.009766;0.032227;1.036133;
168359;-0.009766;0.040039;1.041992;
168511;-0.015625;0.030273;1.033203;
168659;-0.013672;0.037109;1.005859;
168809;-0.002930;0.020508;1.007812;
168964;-0.014648;0.028320;1.016602;
169104;-0.014648;0.026367;1.000977;
169243;-0.007812;0.023438;0.999023;
169379;-0.012695;0.009766;1.011719;
169534;-0.012695;0.019531;1.055664;
169674;-0.014648;0.006836;1.057617;
169813;-0.000977;0.013672;1.102539;
169949;-0.018555;0.038086;1.130859;
170094;-0.008789;0.024414;1.150391;
170243;-0.014648;0.027344;1.111328;
170383;-0.021484;0.021484;1.108398;
170524;-0.020508;0.037109;1.075195;
170659;-0.029297;0.019531;1.046875;
170813;-0.025391;0.018555;1.073242;
170949;-0.020508;0.005859;1.021484;
171099;-0.032227;0.018555;1.008789;
171239;-0.030273;0.019531;1.009766;
171390;-0.033203;0.018555;1.025391;
171529;-0.033203;0.023438;1.035156;
171679;-0.036133;0.027344;1.031250;
171829;-0.041992;0.024414;1.026367;
171970;-0.041016;0.023438;0.977539;
172109;-0.042969;0.025391;0.974609;
172265;-0.049805;0.038086;0.995117;
172423;-0.050781;0.034180;0.962891;
172563;-0.048828;0.038086;0.977539;
172703;-0.049805;0.028320;0.997070;
172854;-0.046875;0.035156;1.000977;
172994;-0.042969;0.037109;1.031250;
173143;-0.043945;0.031250;1.067383;
173284;-0.047852;0.030273;1.074219;
173423;-0.041992;0.024414;1.091797;
173559;-0.048828;0.020508;1.092773;
173704;-0.045898;0.019531;1.066406;
173853;-0.044922;0.024414;1.052734;
173994;-0.054688;0.024414;1.047852;
174129;-0.054688;0.034180;1.031250;
174279;-0.049805;0.027344;1.028320;
174429;-0.056641;0.027344;0.980469;
174559;-0.047852;0.024414;0.994141;
174710;-0.056641;0.020508;1.014648;
174859;-0.055664;0.033203;0.990234;
175009;-0.056641;0.033203;0.956055;
175159;-0.061523;0.026367;0.935547;
175303;-0.062500;0.013672;0.946289;
175453;-0.057617;0.012695;0.968750;
175594;-0.059570;0.029297;0.962891;
175734;-0.059570;0.037109;0.979492;
175884;-0.057617;0.039062;0.998047;
176024;-0.053711;0.041992;1.041016;
176163;-0.060547;0.042969;1.048828;
176313;-0.062500;0.036133;1.019531;
176453;-0.062500;0.041992;1.012695;
176593;-0.061523;0.032227;1.042969;
176734;-0.057617;0.007812;1.050781;
176873;-0.065430;0.004883;1.021484;
177013;-0.054688;0.016602;1.059570;
177154;-0.062500;0.007812;1.078125;
177290;-0.059570;0.021484;1.050781;
177439;-0.069336;0.036133;0.994141;
177599;-0.061523;0.032227;1.007812;
177749;-0.072266;0.040039;1.024414;
177904;-0.064453;0.026367;1.013672;
178044;-0.067383;0.039062;1.047852;
178184;-0.055664;0.025391;1.108398;
178333;-0.060547;0.027344;1.124023;
178473;-0.058594;0.029297;1.120117;
178609;-0.057617;0.024414;1.112305;
178753;-0.054688;0.016602;1.203125;
178893;-0.062500;0.002930;1.191406;
179034;-0.062500;0.016602;1.170898;
179169;-0.052734;0.015625;1.159180;
179304;-0.059570;0.025391;1.146484;
179444;-0.062500;0.027344;1.134766;
179584;-0.062500;0.031250;1.077148;
179724;-0.063477;0.034180;1.041992;
179859;-0.068359;0.033203;1.041016;
180011;-0.070312;0.025391;1.009766;
180159;-0.070312;0.023438;0.966797;
180304;-0.069336;0.027344;0.963867;
180443;-0.072266;0.026367;0.962891;
180579;-0.067383;0.025391;0.980469;
180709;-0.077148;0.020508;0.969727;
180864;-0.065430;0.020508;0.983398;
181014;-0.071289;0.011719;0.999023;
181154;-0.072266;0.024414;1.014648;
181294;-0.068359;0.018555;1.031250;
181433;-0.069336;0.024414;1.041992;
181573;-0.067383;0.024414;1.044922;
181714;-0.073242;0.031250;1.048828;
181854;-0.072266;0.025391;1.050781;
181993;-0.071289;0.035156;1.052734;
182133;-0.071289;0.028320;1.069336;
182283;-0.066406;0.028320;1.065430;
182424;-0.067383;0.022461;1.055664;
182564;-0.072266;0.028320;1.044922;
182714;-0.064453;0.019531;1.048828;
182850;-0.065430;0.020508;1.081055;
182999;-0.065430;0.025391;1.084961;
183151;-0.072266;0.027344;1.049805;
183279;-0.070312;0.033203;1.032227;
183429;-0.072266;0.022461;1.039062;
183584;-0.067383;0.019531;1.035156;
183724;-0.071289;0.028320;1.039062;
183873;-0.070312;0.022461;1.038086;
184014;-0.073242;0.016602;1.039062;
184154;-0.068359;0.017578;1.064453;
184303;-0.067383;0.015625;1.077148;
184444;-0.065430;0.019531;1.083984;
184584;-0.069336;0.021484;1.076172;
184734;-0.070312;0.031250;1.081055;
184873;-0.071289;0.040039;1.075195;
185013;-0.068359;0.032227;1.051758;
185153;-0.070312;0.035156;1.062500;
185294;-0.073242;0.035156;1.064453;
185433;-0.069336;0.031250;1.095703;
185571;-0.068359;0.024414;1.096680;
185709;-0.066406;0.018555;1.110352;
185853;-0.066406;0.015625;1.092773;
185979;-0.067383;0.018555;1.100586;
186129;-0.067383;0.013672;1.086914;
186280;-0.072266;0.015625;1.066406;
186433;-0.071289;0.015625;1.059570;
186573;-0.068359;0.016602;1.048828;
186724;-0.072266;0.020508;1.039062;
186863;-0.071289;0.024414;1.044922;
187003;-0.071289;0.030273;1.032227;
187144;-0.068359;0.031250;1.041016;
187283;-0.068359;0.028320;1.054688;
187424;-0.065430;0.030273;1.076172;
187564;-0.071289;0.033203;1.072266;
187703;-0.069336;0.033203;1.081055;
187843;-0.065430;0.032227;1.108398;
187983;-0.069336;0.030273;1.103516;
188123;-0.064453;0.025391;1.118164;
188263;-0.067383;0.026367;1.118164;
188399;-0.062500;0.025391;1.125977;
188529;-0.069336;0.023438;1.109375;
188679;-0.065430;0.027344;1.109375;
188819;-0.065430;0.019531;1.089844;
188969;-0.066406;0.016602;1.079102;
189123;-0.069336;0.019531;1.073242;
189264;-0.069336;0.020508;1.068359;
189403;-0.064453;0.022461;1.070312;
189543;-0.066406;0.022461;1.070312;
189683;-0.070312;0.026367;1.080078;
189824;-0.069336;0.025391;1.060547;
189964;-0.066406;0.023438;1.060547;
190103;-0.072266;0.024414;1.048828;
190243;-0.066406;0.025391;1.040039;
190384;-0.074219;0.027344;1.040039;
190523;-0.065430;0.025391;1.067383;
190664;-0.063477;0.026367;1.075195;
190803;-0.065430;0.022461;1.103516;
190944;-0.064453;0.034180;1.132812;
191089;-0.062500;0.035156;1.134766;
191239;-0.064453;0.023438;1.176758;
191389;-0.058594;0.032227;1.205078;
191549;-0.059570;0.020508;1.206055;
191704;-0.053711;0.019531;1.255859;
191843;-0.056641;0.023438;1.275391;
191984;-0.054688;0.023438;1.275391;
192134;-0.053711;0.017578;1.265625;
192273;-0.054688;0.016602;1.276367;
192413;-0.054688;0.014648;1.259766;
192553;-0.050781;0.014648;1.233398;
192694;-0.060547;0.019531;1.219727;
192843;-0.056641;0.025391;1.212891;
192983;-0.057617;0.018555;1.180664;
193123;-0.061523;0.026367;1.153320;
193264;-0.061523;0.023438;1.118164;
193404;-0.066406;0.027344;1.106445;
193544;-0.067383;0.024414;1.077148;
193683;-0.062500;0.025391;1.061523;
193830;-0.067383;0.023438;1.025391;
193983;-0.067383;0.027344;1.020508;
194120;-0.064453;0.026367;0.999023;
194270;-0.062500;0.026367;0.992188;
194420;-0.066406;0.025391;0.997070;
194574;-0.059570;0.030273;0.992188;
194724;-0.055664;0.029297;1.015625;
194863;-0.054688;0.023438;1.031250;
195003;-0.048828;0.027344;1.037109;
195154;-0.043945;0.031250;1.054688;
195294;-0.035156;0.029297;1.089844;
195434;-0.032227;0.025391;1.094727;
195574;-0.022461;0.032227;1.117188;
195714;-0.018555;0.031250;1.142578;
195863;-0.008789;0.037109;1.157227;
196004;-0.002930;0.030273;1.157227;
196143;-0.004883;0.025391;1.149414;
196283;0.002930;0.023438;1.143555;
196423;-0.004883;0.028320;1.132812;
196561;-0.005859;0.026367;1.101562;
196714;-0.000977;0.021484;1.072266;
196863;-0.009766;0.020508;1.038086;
196999;-0.010742;0.021484;0.999023;
197139;-0.008789;0.027344;0.987305;
197289;-0.014648;0.018555;0.952148;
197434;-0.014648;0.023438;0.946289;
197573;-0.020508;0.030273;0.938477;
197713;-0.014648;0.023438;0.946289;
197853;-0.013672;0.022461;0.966797;
197994;-0.013672;0.026367;0.973633;
198134;-0.015625;0.028320;0.971680;
198274;-0.014648;0.022461;0.976562;
198423;-0.015625;0.028320;1.015625;
198564;-0.014648;0.026367;1.006836;
198704;-0.015625;0.021484;1.025391;
198844;-0.016602;0.027344;1.036133;
198984;-0.017578;0.027344;1.052734;
199124;-0.017578;0.023438;1.069336;
199264;-0.019531;0.026367;1.093750;
199409;-0.017578;0.025391;1.104492;
199560;-0.018555;0.027344;1.134766;
199709;-0.014648;0.022461;1.130859;
199859;-0.014648;0.033203;1.143555;
200013;-0.017578;0.027344;1.152344;
200153;-0.014648;0.024414;1.152344;
200294;-0.012695;0.030273;1.148438;
200433;-0.016602;0.024414;1.144531;
200574;-0.020508;0.020508;1.125977;
200724;-0.014648;0.026367;1.117188;
200864;-0.020508;0.027344;1.122070;
201003;-0.019531;0.024414;1.103516;
201143;-0.015625;0.028320;1.099609;
201283;-0.022461;0.030273;1.083008;
201434;-0.020508;0.028320;1.087891;
201574;-0.021484;0.029297;1.083984;
201714;-0.020508;0.027344;1.092773;
201853;-0.019531;0.023438;1.084961;
201989;-0.021484;0.025391;1.086914;
202139;-0.023438;0.024414;1.083984;
202289;-0.024414;0.026367;1.061523;
202439;-0.026367;0.029297;1.041016;
202583;-0.027344;0.031250;1.030273;
202724;-0.029297;0.033203;1.017578;
202874;-0.031250;0.028320;0.999023;
203014;-0.028320;0.025391;0.994141;
203154;-0.033203;0.027344;0.984375;
203294;-0.032227;0.025391;0.999023;
203434;-0.030273;0.023438;1.004883;
203584;-0.029297;0.029297;1.021484;
203724;-0.033203;0.024414;1.027344;
203864;-0.032227;0.025391;1.048828;
204014;-0.032227;0.023438;1.061523;
204154;-0.027344;0.025391;1.079102;
204294;-0.030273;0.019531;1.083008;
204434;-0.029297;0.022461;1.082031;
204570;-0.031250;0.018555;1.083008;
204719;-0.029297;0.021484;1.081055;
204879;-0.028320;0.023438;1.088867;
205029;-0.028320;0.026367;1.082031;
205174;-0.027344;0.022461;1.067383;
205324;-0.032227;0.030273;1.059570;
205464;-0.035156;0.027344;1.045898;
205604;-0.029297;0.033203;1.049805;
205743;-0.033203;0.026367;1.040039;
205884;-0.031250;0.033203;1.027344;
206024;-0.034180;0.026367;1.016602;
206164;-0.035156;0.030273;1.008789;
206303;-0.034180;0.024414;1.012695;
206454;-0.031250;0.028320;1.004883;
206593;-0.034180;0.018555;1.000000;
206734;-0.033203;0.017578;0.989258;
206883;-0.032227;0.016602;1.006836;
207023;-0.029297;0.024414;1.023438;
207159;-0.030273;0.025391;1.017578;
207310;-0.030273;0.034180;1.034180;
207461;-0.032227;0.034180;1.059570;
207599;-0.026367;0.033203;1.080078;
207750;-0.029297;0.029297;1.067383;
207904;-0.028320;0.033203;1.084961;
208043;-0.028320;0.032227;1.078125;
208183;-0.026367;0.034180;1.067383;
208324;-0.028320;0.032227;1.067383;
208463;-0.029297;0.031250;1.053711;
208603;-0.029297;0.027344;1.045898;
208744;-0.028320;0.026367;1.044922;
208884;-0.029297;0.023438;1.043945;
209024;-0.027344;0.020508;1.041992;
209164;-0.028320;0.019531;1.043945;
209303;-0.031250;0.021484;1.041016;
209444;-0.030273;0.020508;1.018555;
209583;-0.030273;0.023438;1.015625;
209724;-0.030273;0.021484;1.008789;
209859;-0.028320;0.025391;1.017578;
209990;-0.027344;0.022461;1.024414;
210139;-0.032227;0.024414;1.004883;
210279;-0.025391;0.022461;1.004883;
210429;-0.031250;0.026367;0.993164;
210584;-0.033203;0.021484;0.995117;
210723;-0.030273;0.027344;1.004883;
210864;-0.029297;0.022461;1.026367;
211004;-0.027344;0.025391;1.034180;
211143;-0.033203;0.026367;1.047852;
211294;-0.029297;0.028320;1.037109;
211433;-0.027344;0.031250;1.048828;
211573;-0.029297;0.025391;1.041016;
211724;-0.027344;0.028320;1.048828;
211864;-0.031250;0.027344;1.050781;
212004;-0.026367;0.029297;1.039062;
212143;-0.030273;0.027344;1.040039;
212284;-0.027344;0.029297;1.023438;
212424;-0.028320;0.027344;1.037109;
212559;-0.029297;0.025391;1.025391;
212710;-0.027344;0.023438;1.045898;
212869;-0.023438;0.026367;1.042969;
213019;-0.024414;0.025391;1.050781;
213174;-0.020508;0.027344;1.050781;
213314;-0.014648;0.028320;1.052734;
213454;-0.013672;0.017578;1.050781;
213604;-0.009766;0.024414;1.046875;
213744;-0.008789;0.025391;1.056641;
213884;-0.003906;0.020508;1.057617;
214034;-0.000977;0.022461;1.073242;
214173;0.000977;0.024414;1.073242;
214313;0.001953;0.022461;1.076172;
214453;0.001953;0.019531;1.065430;
214593;0.000977;0.026367;1.068359;
214734;0.003906;0.018555;1.073242;
214874;0.002930;0.016602;1.067383;
215013;0.000977;0.019531;1.062500;
215149;-0.001953;0.021484;1.048828;
215309;-0.001953;0.020508;1.052734;
215459;-0.002930;0.024414;1.050781;
215609;-0.002930;0.024414;1.039062;
215773;-0.003906;0.020508;1.023438;
215914;-0.002930;0.023438;1.024414;
216063;-0.005859;0.023438;1.014648;
216204;-0.001953;0.021484;1.005859;
216343;0.000977;0.021484;1.003906;
216493;0.001953;0.025391;0.995117;
216633;0.002930;0.015625;0.998047;
216773;0.001953;0.022461;0.995117;
216913;0.006836;0.017578;1.005859;
217054;0.009766;0.020508;1.013672;
217193;0.009766;0.019531;1.008789;
217333;0.009766;0.021484;1.006836;
217474;0.006836;0.025391;1.020508;
217614;0.006836;0.019531;1.023438;
217750;0.003906;0.019531;1.030273;
217909;0.003906;0.023438;1.026367;
218060;0.001953;0.025391;1.022461;
218209;0.003906;0.029297;1.038086;
218349;0.000977;0.030273;1.023438;
218513;0.000977;0.024414;1.012695;
218653;0.000000;0.027344;0.997070;
218803;0.000977;0.026367;0.992188;
218943;-0.001953;0.024414;0.991211;
219084;-0.002930;0.023438;0.963867;
219224;-0.000977;0.023438;0.958008;
219363;0.000000;0.020508;0.965820;
219504;0.000000;0.017578;0.962891;
219644;0.001953;0.017578;0.940430;
219784;-0.001953;0.020508;0.943359;
219923;-0.001953;0.018555;0.952148;
220063;-0.000977;0.023438;0.957031;
220203;-0.000977;0.021484;0.956055;
220344;-0.001953;0.023438;0.980469;
220479;0.000000;0.022461;0.978516;
220609;-0.002930;0.022461;0.974609;
220759;0.000000;0.016602;0.976562;
220920;-0.001953;0.018555;0.971680;
221069;-0.001953;0.021484;0.975586;
221214;0.000000;0.022461;0.994141;
221363;-0.000977;0.018555;0.996094;
221504;-0.002930;0.024414;0.993164;
221644;-0.005859;0.025391;0.995117;
221794;-0.000977;0.025391;1.006836;
221933;-0.000977;0.030273;1.010742;
222073;-0.001953;0.023438;1.000000;
222213;0.000977;0.026367;1.009766;
222353;0.002930;0.024414;1.001953;
222504;0.001953;0.028320;0.996094;
222643;0.000000;0.019531;0.994141;
222794;-0.002930;0.020508;0.992188;
222934;-0.002930;0.021484;1.006836;
223073;0.001953;0.021484;1.035156;
223209;0.000000;0.020508;1.036133;
223349;0.000977;0.025391;1.053711;
223499;0.004883;0.023438;1.090820;
223651;0.005859;0.022461;1.105469;
223803;0.004883;0.023438;1.122070;
223954;0.004883;0.022461;1.128906;
224103;0.004883;0.025391;1.114258;
224243;0.005859;0.023438;1.130859;
224384;0.005859;0.023438;1.134766;
224533;0.004883;0.026367;1.119141;
224673;0.005859;0.022461;1.097656;
224814;0.003906;0.025391;1.094727;
224954;0.003906;0.020508;1.093750;
225094;0.003906;0.021484;1.076172;
225243;0.001953;0.021484;1.056641;
225384;0.001953;0.026367;1.055664;
225524;0.003906;0.022461;1.059570;
225663;0.001953;0.018555;1.051758;
225799;-0.000977;0.019531;1.038086;
225950;0.001953;0.024414;1.036133;
226099;-0.001953;0.020508;1.034180;
226249;-0.007812;0.017578;1.039062;
226404;-0.008789;0.019531;1.041016;
226554;-0.007812;0.021484;1.032227;
226693;-0.006836;0.022461;1.038086;
226844;-0.010742;0.025391;1.035156;
226984;-0.005859;0.024414;1.034180;
227124;-0.007812;0.022461;1.024414;
227264;-0.007812;0.025391;1.032227;
227403;-0.011719;0.029297;1.027344;
227544;-0.011719;0.026367;1.025391;
227684;-0.008789;0.025391;1.024414;
227824;-0.011719;0.027344;1.021484;
227963;-0.014648;0.027344;1.010742;
228113;-0.013672;0.025391;1.016602;
228254;-0.010742;0.031250;1.022461;
228390;-0.016602;0.023438;1.010742;
228540;-0.013672;0.026367;1.016602;
228689;-0.013672;0.027344;1.019531;
228839;-0.012695;0.031250;1.027344;
228989;-0.010742;0.026367;1.024414;
229134;-0.011719;0.025391;1.017578;
229274;-0.010742;0.022461;1.010742;
229413;-0.010742;0.022461;1.011719;
229553;-0.013672;0.017578;1.010742;
229694;-0.011719;0.027344;1.010742;
229833;-0.011719;0.022461;1.014648;
229983;-0.011719;0.024414;1.023438;
230123;-0.012695;0.023438;1.012695;
230264;-0.009766;0.022461;1.019531;
230414;-0.012695;0.021484;1.020508;
230554;-0.013672;0.017578;1.025391;
230694;-0.010742;0.020508;1.030273;
230844;-0.010742;0.019531;1.028320;
230983;-0.011719;0.023438;1.033203;
231129;-0.007812;0.024414;1.043945;
231280;-0.008789;0.025391;1.038086;
231429;-0.010742;0.017578;1.040039;
231579;-0.009766;0.022461;1.042969;
231724;-0.006836;0.022461;1.033203;
231864;-0.007812;0.019531;1.033203;
232003;-0.009766;0.022461;1.027344;
232143;-0.007812;0.027344;1.040039;
232284;-0.010742;0.026367;1.044922;
232423;-0.010742;0.022461;1.041016;
232564;-0.009766;0.030273;1.058594;
232703;-0.009766;0.027344;1.065430;
232843;-0.009766;0.024414;1.075195;
232984;-0.004883;0.026367;1.079102;
233123;-0.012695;0.024414;1.085938;
233263;-0.009766;0.021484;1.079102;
233404;-0.006836;0.021484;1.076172;
233553;-0.009766;0.021484;1.074219;
233701;-0.007812;0.020508;1.074219;
233849;-0.007812;0.019531;1.074219;
233999;-0.004883;0.022461;1.068359;
234149;-0.009766;0.019531;1.055664;
234304;-0.008789;0.023438;1.041992;
234454;-0.007812;0.025391;1.041992;
234593;-0.010742;0.023438;1.015625;
234734;-0.009766;0.026367;1.019531;
234874;-0.011719;0.026367;1.012695;
235014;-0.010742;0.022461;1.019531;
235153;-0.011719;0.025391;1.003906;
235294;-0.008789;0.028320;1.008789;
235434;-0.012695;0.023438;1.002930;
235584;-0.012695;0.029297;1.000977;
235724;-0.011719;0.029297;1.008789;
235864;-0.006836;0.026367;1.004883;
236013;-0.002930;0.027344;1.014648;
236154;0.000977;0.021484;1.018555;
236289;0.001953;0.017578;1.020508;
236439;0.004883;0.022461;1.031250;
236589;0.005859;0.019531;1.029297;
236744;0.008789;0.019531;1.027344;
236889;0.009766;0.023438;1.038086;
237033;0.010742;0.026367;1.045898;
237173;0.009766;0.026367;1.040039;
237313;0.010742;0.021484;1.046875;
237454;0.014648;0.021484;1.040039;
237594;0.008789;0.022461;1.036133;
237733;0.016602;0.027344;1.023438;
237873;0.020508;0.024414;1.009766;
238014;0.029297;0.025391;1.005859;
238153;0.035156;0.026367;0.990234;
238294;0.041016;0.027344;0.978516;
238443;0.041992;0.022461;0.957031;
238583;0.047852;0.024414;0.968750;
238724;0.053711;0.024414;0.958008;
238874;0.053711;0.024414;0.957031;
239011;0.058594;0.023438;0.973633;
239163;0.065430;0.021484;0.992188;
239299;0.071289;0.023438;1.012695;
239440;0.074219;0.020508;1.029297;
239579;0.080078;0.023438;1.045898;
239729;0.083008;0.024414;1.069336;
239881;0.083008;0.021484;1.055664;
240033;0.093750;0.022461;1.064453;
240173;0.093750;0.016602;1.046875;
240313;0.094727;0.023438;1.047852;
240454;0.096680;0.020508;1.054688;
240594;0.094727;0.023438;1.059570;
240734;0.095703;0.021484;1.041992;
240873;0.098633;0.025391;1.035156;
241014;0.095703;0.025391;1.016602;
241153;0.095703;0.029297;1.000000;
241294;0.092773;0.021484;1.004883;
241433;0.092773;0.019531;0.994141;
241583;0.092773;0.030273;0.982422;
241724;0.092773;0.029297;0.979492;
241864;0.091797;0.025391;0.974609;
