Time;acc_x;acc_y;acc_z;

1877;-0.089844;0.024414;0.934570;
2023;-0.086914;0.024414;0.963867;
2163;-0.083984;0.019531;1.000000;
2303;-0.081055;0.027344;1.032227;
2444;-0.080078;0.022461;1.064453;
2583;-0.083008;0.028320;1.081055;
2724;-0.079102;0.023438;1.109375;
2864;-0.078125;0.026367;1.120117;
3004;-0.079102;0.029297;1.130859;
3143;-0.080078;0.027344;1.136719;
3283;-0.078125;0.033203;1.147461;
3423;-0.079102;0.029297;1.139648;
3563;-0.079102;0.028320;1.156250;
3704;-0.077148;0.025391;1.172852;
3843;-0.078125;0.029297;1.191406;
3984;-0.072266;0.029297;1.223633;
4124;-0.076172;0.025391;1.233398;
4264;-0.071289;0.024414;1.253906;
4405;-0.070312;0.024414;1.261719;
4549;-0.070312;0.018555;1.273438;
4699;-0.074219;0.018555;1.265625;
4849;-0.072266;0.018555;1.263672;
4989;-0.075195;0.017578;1.247070;
5140;-0.075195;0.016602;1.234375;
5279;-0.074219;0.012695;1.216797;
5424;-0.076172;0.021484;1.195312;
5573;-0.078125;0.017578;1.178711;
5704;-0.079102;0.014648;1.163086;
5843;-0.079102;0.021484;1.153320;
5984;-0.080078;0.022461;1.138672;
6134;-0.081055;0.020508;1.127930;
6274;-0.081055;0.024414;1.123047;
6414;-0.083984;0.026367;1.127930;
6563;-0.081055;0.027344;1.125977;
6703;-0.084961;0.023438;1.125000;
6844;-0.082031;0.023438;1.125977;
6993;-0.084961;0.027344;1.129883;
7133;-0.080078;0.025391;1.139648;
7273;-0.083008;0.023438;1.135742;
7409;-0.081055;0.020508;1.133789;
7559;-0.081055;0.023438;1.143555;
7709;-0.081055;0.021484;1.144531;
7844;-0.079102;0.024414;1.153320;
7979;-0.082031;0.020508;1.149414;
8120;-0.079102;0.026367;1.166992;
8263;-0.079102;0.022461;1.164062;
8400;-0.078125;0.019531;1.179688;
8549;-0.078125;0.014648;1.181641;
8690;-0.078125;0.022461;1.205078;
8844;-0.075195;0.019531;1.226562;
8984;-0.075195;0.022461;1.230469;
9124;-0.077148;0.019531;1.247070;
9264;-0.075195;0.019531;1.250000;
9404;-0.073242;0.021484;1.250000;
9544;-0.076172;0.013672;1.246094;
9694;-0.074219;0.021484;1.247070;
9834;-0.075195;0.016602;1.242188;
9974;-0.073242;0.024414;1.249023;
10114;-0.077148;0.020508;1.227539;
10253;-0.075195;0.027344;1.228516;
10393;-0.078125;0.021484;1.221680;
10534;-0.074219;0.020508;1.216797;
10674;-0.078125;0.022461;1.203125;
10809;-0.079102;0.026367;1.195312;
10939;-0.080078;0.019531;1.190430;
11070;-0.078125;0.018555;1.180664;
11209;-0.079102;0.022461;1.168945;
11359;-0.081055;0.015625;1.160156;
11509;-0.082031;0.023438;1.150391;
11659;-0.083008;0.020508;1.126953;
11814;-0.083984;0.023438;1.126953;
11954;-0.081055;0.023438;1.122070;
12094;-0.083984;0.026367;1.116211;
12234;-0.084961;0.023438;1.094727;
12374;-0.083984;0.027344;1.100586;
12514;-0.085938;0.030273;1.095703;
12653;-0.083984;0.029297;1.095703;
12793;-0.084961;0.028320;1.085938;
12934;-0.086914;0.028320;1.096680;
13074;-0.087891;0.026367;1.101562;
13214;-0.083984;0.019531;1.106445;
13354;-0.083984;0.017578;1.125000;
13494;-0.079102;0.009766;1.159180;
13644;-0.077148;0.017578;1.209961;
13780;-0.076172;0.020508;1.233398;
13919;-0.072266;0.015625;1.262695;
14070;-0.067383;0.022461;1.288086;
14209;-0.069336;0.019531;1.307617;
14359;-0.063477;0.024414;1.336914;
14514;-0.064453;0.021484;1.357422;
14654;-0.062500;0.018555;1.373047;
14794;-0.059570;0.019531;1.391602;
14934;-0.056641;0.019531;1.409180;
15074;-0.050781;0.021484;1.424805;
15224;-0.051758;0.022461;1.450195;
15364;-0.046875;0.022461;1.476562;
15514;-0.041016;0.025391;1.502930;
15654;-0.040039;0.023438;1.515625;
15794;-0.037109;0.020508;1.526367;
15934;-0.034180;0.017578;1.541992;
16074;-0.028320;0.025391;1.541992;
16214;-0.027344;0.021484;1.532227;
16353;-0.023438;0.019531;1.539062;
16489;-0.022461;0.018555;1.515625;
16631;-0.015625;0.022461;1.509766;
16779;-0.011719;0.017578;1.494141;
16919;-0.010742;0.019531;1.494141;
17070;-0.003906;0.024414;1.499023;
17199;-0.004883;0.020508;1.511719;
17339;-0.003906;0.024414;1.502930;
17494;-0.002930;0.018555;1.479492;
17634;0.001953;0.023438;1.487305;
17774;0.003906;0.015625;1.474609;
17914;-0.000977;0.011719;1.409180;
18054;0.000000;0.017578;1.383789;
18204;0.000977;0.024414;1.359375;
18344;-0.000977;0.018555;1.300781;
18484;-0.002930;0.023438;1.272461;
18624;-0.004883;0.025391;1.215820;
18764;-0.007812;0.023438;1.179688;
18904;-0.010742;0.018555;1.120117;
19043;-0.008789;0.025391;1.095703;
19184;-0.009766;0.024414;1.060547;
19333;-0.015625;0.019531;1.022461;
19459;-0.013672;0.025391;1.002930;
19592;-0.010742;0.019531;1.000977;
19729;-0.014648;0.023438;0.988281;
19879;-0.012695;0.026367;1.004883;
20019;-0.011719;0.025391;1.017578;
20169;-0.005859;0.024414;1.041016;
20324;-0.006836;0.024414;1.052734;
20464;-0.006836;0.020508;1.058594;
20603;-0.006836;0.025391;1.076172;
20744;-0.007812;0.017578;1.064453;
20884;-0.009766;0.022461;1.067383;
21024;-0.006836;0.019531;1.076172;
21164;-0.005859;0.020508;1.056641;
21303;-0.001953;0.019531;1.060547;
21444;0.000000;0.023438;1.036133;
21584;-0.003906;0.024414;1.018555;
21723;-0.001953;0.022461;0.974609;
21864;-0.004883;0.025391;0.949219;
22004;-0.000977;0.023438;0.920898;
22144;-0.000977;0.028320;0.886719;
22279;-0.000977;0.021484;0.878906;
22429;0.000000;0.022461;0.851562;
22579;0.000000;0.022461;0.836914;
22719;0.000000;0.023438;0.831055;
22869;-0.000977;0.023438;0.824219;
23019;-0.002930;0.025391;0.833008;
23164;-0.001953;0.021484;0.832031;
23304;-0.004883;0.026367;0.837891;
23444;-0.006836;0.027344;0.859375;
23583;-0.007812;0.027344;0.863281;
23723;-0.008789;0.028320;0.880859;
23863;-0.002930;0.024414;0.894531;
24004;-0.003906;0.026367;0.894531;
24143;-0.006836;0.028320;0.922852;
24284;-0.002930;0.023438;0.930664;
24424;0.000000;0.022461;0.933594;
24564;-0.001953;0.022461;0.954102;
24704;-0.002930;0.020508;0.952148;
24844;0.003906;0.015625;0.966797;
24983;-0.001953;0.022461;0.984375;
25129;0.004883;0.022461;1.000977;
25270;0.004883;0.018555;1.023438;
25409;0.006836;0.020508;1.046875;
25559;0.008789;0.020508;1.052734;
25714;0.004883;0.025391;1.082031;
25849;0.006836;0.021484;1.085938;
25994;0.005859;0.031250;1.096680;
26130;0.006836;0.027344;1.110352;
26269;0.006836;0.025391;1.125000;
26404;0.008789;0.023438;1.144531;
26544;0.012695;0.023438;1.148438;
26684;0.012695;0.017578;1.169922;
26833;0.015625;0.023438;1.172852;
26974;0.012695;0.026367;1.189453;
27114;0.011719;0.027344;1.181641;
27254;0.009766;0.027344;1.166992;
27394;0.010742;0.022461;1.164062;
27534;0.006836;0.024414;1.128906;
27674;0.006836;0.017578;1.119141;
27813;0.006836;0.023438;1.088867;
27954;0.002930;0.017578;1.052734;
28094;0.002930;0.014648;1.038086;
28234;0.000977;0.017578;1.020508;
28379;0.000977;0.028320;1.000977;
28519;0.002930;0.019531;1.003906;
28669;0.001953;0.022461;0.993164;
28799;0.000000;0.017578;0.992188;
28939;0.001953;0.029297;0.995117;
29090;-0.001953;0.018555;0.998047;
29239;0.002930;0.029297;0.993164;
29394;0.005859;0.023438;0.981445;
29534;-0.003906;0.025391;0.972656;
29673;0.000977;0.024414;0.967773;
29813;0.000000;0.028320;0.950195;
29953;-0.004883;0.026367;0.958008;
30094;0.002930;0.022461;0.942383;
30234;0.000000;0.022461;0.932617;
30373;-0.001953;0.026367;0.948242;
30513;0.000977;0.025391;0.948242;
30653;-0.003906;0.027344;0.962891;
30793;-0.001953;0.019531;0.967773;
30933;-0.001953;0.019531;0.974609;
31073;-0.000977;0.023438;1.000977;
31214;0.001953;0.018555;1.022461;
31349;-0.000977;0.020508;1.018555;
31489;0.002930;0.022461;1.035156;
31629;0.005859;0.018555;1.037109;
31780;0.000000;0.020508;1.055664;
31929;0.001953;0.016602;1.065430;
32073;0.003906;0.020508;1.061523;
32214;0.004883;0.019531;1.071289;
32354;0.004883;0.024414;1.083008;
32494;0.003906;0.021484;1.083008;
32644;0.007812;0.021484;1.092773;
32784;0.000977;0.018555;1.080078;
32923;0.004883;0.023438;1.082031;
33073;0.003906;0.017578;1.089844;
33214;-0.000977;0.020508;1.070312;
33354;0.002930;0.017578;1.064453;
33493;0.004883;0.020508;1.056641;
33633;0.000977;0.022461;1.054688;
33774;0.002930;0.024414;1.048828;
33914;0.000000;0.018555;1.041016;
34049;0.001953;0.026367;1.038086;
34202;0.004883;0.024414;1.030273;
34351;-0.000977;0.020508;1.021484;
34489;-0.000977;0.024414;1.018555;
34639;0.004883;0.022461;1.022461;
34789;0.000977;0.021484;1.013672;
34934;-0.000977;0.021484;1.019531;
35074;0.003906;0.021484;1.023438;
35224;-0.000977;0.022461;1.021484;
35363;0.001953;0.018555;1.029297;
35503;-0.000977;0.018555;1.015625;
35644;0.000000;0.026367;1.023438;
35784;0.000977;0.015625;1.023438;
35923;0.000977;0.019531;1.020508;
36064;0.000977;0.019531;1.037109;
36204;0.003906;0.015625;1.036133;
36344;0.000977;0.017578;1.029297;
36493;0.005859;0.016602;1.041992;
36634;-0.000977;0.014648;1.027344;
36773;0.001953;0.023438;1.038086;
36910;0.000000;0.023438;1.031250;
37060;0.000977;0.021484;1.024414;
37199;0.002930;0.025391;1.045898;
37349;0.002930;0.022461;1.029297;
37504;-0.000977;0.024414;1.028320;
37641;0.003906;0.023438;1.037109;
37769;0.002930;0.024414;1.025391;
37904;-0.000977;0.031250;1.030273;
38044;0.004883;0.025391;1.040039;
38184;-0.002930;0.028320;1.024414;
38324;0.001953;0.027344;1.029297;
38463;-0.002930;0.025391;1.015625;
38603;-0.001953;0.025391;1.015625;
38744;0.003906;0.024414;1.022461;
38884;-0.001953;0.025391;1.002930;
39024;0.000000;0.017578;1.015625;
39164;0.000977;0.018555;1.008789;
39303;-0.003906;0.022461;1.003906;
39444;0.003906;0.021484;1.004883;
39583;-0.002930;0.026367;1.000000;
39724;-0.004883;0.028320;1.000977;
39859;0.000977;0.024414;0.989258;
40009;-0.002930;0.026367;0.994141;
40160;-0.007812;0.024414;0.990234;
40299;0.000977;0.022461;0.994141;
40429;-0.006836;0.024414;0.983398;
40569;-0.003906;0.023438;1.009766;
40719;-0.002930;0.018555;0.997070;
40874;-0.007812;0.016602;0.981445;
41013;-0.010742;0.017578;0.995117;
41153;-0.011719;0.018555;0.996094;
41294;-0.005859;0.013672;1.000000;
41433;-0.008789;0.018555;0.997070;
41573;-0.010742;0.021484;0.989258;
41713;-0.012695;0.022461;0.993164;
41853;-0.014648;0.023438;0.995117;
41994;-0.016602;0.021484;0.993164;
42144;-0.020508;0.022461;1.001953;
42284;-0.018555;0.029297;1.014648;
42423;-0.022461;0.031250;1.018555;
42563;-0.020508;0.026367;1.030273;
42703;-0.021484;0.024414;1.026367;
42850;-0.023438;0.025391;1.020508;
42989;-0.023438;0.028320;1.025391;
43144;-0.023438;0.021484;1.013672;
43289;-0.024414;0.026367;1.008789;
43429;-0.020508;0.024414;1.021484;
43570;-0.023438;0.019531;1.020508;
43709;-0.020508;0.026367;1.017578;
43854;-0.017578;0.026367;1.012695;
43993;-0.021484;0.021484;1.017578;
44134;-0.022461;0.020508;1.015625;
44273;-0.022461;0.022461;1.014648;
44413;-0.017578;0.018555;1.020508;
44553;-0.021484;0.022461;1.014648;
44694;-0.020508;0.026367;1.023438;
44834;-0.017578;0.020508;1.020508;
44973;-0.022461;0.024414;1.013672;
45113;-0.019531;0.027344;1.026367;
45254;-0.019531;0.023438;1.027344;
45394;-0.022461;0.026367;1.032227;
45533;-0.021484;0.024414;1.019531;
45674;-0.020508;0.025391;1.037109;
45809;-0.021484;0.024414;1.038086;
45959;-0.019531;0.022461;1.049805;
46089;-0.014648;0.020508;1.056641;
46234;-0.018555;0.018555;1.074219;
46369;-0.017578;0.021484;1.082031;
46519;-0.017578;0.021484;1.080078;
46649;-0.018555;0.029297;1.090820;
46801;-0.019531;0.025391;1.077148;
46949;-0.017578;0.021484;1.081055;
47094;-0.019531;0.023438;1.082031;
47233;-0.016602;0.024414;1.086914;
47373;-0.016602;0.022461;1.097656;
47523;-0.015625;0.025391;1.104492;
47664;-0.012695;0.023438;1.105469;
47804;-0.017578;0.024414;1.094727;
47943;-0.011719;0.022461;1.112305;
48084;-0.017578;0.022461;1.106445;
48223;-0.019531;0.023438;1.087891;
48364;-0.012695;0.025391;1.089844;
48503;-0.019531;0.018555;1.087891;
48644;-0.015625;0.019531;1.071289;
48784;-0.015625;0.018555;1.063477;
48923;-0.017578;0.026367;1.052734;
49069;-0.021484;0.020508;1.052734;
49209;-0.018555;0.026367;1.037109;
49349;-0.023438;0.027344;1.031250;
49499;-0.021484;0.024414;1.020508;
49650;-0.019531;0.017578;1.001953;
49799;-0.021484;0.022461;1.000000;
49954;-0.020508;0.019531;0.992188;
50104;-0.017578;0.020508;1.009766;
50243;-0.017578;0.023438;1.003906;
50383;-0.022461;0.030273;1.006836;
50533;-0.017578;0.027344;1.016602;
50673;-0.021484;0.026367;1.009766;
50814;-0.022461;0.031250;1.009766;
50954;-0.020508;0.026367;1.015625;
51094;-0.019531;0.030273;1.017578;
51234;-0.021484;0.017578;1.012695;
51374;-0.018555;0.019531;1.018555;
51514;-0.021484;0.013672;1.004883;
51653;-0.020508;0.023438;1.015625;
51794;-0.020508;0.024414;1.019531;
51929;-0.021484;0.021484;1.025391;
52079;-0.022461;0.021484;1.029297;
52219;-0.020508;0.021484;1.026367;
52371;-0.021484;0.016602;1.015625;
52519;-0.020508;0.029297;1.018555;
52659;-0.020508;0.021484;1.027344;
52799;-0.019531;0.026367;1.025391;
52944;-0.020508;0.026367;1.038086;
53094;-0.021484;0.028320;1.053711;
53233;-0.018555;0.023438;1.057617;
53373;-0.017578;0.027344;1.080078;
53513;-0.018555;0.019531;1.088867;
53653;-0.018555;0.022461;1.114258;
53803;-0.013672;0.019531;1.126953;
53944;-0.015625;0.022461;1.110352;
54084;-0.013672;0.019531;1.127930;
54233;-0.014648;0.025391;1.120117;
54373;-0.015625;0.020508;1.117188;
54514;-0.014648;0.019531;1.107422;
54653;-0.018555;0.022461;1.093750;
54793;-0.013672;0.025391;1.075195;
54919;-0.019531;0.018555;1.068359;
55059;-0.017578;0.025391;1.063477;
55199;-0.018555;0.024414;1.035156;
55339;-0.018555;0.024414;1.034180;
55480;-0.019531;0.022461;1.025391;
55629;-0.016602;0.024414;1.026367;
55779;-0.019531;0.022461;1.021484;
55923;-0.021484;0.020508;1.011719;
56064;-0.019531;0.023438;0.995117;
56214;-0.017578;0.027344;1.014648;
56353;-0.022461;0.025391;1.000000;
56493;-0.023438;0.028320;0.996094;
56634;-0.019531;0.024414;1.010742;
56773;-0.020508;0.022461;1.016602;
56914;-0.017578;0.024414;1.030273;
57064;-0.019531;0.027344;1.033203;
57203;-0.018555;0.023438;1.045898;
57343;-0.019531;0.026367;1.058594;
57483;-0.016602;0.021484;1.054688;
57623;-0.017578;0.024414;1.065430;
57773;-0.016602;0.021484;1.069336;
57909;-0.017578;0.026367;1.055664;
58039;-0.018555;0.020508;1.048828;
58169;-0.018555;0.025391;1.060547;
58309;-0.016602;0.018555;1.052734;
58450;-0.016602;0.026367;1.059570;
58579;-0.014648;0.018555;1.059570;
58720;-0.019531;0.026367;1.046875;
58854;-0.016602;0.021484;1.049805;
59004;-0.017578;0.029297;1.049805;
59144;-0.015625;0.025391;1.049805;
59284;-0.016602;0.034180;1.032227;
59423;-0.019531;0.023438;1.025391;
59564;-0.018555;0.027344;1.025391;
59714;-0.021484;0.022461;1.012695;
59854;-0.019531;0.032227;1.007812;
59994;-0.021484;0.024414;0.991211;
60134;-0.019531;0.022461;0.991211;
60274;-0.017578;0.026367;0.978516;
60414;-0.017578;0.021484;0.977539;
60563;-0.021484;0.026367;0.967773;
60703;-0.019531;0.021484;0.968750;
60839;-0.023438;0.028320;0.962891;
60979;-0.022461;0.022461;0.961914;
61119;-0.022461;0.030273;0.971680;
61249;-0.023438;0.030273;0.975586;
61389;-0.016602;0.028320;0.972656;
61540;-0.022461;0.026367;0.965820;
61679;-0.023438;0.030273;0.975586;
61829;-0.020508;0.026367;0.994141;
61973;-0.017578;0.022461;0.988281;
62114;-0.020508;0.024414;0.981445;
62254;-0.019531;0.022461;0.989258;
62394;-0.019531;0.026367;0.976562;
62544;-0.020508;0.022461;0.982422;
62684;-0.021484;0.024414;0.978516;
62823;-0.019531;0.020508;0.981445;
62973;-0.021484;0.025391;0.987305;
63113;-0.016602;0.020508;0.989258;
63253;-0.018555;0.022461;1.002930;
63393;-0.018555;0.020508;1.003906;
63533;-0.016602;0.020508;1.019531;
63674;-0.019531;0.025391;1.011719;
63814;-0.019531;0.023438;1.008789;
63940;-0.018555;0.027344;1.011719;
64079;-0.017578;0.026367;1.023438;
64219;-0.019531;0.027344;1.016602;
64349;-0.018555;0.027344;1.021484;
64479;-0.021484;0.030273;1.025391;
64619;-0.019531;0.028320;1.019531;
64769;-0.016602;0.023438;1.020508;
64924;-0.017578;0.020508;1.013672;
65063;-0.020508;0.025391;1.041016;
65203;-0.016602;0.018555;1.019531;
65343;-0.021484;0.023438;1.018555;
65484;-0.015625;0.019531;1.030273;
65624;-0.016602;0.021484;1.022461;
65764;-0.020508;0.019531;1.013672;
65914;-0.019531;0.031250;1.018555;
66053;-0.020508;0.018555;1.009766;
66203;-0.017578;0.028320;1.039062;
66343;-0.016602;0.020508;1.034180;
66483;-0.018555;0.029297;1.022461;
66634;-0.014648;0.029297;1.029297;
66774;-0.019531;0.029297;1.012695;
66909;-0.017578;0.028320;1.013672;
67060;-0.020508;0.027344;1.000000;
67209;-0.021484;0.021484;1.009766;
67359;-0.016602;0.022461;1.020508;
67510;-0.015625;0.018555;1.028320;
67644;-0.016602;0.029297;1.033203;
67794;-0.020508;0.023438;1.028320;
67933;-0.018555;0.026367;1.045898;
68074;-0.013672;0.021484;1.049805;
68223;-0.019531;0.020508;1.047852;
68364;-0.015625;0.022461;1.049805;
68504;-0.016602;0.029297;1.038086;
68643;-0.016602;0.024414;1.023438;
68783;-0.016602;0.022461;1.036133;
68924;-0.014648;0.014648;1.058594;
69064;-0.015625;0.021484;1.061523;
69204;-0.013672;0.021484;1.044922;
69343;-0.018555;0.020508;1.023438;
69484;-0.017578;0.024414;1.025391;
69619;-0.015625;0.026367;1.031250;
69759;-0.022461;0.020508;1.021484;
69909;-0.016602;0.023438;1.032227;
70049;-0.019531;0.024414;1.019531;
70190;-0.014648;0.021484;1.031250;
70339;-0.016602;0.024414;1.030273;
70479;-0.015625;0.026367;1.037109;
70619;-0.020508;0.029297;1.031250;
70773;-0.018555;0.027344;1.030273;
70914;-0.017578;0.027344;1.054688;
71053;-0.021484;0.018555;1.057617;
71194;-0.015625;0.031250;1.041992;
71333;-0.014648;0.017578;1.078125;
71474;-0.015625;0.013672;1.100586;
71614;-0.010742;0.017578;1.120117;
71754;-0.015625;0.022461;1.122070;
71894;-0.012695;0.018555;1.143555;
72043;-0.012695;0.016602;1.138672;
72184;-0.011719;0.023438;1.149414;
72324;-0.014648;0.020508;1.149414;
72464;-0.010742;0.024414;1.155273;
72603;-0.015625;0.020508;1.152344;
72739;-0.009766;0.026367;1.162109;
72884;-0.013672;0.025391;1.167969;
73019;-0.008789;0.031250;1.166016;
73159;-0.012695;0.029297;1.165039;
73309;-0.009766;0.027344;1.157227;
73451;-0.011719;0.031250;1.140625;
73589;-0.013672;0.033203;1.125000;
73739;-0.016602;0.030273;1.106445;
73894;-0.018555;0.030273;1.083008;
74034;-0.015625;0.023438;1.064453;
74184;-0.015625;0.018555;1.052734;
74324;-0.015625;0.024414;1.034180;
74464;-0.017578;0.019531;1.003906;
74603;-0.019531;0.023438;1.001953;
74744;-0.019531;0.027344;0.992188;
74883;-0.018555;0.027344;0.981445;
75024;-0.019531;0.023438;0.975586;
75164;-0.023438;0.026367;0.951172;
75304;-0.025391;0.020508;0.946289;
75444;-0.016602;0.023438;0.955078;
75594;-0.022461;0.018555;0.953125;
75734;-0.023438;0.027344;0.947266;
75870;-0.019531;0.018555;0.968750;
76019;-0.019531;0.024414;0.971680;
76163;-0.021484;0.014648;0.971680;
76299;-0.020508;0.020508;0.965820;
76430;-0.017578;0.015625;0.979492;
76559;-0.018555;0.030273;0.985352;
76700;-0.020508;0.018555;0.978516;
76849;-0.019531;0.021484;0.989258;
76989;-0.018555;0.018555;0.979492;
77139;-0.017578;0.026367;0.986328;
77284;-0.022461;0.030273;0.982422;
77424;-0.021484;0.031250;0.984375;
77573;-0.019531;0.030273;1.008789;
77714;-0.018555;0.029297;1.013672;
77854;-0.020508;0.030273;1.029297;
77994;-0.019531;0.032227;1.029297;
78133;-0.012695;0.026367;1.045898;
78283;-0.013672;0.024414;1.049805;
78424;-0.013672;0.020508;1.068359;
78564;-0.012695;0.023438;1.061523;
78704;-0.014648;0.017578;1.076172;
78844;-0.016602;0.019531;1.092773;
78984;-0.011719;0.018555;1.095703;
79124;-0.013672;0.027344;1.093750;
79259;-0.014648;0.025391;1.079102;
79389;-0.014648;0.026367;1.090820;
79519;-0.014648;0.020508;1.069336;
79670;-0.009766;0.028320;1.070312;
79809;-0.017578;0.026367;1.063477;
79959;-0.015625;0.016602;1.049805;
80109;-0.014648;0.016602;1.050781;
80254;-0.012695;0.016602;1.061523;
80394;-0.013672;0.017578;1.065430;
80534;-0.011719;0.019531;1.064453;
80674;-0.015625;0.021484;1.084961;
80814;-0.018555;0.027344;1.080078;
80954;-0.017578;0.020508;1.087891;
81094;-0.013672;0.034180;1.119141;
81234;-0.017578;0.029297;1.110352;
81374;-0.012695;0.041016;1.117188;
81514;-0.011719;0.024414;1.117188;
81653;-0.013672;0.013672;1.120117;
81793;-0.009766;0.012695;1.126953;
81944;-0.007812;0.017578;1.136719;
82084;-0.015625;0.014648;1.125977;
82219;-0.007812;0.017578;1.123047;
82349;-0.013672;0.018555;1.113281;
82499;-0.016602;0.020508;1.082031;
82649;-0.010742;0.028320;1.059570;
82789;-0.013672;0.029297;1.053711;
82939;-0.016602;0.030273;1.024414;
83079;-0.018555;0.018555;1.011719;
83234;-0.014648;0.032227;1.016602;
83373;-0.018555;0.019531;0.987305;
83513;-0.020508;0.024414;0.996094;
83654;-0.016602;0.028320;0.996094;
83794;-0.017578;0.027344;0.992188;
83934;-0.024414;0.018555;0.974609;
84084;-0.018555;0.020508;0.983398;
84224;-0.013672;0.020508;0.987305;
84364;-0.016602;0.023438;0.985352;
84504;-0.018555;0.015625;0.982422;
84644;-0.015625;0.023438;0.991211;
84784;-0.018555;0.020508;1.002930;
84924;-0.014648;0.019531;1.005859;
85064;-0.015625;0.022461;1.014648;
85209;-0.010742;0.024414;1.031250;
85359;-0.004883;0.028320;1.030273;
85499;-0.002930;0.035156;1.043945;
85649;0.000977;0.033203;1.047852;
85799;0.007812;0.024414;1.068359;
85940;0.003906;0.036133;1.069336;
86094;0.004883;0.023438;1.075195;
86234;0.015625;0.009766;1.088867;
86374;0.010742;0.024414;1.092773;
86513;0.010742;0.019531;1.095703;
86654;0.014648;0.016602;1.074219;
86794;0.008789;0.015625;1.035156;
86934;0.007812;0.028320;0.997070;
87074;0.003906;0.014648;0.931641;
87213;0.001953;0.026367;0.900391;
87354;0.001953;0.024414;0.867188;
87504;-0.001953;0.026367;0.839844;
87644;0.000000;0.022461;0.809570;
87784;-0.003906;0.029297;0.808594;
87924;-0.000977;0.030273;0.786133;
88059;-0.000977;0.027344;0.803711;
88199;-0.003906;0.033203;0.827148;
88339;0.000000;0.035156;0.845703;
88479;-0.000977;0.026367;0.880859;
88609;0.001953;0.032227;0.917969;
88744;0.004883;0.028320;0.974609;
88869;0.005859;0.020508;0.998047;
89021;0.006836;0.027344;1.020508;
89159;0.006836;0.031250;1.034180;
89314;0.004883;0.028320;1.045898;
89463;0.005859;0.022461;1.051758;
89603;0.005859;0.031250;1.051758;
89744;0.005859;0.022461;1.062500;
89884;0.006836;0.026367;1.051758;
90024;0.005859;0.026367;1.048828;
90164;0.005859;0.025391;1.050781;
90304;0.005859;0.016602;1.032227;
90444;0.006836;0.017578;1.013672;
90584;0.004883;0.016602;0.972656;
90724;0.007812;0.018555;0.959961;
90864;0.001953;0.017578;0.943359;
91004;0.007812;0.029297;0.955078;
91144;0.004883;0.016602;0.944336;
91279;0.001953;0.028320;0.954102;
91419;0.010742;0.031250;0.974609;
91549;0.002930;0.030273;0.979492;
91684;0.009766;0.022461;0.984375;
91819;0.007812;0.032227;0.990234;
91970;0.008789;0.024414;1.016602;
92119;0.008789;0.028320;1.011719;
92259;0.009766;0.024414;1.012695;
92400;0.005859;0.030273;1.041016;
92544;0.013672;0.026367;1.062500;
92684;0.013672;0.023438;1.083008;
92824;0.015625;0.021484;1.096680;
92964;0.016602;0.016602;1.124023;
93104;0.018555;0.026367;1.125000;
93244;0.019531;0.027344;1.144531;
93384;0.022461;0.030273;1.158203;
93523;0.025391;0.030273;1.197266;
93664;0.024414;0.030273;1.208008;
93803;0.030273;0.025391;1.222656;
93944;0.032227;0.021484;1.214844;
94084;0.036133;0.020508;1.217773;
94224;0.037109;0.018555;1.207031;
94364;0.039062;0.012695;1.189453;
94504;0.038086;0.017578;1.174805;
94630;0.039062;0.013672;1.155273;
94780;0.037109;0.016602;1.121094;
94919;0.040039;0.015625;1.091797;
95069;0.040039;0.017578;1.079102;
95219;0.035156;0.021484;1.059570;
95360;0.041016;0.023438;1.029297;
95499;0.039062;0.028320;1.033203;
95653;0.037109;0.029297;1.006836;
95794;0.037109;0.029297;0.991211;
95934;0.039062;0.036133;0.984375;
96074;0.034180;0.027344;0.976562;
96214;0.032227;0.037109;0.974609;
96353;0.036133;0.030273;0.974609;
96494;0.037109;0.035156;0.990234;
96633;0.034180;0.023438;1.002930;
96773;0.037109;0.035156;1.025391;
96914;0.038086;0.025391;1.045898;
97064;0.041992;0.020508;1.034180;
97204;0.042969;0.015625;1.033203;
97344;0.046875;0.015625;1.043945;
97484;0.047852;0.013672;1.042969;
97619;0.057617;0.020508;1.062500;
97769;0.053711;0.012695;1.043945;
97919;0.059570;0.017578;1.038086;
98059;0.062500;0.019531;1.061523;
98209;0.059570;0.021484;1.062500;
98361;0.066406;0.028320;1.059570;
98499;0.066406;0.030273;1.068359;
98644;0.069336;0.031250;1.082031;
98784;0.069336;0.024414;1.075195;
98924;0.074219;0.023438;1.070312;
99074;0.076172;0.024414;1.074219;
99213;0.077148;0.024414;1.072266;
99354;0.080078;0.020508;1.058594;
99494;0.082031;0.028320;1.056641;
99633;0.083984;0.023438;1.059570;
99774;0.086914;0.016602;1.058594;
99914;0.086914;0.017578;1.059570;
100054;0.087891;0.018555;1.073242;
100194;0.090820;0.017578;1.070312;
100344;0.087891;0.015625;1.067383;
100484;0.090820;0.015625;1.053711;
100629;0.090820;0.016602;1.027344;
100769;0.088867;0.016602;1.008789;
100920;0.087891;0.019531;0.975586;
101059;0.086914;0.016602;0.947266;
101193;0.083984;0.017578;0.917969;
101319;0.084961;0.020508;0.910156;
101459;0.082031;0.028320;0.903320;
101589;0.082031;0.027344;0.890625;
101729;0.083984;0.027344;0.896484;
101873;0.081055;0.026367;0.928711;
102014;0.082031;0.027344;0.924805;
102154;0.083008;0.023438;0.937500;
102303;0.080078;0.027344;0.954102;
102444;0.084961;0.019531;0.973633;
102584;0.085938;0.026367;0.960938;
102733;0.083008;0.024414;0.956055;
102874;0.083008;0.024414;0.961914;
103014;0.087891;0.028320;0.947266;
103154;0.084961;0.022461;0.929688;
103294;0.085938;0.024414;0.940430;
103434;0.088867;0.025391;0.943359;
103584;0.089844;0.022461;0.957031;
103724;0.088867;0.024414;0.934570;
103859;0.085938;0.023438;0.936523;
104009;0.086914;0.019531;0.957031;
104149;0.088867;0.018555;0.969727;
104299;0.087891;0.022461;0.976562;
104439;0.091797;0.025391;0.955078;
104579;0.087891;0.023438;0.959961;
104733;0.087891;0.021484;0.966797;
104874;0.086914;0.021484;0.990234;
105014;0.087891;0.029297;0.964844;
105154;0.089844;0.028320;0.949219;
105294;0.087891;0.025391;0.916016;
105434;0.085938;0.028320;0.921875;
105573;0.085938;0.025391;0.903320;
105713;0.085938;0.024414;0.889648;
105854;0.083008;0.030273;0.883789;
105994;0.083008;0.027344;0.867188;
106134;0.082031;0.029297;0.873047;
106274;0.082031;0.026367;0.916016;
106414;0.082031;0.024414;0.910156;
106564;0.083008;0.026367;0.916992;
106700;0.083008;0.020508;0.908203;
106839;0.080078;0.024414;0.947266;
106990;0.083008;0.025391;1.001953;
107129;0.085938;0.021484;1.052734;
107279;0.090820;0.025391;1.108398;
107424;0.094727;0.022461;1.123047;
107559;0.089844;0.020508;1.156250;
107703;0.092773;0.014648;1.198242;
107843;0.093750;0.014648;1.226562;
107979;0.095703;0.013672;1.213867;
108120;0.095703;0.017578;1.226562;
108274;0.097656;0.012695;1.245117;
108414;0.096680;0.008789;1.249023;
108553;0.096680;0.021484;1.267578;
108703;0.095703;0.019531;1.251953;
108843;0.096680;0.015625;1.236328;
108984;0.093750;0.021484;1.245117;
109134;0.095703;0.019531;1.260742;
109274;0.097656;0.019531;1.264648;
109414;0.095703;0.028320;1.268555;
109554;0.097656;0.019531;1.250000;
109693;0.093750;0.024414;1.227539;
109834;0.093750;0.020508;1.265625;
109974;0.094727;0.030273;1.268555;
110114;0.098633;0.023438;1.262695;
110249;0.093750;0.027344;1.241211;
110394;0.090820;0.024414;1.237305;
110529;0.096680;0.028320;1.265625;
110659;0.093750;0.018555;1.259766;
110799;0.098633;0.029297;1.252930;
110929;0.092773;0.028320;1.249023;
111079;0.093750;0.030273;1.257812;
111219;0.093750;0.022461;1.248047;
111369;0.093750;0.015625;1.214844;
111523;0.090820;0.023438;1.181641;
111664;0.092773;0.017578;1.162109;
111804;0.089844;0.017578;1.123047;
111944;0.087891;0.009766;1.089844;
112084;0.087891;0.010742;1.063477;
112224;0.088867;0.015625;1.027344;
112364;0.083984;0.014648;1.008789;
112504;0.083984;0.014648;1.003906;
112644;0.078125;0.019531;0.983398;
112784;0.084961;0.019531;0.987305;
112923;0.083984;0.017578;0.994141;
113064;0.075195;0.023438;1.000000;
113204;0.080078;0.023438;1.023438;
113343;0.081055;0.019531;1.057617;
113479;0.083984;0.031250;1.069336;
113619;0.088867;0.027344;1.041992;
113749;0.079102;0.019531;1.040039;
113879;0.083008;0.024414;1.041992;
114030;0.080078;0.026367;1.017578;
114179;0.084961;0.028320;0.992188;
114319;0.084961;0.024414;0.947266;
114474;0.082031;0.023438;0.909180;
114614;0.080078;0.023438;0.900391;
114754;0.074219;0.012695;0.876953;
114904;0.083984;0.019531;0.883789;
115044;0.077148;0.025391;0.857422;
115184;0.075195;0.011719;0.899414;
115334;0.081055;0.002930;0.954102;
115474;0.073242;0.016602;1.071289;
115614;0.087891;0.026367;1.179688;
115754;0.094727;0.026367;1.323242;
115893;0.090820;0.018555;1.435547;
116033;0.102539;0.017578;1.572266;
116173;0.114258;0.017578;1.677734;
116313;0.117188;0.020508;1.761719;
116459;0.123047;0.026367;1.818359;
116609;0.133789;0.025391;1.871094;
116739;0.130859;0.017578;1.933594;
116889;0.132812;0.014648;1.950195;
117019;0.135742;0.014648;1.981445;
117159;0.137695;0.020508;1.991211;
117289;0.139648;0.016602;1.961914;
117419;0.136719;0.015625;1.994141;
117574;0.137695;0.005859;2.010742;
117724;0.139648;0.010742;1.982422;
117864;0.136719;-0.003906;1.963867;
118004;0.134766;0.019531;1.925781;
118144;0.132812;0.004883;1.887695;
118283;0.124023;0.025391;1.861328;
118424;0.126953;0.012695;1.823242;
118564;0.122070;0.015625;1.810547;
118704;0.126953;0.007812;1.798828;
118843;0.121094;0.022461;1.778320;
118984;0.125000;0.019531;1.785156;
119123;0.122070;0.022461;1.796875;
119264;0.124023;0.016602;1.806641;
119404;0.126953;0.018555;1.806641;
119554;0.128906;0.007812;1.821289;
119689;0.126953;0.013672;1.852539;
119819;0.132812;0.007812;1.852539;
119959;0.133789;0.012695;1.876953;
120099;0.130859;0.003906;1.871094;
120229;0.134766;0.010742;1.898438;
120370;0.132812;0.015625;1.908203;
120509;0.136719;0.015625;1.902344;
120654;0.135742;0.014648;1.889648;
120804;0.135742;0.010742;1.879883;
120944;0.129883;0.007812;1.878906;
121084;0.133789;0.014648;1.871094;
121234;0.132812;0.008789;1.857422;
121374;0.132812;0.013672;1.848633;
121513;0.133789;0.014648;1.831055;
121654;0.131836;0.016602;1.833008;
121793;0.126953;0.015625;1.806641;
121933;0.133789;0.013672;1.824219;
122074;0.133789;0.016602;1.821289;
122214;0.133789;0.015625;1.810547;
122354;0.137695;0.021484;1.824219;
122504;0.133789;0.018555;1.831055;
122639;0.132812;0.023438;1.840820;
122780;0.133789;0.020508;1.848633;
122919;0.137695;0.021484;1.833008;
123059;0.135742;0.012695;1.841797;
123209;0.138672;0.015625;1.850586;
123349;0.140625;0.009766;1.853516;
123504;0.140625;0.014648;1.841797;
123644;0.139648;0.011719;1.867188;
123784;0.138672;0.011719;1.846680;
123924;0.143555;0.006836;1.847656;
124064;0.143555;0.013672;1.839844;
124204;0.141602;0.008789;1.838867;
124344;0.143555;0.007812;1.828125;
124493;0.141602;0.010742;1.827148;
124634;0.147461;0.014648;1.835938;
124773;0.142578;0.007812;1.844727;
124914;0.145508;0.001953;1.835938;
125054;0.146484;0.006836;1.848633;
125194;0.149414;0.016602;1.843750;
125334;0.151367;0.013672;1.848633;
125469;0.148438;0.015625;1.844727;
125609;0.151367;0.017578;1.845703;
125749;0.151367;0.009766;1.840820;
125890;0.154297;0.010742;1.853516;
126039;0.152344;0.012695;1.856445;
126189;0.152344;0.013672;1.841797;
126324;0.157227;0.013672;1.853516;
126459;0.154297;0.014648;1.850586;
126589;0.157227;0.018555;1.851562;
126734;0.157227;0.014648;1.853516;
126874;0.157227;0.008789;1.845703;
127024;0.162109;0.017578;1.866211;
127164;0.162109;0.013672;1.845703;
127304;0.160156;0.009766;1.838867;
127443;0.163086;0.018555;1.850586;
127584;0.160156;0.011719;1.826172;
127724;0.164062;0.018555;1.829102;
127864;0.162109;0.009766;1.819336;
128004;0.162109;0.015625;1.815430;
128154;0.167969;0.014648;1.817383;
128294;0.166992;0.013672;1.812500;
128434;0.166992;0.012695;1.799805;
128574;0.171875;0.013672;1.810547;
128709;0.169922;0.009766;1.795898;
128859;0.166992;0.009766;1.789062;
128999;0.168945;0.003906;1.779297;
129144;0.170898;0.014648;1.788086;
129283;0.171875;0.016602;1.796875;
129419;0.174805;0.011719;1.794922;
129559;0.172852;0.008789;1.797852;
129689;0.171875;0.016602;1.821289;
129819;0.174805;0.018555;1.812500;
129969;0.176758;0.012695;1.802734;
130110;0.176758;0.017578;1.785156;
130263;0.174805;0.015625;1.760742;
130404;0.176758;0.013672;1.752930;
130544;0.174805;0.013672;1.722656;
130684;0.176758;0.018555;1.719727;
130824;0.179688;0.008789;1.715820;
130974;0.180664;0.014648;1.716797;
131113;0.177734;0.012695;1.725586;
131254;0.185547;0.014648;1.728516;
131404;0.186523;0.016602;1.753906;
131544;0.192383;0.021484;1.770508;
131694;0.189453;0.018555;1.768555;
131833;0.196289;0.026367;1.798828;
131974;0.202148;0.029297;1.824219;
132123;0.204102;0.034180;1.853516;
132259;0.202148;0.027344;1.831055;
132409;0.208008;0.030273;1.817383;
132559;0.205078;0.031250;1.825195;
132709;0.209961;0.022461;1.812500;
132850;0.214844;0.018555;1.816406;
132999;0.214844;0.021484;1.831055;
133143;0.209961;0.016602;1.808594;
133284;0.210938;0.013672;1.821289;
133424;0.212891;0.015625;1.786133;
133563;0.213867;0.007812;1.796875;
133713;0.208984;0.009766;1.776367;
133854;0.208008;0.013672;1.770508;
133994;0.201172;0.006836;1.758789;
134143;0.200195;0.005859;1.780273;
134284;0.193359;0.004883;1.750977;
134424;0.190430;0.005859;1.742188;
134564;0.185547;0.006836;1.744141;
134704;0.178711;0.000000;1.707031;
134844;0.164062;-0.001953;1.682617;
134984;0.164062;0.001953;1.671875;
135120;0.156250;0.002930;1.644531;
135259;0.148438;0.001953;1.622070;
135399;0.139648;0.007812;1.581055;
135550;0.126953;0.014648;1.510742;
135682;0.116211;0.012695;1.430664;
135829;0.093750;0.024414;1.289062;
135960;0.082031;0.025391;1.183594;
136099;0.059570;0.028320;1.038086;
136254;0.045898;0.031250;0.941406;
136394;0.034180;0.030273;0.779297;
136533;0.023438;0.030273;0.641602;
136685;0.017578;0.031250;0.573242;
136833;0.014648;0.033203;0.473633;
136974;0.007812;0.039062;0.355469;
137114;0.006836;0.029297;0.310547;
137254;-0.001953;0.029297;0.246094;
137394;-0.001953;0.028320;0.208984;
137534;0.000000;0.025391;0.171875;
137683;0.000977;0.024414;0.135742;
137823;0.000000;0.025391;0.103516;
137963;0.000000;0.024414;0.083984;
138104;-0.001953;0.022461;0.070312;
138229;-0.001953;0.022461;0.067383;
138359;-0.001953;0.026367;0.061523;
138499;-0.002930;0.025391;0.059570;
138649;-0.001953;0.026367;0.054688;
138799;-0.001953;0.029297;0.048828;
138949;-0.004883;0.027344;0.062500;
139099;-0.005859;0.022461;0.065430;
139239;-0.009766;0.026367;0.066406;
139384;-0.004883;0.030273;0.057617;
139524;-0.005859;0.032227;0.052734;
139669;-0.010742;0.030273;0.037109;
139814;-0.010742;0.034180;0.024414;
139964;-0.010742;0.037109;0.020508;
140104;-0.007812;0.036133;0.017578;
140239;-0.008789;0.035156;0.011719;
140394;-0.010742;0.035156;0.004883;
140544;-0.007812;0.033203;0.005859;
140684;-0.007812;0.031250;0.000000;
140820;-0.008789;0.030273;0.007812;
140974;-0.005859;0.028320;-0.000977;
141114;-0.012695;0.029297;-0.011719;
141264;-0.007812;0.029297;-0.016602;
141399;-0.013672;0.034180;-0.023438;
141539;-0.009766;0.032227;-0.017578;
141679;-0.010742;0.032227;-0.011719;
141819;-0.012695;0.033203;-0.019531;
141949;-0.010742;0.036133;-0.018555;
142079;-0.013672;0.035156;-0.010742;
142220;-0.010742;0.035156;-0.013672;
142359;-0.013672;0.037109;-0.016602;
142499;-0.011719;0.035156;-0.004883;
142644;-0.010742;0.033203;-0.002930;
142784;-0.013672;0.035156;-0.011719;
142924;-0.014648;0.035156;-0.003906;
143064;-0.011719;0.033203;-0.001953;
143214;-0.012695;0.031250;0.009766;
143354;-0.010742;0.035156;0.020508;
143494;-0.014648;0.036133;0.019531;
143634;-0.014648;0.034180;0.026367;
143774;-0.014648;0.037109;0.018555;
143914;-0.014648;0.032227;0.024414;
144053;-0.017578;0.035156;0.028320;
144194;-0.014648;0.030273;0.030273;
144334;-0.017578;0.035156;0.028320;
144474;-0.014648;0.031250;0.041016;
144609;-0.015625;0.031250;0.043945;
144749;-0.014648;0.029297;0.038086;
144889;-0.012695;0.031250;0.042969;
145039;-0.013672;0.028320;0.034180;
145169;-0.014648;0.029297;0.041992;
145309;-0.015625;0.032227;0.034180;
145439;-0.029297;0.027344;0.051758;
145569;-0.013672;0.025391;0.044922;
145709;-0.015625;0.027344;0.035156;
145854;-0.016602;0.028320;0.028320;
145994;-0.014648;0.030273;0.028320;
146134;-0.015625;0.028320;0.035156;
146273;-0.017578;0.026367;0.025391;
146414;-0.019531;0.031250;0.020508;
146554;-0.017578;0.030273;0.028320;
146693;-0.015625;0.024414;0.023438;
146833;-0.015625;0.024414;0.019531;
146974;-0.017578;0.027344;0.022461;
147114;-0.015625;0.025391;0.010742;
147254;-0.018555;0.026367;0.014648;
147394;-0.014648;0.022461;0.011719;
147534;-0.017578;0.026367;0.012695;
147674;-0.015625;0.023438;0.010742;
147819;-0.019531;0.022461;0.001953;
147959;-0.017578;0.024414;0.006836;
148109;-0.015625;0.022461;0.000977;
148259;-0.017578;0.024414;-0.002930;
148410;-0.015625;0.022461;-0.001953;
148559;-0.017578;0.024414;-0.000977;
148709;-0.017578;0.023438;0.000977;
148850;-0.018555;0.024414;-0.001953;
148980;-0.017578;0.023438;-0.005859;
149134;-0.018555;0.022461;0.003906;
149269;-0.017578;0.021484;-0.005859;
149424;-0.017578;0.021484;-0.003906;
149564;-0.019531;0.022461;0.000000;
149704;-0.017578;0.023438;-0.000977;
149839;-0.018555;0.021484;0.002930;
149985;-0.018555;0.024414;0.002930;
150133;-0.018555;0.022461;0.001953;
150274;-0.021484;0.024414;0.011719;
150409;-0.019531;0.023438;0.005859;
150553;-0.019531;0.024414;0.015625;
150693;-0.019531;0.023438;0.014648;
150844;-0.019531;0.024414;0.019531;
150984;-0.021484;0.025391;0.013672;
151119;-0.021484;0.023438;0.022461;
151259;-0.023438;0.025391;0.023438;
151399;-0.020508;0.026367;0.025391;
151530;-0.021484;0.024414;0.020508;
151679;-0.020508;0.023438;0.028320;
151819;-0.021484;0.027344;0.013672;
151970;-0.020508;0.023438;0.028320;
152119;-0.022461;0.023438;0.022461;
152274;-0.021484;0.023438;0.029297;
152414;-0.022461;0.026367;0.013672;
152554;-0.021484;0.024414;0.027344;
152694;-0.023438;0.024414;0.015625;
152834;-0.024414;0.024414;0.013672;
152974;-0.024414;0.023438;0.017578;
153114;-0.023438;0.020508;0.010742;
153264;-0.025391;0.024414;0.013672;
153403;-0.025391;0.021484;0.019531;
153544;-0.024414;0.022461;0.011719;
153684;-0.022461;0.023438;0.017578;
153824;-0.024414;0.020508;0.014648;
153964;-0.023438;0.020508;0.008789;
154104;-0.023438;0.023438;0.006836;
154244;-0.022461;0.022461;0.010742;
154379;-0.023438;0.023438;0.012695;
154509;-0.025391;0.024414;0.003906;
154649;-0.025391;0.022461;0.001953;
154779;-0.025391;0.024414;0.002930;
154910;-0.025391;0.026367;0.002930;
155059;-0.027344;0.022461;0.003906;
155189;-0.025391;0.020508;0.004883;
155324;-0.026367;0.021484;0.003906;
155464;-0.025391;0.020508;0.007812;
155614;-0.027344;0.022461;0.004883;
155749;-0.025391;0.023438;0.002930;
155894;-0.028320;0.020508;-0.002930;
156034;-0.026367;0.018555;0.004883;
156184;-0.027344;0.021484;0.005859;
156319;-0.027344;0.017578;0.002930;
156474;-0.027344;0.020508;0.012695;
156614;-0.030273;0.018555;0.008789;
156754;-0.032227;0.021484;0.002930;
156894;-0.030273;0.018555;0.007812;
157034;-0.029297;0.019531;0.013672;
157169;-0.031250;0.017578;0.005859;
157309;-0.030273;0.017578;0.009766;
157449;-0.029297;0.016602;0.006836;
157600;-0.031250;0.018555;0.001953;
157729;-0.031250;0.017578;-0.004883;
157879;-0.030273;0.019531;0.005859;
158019;-0.033203;0.022461;-0.000977;
158169;-0.034180;0.024414;-0.016602;
158319;-0.035156;0.022461;-0.005859;
158474;-0.033203;0.023438;-0.014648;
158623;-0.035156;0.025391;-0.014648;
158764;-0.035156;0.024414;-0.012695;
158904;-0.035156;0.020508;-0.010742;
159044;-0.035156;0.019531;-0.014648;
159184;-0.036133;0.018555;-0.018555;
159324;-0.035156;0.019531;-0.016602;
159464;-0.037109;0.017578;-0.005859;
159604;-0.036133;0.015625;-0.006836;
159744;-0.039062;0.018555;0.000000;
159883;-0.038086;0.018555;0.013672;
160033;-0.040039;0.020508;0.037109;
160173;-0.041992;0.023438;0.042969;
160314;-0.044922;0.025391;0.049805;
160449;-0.044922;0.025391;0.064453;
160590;-0.048828;0.025391;0.091797;
160739;-0.048828;0.027344;0.125977;
160889;-0.048828;0.022461;0.214844;
161029;-0.042969;0.026367;0.306641;
161179;-0.042969;0.028320;0.378906;
161320;-0.033203;0.028320;0.496094;
161473;-0.021484;0.022461;0.629883;
161614;-0.014648;0.021484;0.741211;
161754;-0.004883;0.020508;0.884766;
161894;0.002930;0.027344;0.971680;
162034;0.009766;0.029297;1.099609;
162184;0.012695;0.031250;1.226562;
162323;0.021484;0.026367;1.291016;
162464;0.035156;0.027344;1.376953;
162613;0.042969;0.028320;1.449219;
162754;0.048828;0.023438;1.517578;
162894;0.054688;0.027344;1.570312;
163029;0.064453;0.025391;1.607422;
163174;0.068359;0.023438;1.651367;
163314;0.067383;0.029297;1.679688;
163449;0.071289;0.009766;1.697266;
163590;0.079102;0.004883;1.713867;
163740;0.065430;0.029297;1.771484;
163889;0.074219;0.042969;1.757812;
164031;0.063477;0.041016;1.765625;
164169;0.049805;0.034180;1.738281;
164309;0.063477;0.034180;1.754883;
164449;0.070312;0.043945;1.757812;
164593;0.049805;0.028320;1.692383;
164733;0.048828;0.037109;1.684570;
164874;0.053711;0.028320;1.668945;
165014;0.049805;0.028320;1.669922;
165154;0.048828;0.034180;1.672852;
165294;0.042969;0.033203;1.676758;
165444;0.044922;0.037109;1.682617;
165583;0.041992;0.032227;1.688477;
165724;0.046875;0.030273;1.723633;
165874;0.048828;0.027344;1.742188;
166014;0.047852;0.028320;1.776367;
166154;0.053711;0.029297;1.783203;
166293;0.051758;0.026367;1.811523;
166434;0.052734;0.018555;1.829102;
166569;0.055664;0.020508;1.858398;
166709;0.052734;0.019531;1.864258;
166849;0.051758;0.017578;1.891602;
166999;0.059570;0.007812;1.901367;
167152;0.057617;0.013672;1.911133;
167300;0.051758;0.021484;1.901367;
167449;0.054688;0.019531;1.888672;
167594;0.046875;0.014648;1.835938;
167734;0.041016;0.019531;1.843750;
167874;0.039062;0.021484;1.798828;
168014;0.037109;0.014648;1.804688;
168154;0.033203;0.017578;1.792969;
168293;0.035156;0.016602;1.774414;
168434;0.029297;0.009766;1.763672;
168584;0.031250;0.013672;1.765625;
168724;0.027344;0.009766;1.756836;
168864;0.027344;0.013672;1.750977;
169013;0.025391;0.016602;1.762695;
169154;0.022461;0.023438;1.764648;
169294;0.021484;0.026367;1.757812;
169434;0.020508;0.032227;1.767578;
169569;0.017578;0.034180;1.777344;
169710;0.017578;0.030273;1.787109;
169859;0.019531;0.031250;1.805664;
169994;0.017578;0.028320;1.814453;
170141;0.017578;0.027344;1.829102;
170290;0.018555;0.024414;1.844727;
170439;0.021484;0.024414;1.859375;
170574;0.020508;0.020508;1.869141;
170724;0.018555;0.023438;1.874023;
170864;0.021484;0.023438;1.873047;
171014;0.018555;0.024414;1.880859;
171154;0.017578;0.021484;1.877930;
171294;0.016602;0.018555;1.873047;
171443;0.016602;0.016602;1.867188;
171583;0.013672;0.012695;1.860352;
171724;0.010742;0.010742;1.847656;
171864;0.011719;0.017578;1.848633;
172004;0.007812;0.014648;1.834961;
172144;0.004883;0.018555;1.837891;
172284;0.007812;0.023438;1.856445;
172423;0.006836;0.027344;1.858398;
172564;0.005859;0.023438;1.839844;
172689;0.004883;0.020508;1.819336;
172819;-0.000977;0.015625;1.782227;
172949;-0.004883;0.020508;1.758789;
173089;-0.015625;0.023438;1.695312;
173229;-0.015625;0.020508;1.656250;
173379;-0.024414;0.022461;1.597656;
173519;-0.028320;0.023438;1.555664;
173664;-0.032227;0.016602;1.519531;
173804;-0.037109;0.016602;1.458008;
173944;-0.039062;0.021484;1.440430;
174083;-0.041992;0.021484;1.435547;
174224;-0.045898;0.020508;1.418945;
174364;-0.044922;0.024414;1.416992;
174514;-0.047852;0.020508;1.410156;
174654;-0.046875;0.021484;1.414062;
174794;-0.042969;0.022461;1.422852;
174934;-0.046875;0.029297;1.438477;
175074;-0.044922;0.028320;1.451172;
175214;-0.044922;0.024414;1.447266;
175353;-0.045898;0.026367;1.460938;
175493;-0.042969;0.020508;1.462891;
175629;-0.047852;0.019531;1.460938;
175779;-0.044922;0.023438;1.471680;
175929;-0.046875;0.023438;1.456055;
176069;-0.046875;0.015625;1.447266;
176204;-0.046875;0.022461;1.445312;
176329;-0.048828;0.013672;1.444336;
176469;-0.045898;0.017578;1.435547;
176619;-0.051758;0.022461;1.422852;
176769;-0.051758;0.022461;1.416992;
176904;-0.053711;0.018555;1.423828;
177044;-0.054688;0.019531;1.420898;
177183;-0.055664;0.024414;1.423828;
177324;-0.053711;0.028320;1.412109;
177464;-0.053711;0.024414;1.422852;
177604;-0.051758;0.025391;1.427734;
177744;-0.053711;0.016602;1.417969;
177884;-0.055664;0.020508;1.416992;
178033;-0.055664;0.024414;1.419922;
178173;-0.057617;0.031250;1.405273;
178314;-0.056641;0.024414;1.414062;
178454;-0.060547;0.028320;1.394531;
178594;-0.058594;0.023438;1.387695;
178734;-0.060547;0.030273;1.357422;
178869;-0.064453;0.024414;1.344727;
179019;-0.068359;0.029297;1.321289;
179169;-0.066406;0.025391;1.292969;
179319;-0.069336;0.025391;1.262695;
179469;-0.069336;0.018555;1.266602;
179619;-0.071289;0.025391;1.250000;
179749;-0.067383;0.014648;1.250977;
179884;-0.071289;0.016602;1.255859;
180024;-0.067383;0.018555;1.273438;
180164;-0.073242;0.026367;1.279297;
180304;-0.071289;0.026367;1.291992;
180444;-0.064453;0.028320;1.338867;
180584;-0.066406;0.025391;1.348633;
180724;-0.064453;0.028320;1.372070;
180864;-0.067383;0.031250;1.391602;
181004;-0.064453;0.029297;1.386719;
181154;-0.066406;0.025391;1.389648;
181293;-0.061523;0.021484;1.399414;
181434;-0.065430;0.005859;1.400391;
181584;-0.061523;0.015625;1.416016;
181724;-0.066406;0.022461;1.403320;
181861;-0.070312;0.017578;1.370117;
182009;-0.062500;0.011719;1.338867;
182139;-0.069336;0.019531;1.325195;
182279;-0.074219;0.015625;1.299805;
182420;-0.071289;0.017578;1.266602;
182569;-0.074219;0.020508;1.244141;
182719;-0.079102;0.018555;1.210938;
182859;-0.077148;0.020508;1.183594;
183003;-0.083008;0.020508;1.182617;
183143;-0.083008;0.019531;1.152344;
183284;-0.081055;0.021484;1.143555;
183423;-0.084961;0.030273;1.153320;
183564;-0.085938;0.033203;1.143555;
183704;-0.080078;0.027344;1.151367;
183844;-0.080078;0.032227;1.172852;
183983;-0.080078;0.022461;1.195312;
184124;-0.075195;0.026367;1.195312;
184263;-0.080078;0.028320;1.211914;
184403;-0.078125;0.029297;1.208984;
184544;-0.078125;0.020508;1.232422;
184694;-0.078125;0.014648;1.227539;
184843;-0.077148;0.022461;1.235352;
184979;-0.078125;0.020508;1.250977;
185129;-0.078125;0.022461;1.266602;
185280;-0.076172;0.016602;1.268555;
185430;-0.072266;0.018555;1.275391;
185570;-0.072266;0.017578;1.286133;
185719;-0.081055;0.024414;1.267578;
185864;-0.077148;0.029297;1.260742;
186003;-0.077148;0.020508;1.249023;
186153;-0.082031;0.028320;1.250000;
186293;-0.080078;0.026367;1.238281;
186434;-0.074219;0.019531;1.228516;
186584;-0.076172;0.030273;1.225586;
186723;-0.086914;0.028320;1.212891;
186864;-0.077148;0.026367;1.216797;
187004;-0.081055;0.026367;1.247070;
187144;-0.077148;0.023438;1.270508;
187284;-0.073242;0.023438;1.291992;
187424;-0.072266;0.015625;1.324219;
187564;-0.076172;0.020508;1.322266;
187703;-0.072266;0.025391;1.343750;
187839;-0.072266;0.019531;1.361328;
187989;-0.069336;0.021484;1.355469;
188141;-0.069336;0.019531;1.355469;
188279;-0.073242;0.018555;1.341797;
188419;-0.071289;0.025391;1.333984;
188560;-0.071289;0.019531;1.314453;
188709;-0.080078;0.019531;1.284180;
188860;-0.079102;0.022461;1.254883;
189009;-0.076172;0.029297;1.247070;
189140;-0.079102;0.019531;1.213867;
189284;-0.081055;0.027344;1.202148;
189423;-0.081055;0.019531;1.177734;
189564;-0.081055;0.029297;1.202148;
189705;-0.080078;0.022461;1.167969;
189859;-0.081055;0.025391;1.158203;
190013;-0.083984;0.021484;1.161133;
190154;-0.084961;0.021484;1.150391;
190294;-0.084961;0.021484;1.146484;
190445;-0.083008;0.025391;1.147461;
190579;-0.085938;0.025391;1.166016;
190719;-0.079102;0.025391;1.172852;
190854;-0.084961;0.025391;1.157227;
190993;-0.082031;0.026367;1.166016;
191133;-0.083984;0.028320;1.171875;
191279;-0.082031;0.028320;1.181641;
191419;-0.081055;0.023438;1.178711;
191569;-0.082031;0.021484;1.185547;
191720;-0.079102;0.027344;1.195312;
191869;-0.081055;0.020508;1.195312;
192009;-0.082031;0.018555;1.192383;
192159;-0.076172;0.019531;1.220703;
192309;-0.079102;0.021484;1.229492;
192449;-0.080078;0.018555;1.226562;
192599;-0.078125;0.027344;1.248047;
192739;-0.071289;0.025391;1.266602;
192869;-0.073242;0.023438;1.264648;
193019;-0.073242;0.022461;1.259766;
193164;-0.074219;0.026367;1.267578;
193313;-0.075195;0.019531;1.250000;
193454;-0.069336;0.024414;1.250977;
193589;-0.067383;0.023438;1.235352;
193739;-0.067383;0.021484;1.227539;
193884;-0.068359;0.014648;1.226562;
194024;-0.065430;0.018555;1.245117;
194164;-0.065430;0.020508;1.232422;
194309;-0.062500;0.020508;1.239258;
194459;-0.061523;0.021484;1.247070;
194599;-0.059570;0.020508;1.247070;
194749;-0.053711;0.029297;1.258789;
194900;-0.051758;0.018555;1.264648;
195039;-0.048828;0.027344;1.272461;
195179;-0.044922;0.021484;1.277344;
195329;-0.036133;0.022461;1.294922;
195479;-0.033203;0.020508;1.295898;
195629;-0.031250;0.018555;1.286133;
195780;-0.026367;0.020508;1.291016;
195929;-0.015625;0.016602;1.294922;
196079;-0.008789;0.018555;1.294922;
196214;-0.003906;0.015625;1.264648;
196354;0.001953;0.021484;1.252930;
196494;-0.000977;0.022461;1.227539;
196634;0.000977;0.025391;1.201172;
196770;-0.000977;0.016602;1.157227;
196913;0.000000;0.023438;1.136719;
197054;-0.001953;0.026367;1.114258;
197203;-0.004883;0.026367;1.085938;
197344;-0.005859;0.026367;1.069336;
197484;-0.007812;0.032227;1.074219;
197624;-0.007812;0.028320;1.056641;
197764;-0.008789;0.028320;1.041992;
197904;-0.007812;0.028320;1.032227;
198039;-0.007812;0.029297;1.035156;
198180;-0.008789;0.024414;1.046875;
198329;-0.010742;0.031250;1.025391;
198479;-0.009766;0.022461;1.033203;
198632;-0.006836;0.028320;1.048828;
198764;-0.008789;0.031250;1.037109;
198909;-0.008789;0.029297;1.041992;
199049;-0.007812;0.023438;1.029297;
199194;-0.007812;0.026367;1.026367;
199334;-0.006836;0.021484;1.009766;
199474;-0.005859;0.028320;1.004883;
199624;-0.007812;0.020508;1.000977;
199764;-0.004883;0.025391;0.988281;
199904;-0.009766;0.021484;0.985352;
200043;-0.009766;0.022461;0.988281;
200184;-0.013672;0.020508;0.988281;
200324;-0.011719;0.023438;0.998047;
200464;-0.014648;0.028320;0.993164;
200604;-0.015625;0.023438;1.010742;
200753;-0.013672;0.020508;1.012695;
200894;-0.015625;0.026367;1.033203;
201034;-0.014648;0.023438;1.044922;
201179;-0.015625;0.024414;1.047852;
201309;-0.013672;0.026367;1.051758;
201459;-0.011719;0.028320;1.052734;
201601;-0.012695;0.018555;1.040039;
201739;-0.011719;0.024414;1.028320;
201879;-0.014648;0.025391;1.021484;
202019;-0.015625;0.022461;1.007812;
202174;-0.013672;0.026367;1.009766;
202313;-0.014648;0.024414;0.998047;
202454;-0.015625;0.026367;0.997070;
202594;-0.014648;0.027344;0.986328;
202733;-0.015625;0.029297;0.976562;
202869;-0.018555;0.025391;0.969727;
203013;-0.013672;0.024414;0.968750;
203163;-0.019531;0.028320;0.948242;
203304;-0.016602;0.029297;0.950195;
203439;-0.018555;0.028320;0.945312;
203569;-0.017578;0.031250;0.949219;
203711;-0.019531;0.030273;0.956055;
203854;-0.016602;0.029297;0.972656;
204003;-0.017578;0.028320;0.992188;
204139;-0.013672;0.030273;1.027344;
204289;-0.012695;0.026367;1.048828;
204429;-0.014648;0.025391;1.067383;
204559;-0.009766;0.026367;1.092773;
204710;-0.012695;0.024414;1.114258;
204859;-0.004883;0.019531;1.125000;
205004;-0.010742;0.030273;1.140625;
205139;-0.009766;0.020508;1.146484;
205269;-0.008789;0.022461;1.150391;
205429;-0.009766;0.026367;1.148438;
205569;-0.010742;0.030273;1.148438;
205720;-0.009766;0.020508;1.143555;
205869;-0.010742;0.030273;1.123047;
206009;-0.010742;0.030273;1.114258;
206149;-0.013672;0.033203;1.107422;
206284;-0.014648;0.027344;1.089844;
206434;-0.013672;0.034180;1.102539;
206574;-0.014648;0.028320;1.093750;
206715;-0.011719;0.032227;1.081055;
206859;-0.013672;0.025391;1.075195;
206994;-0.012695;0.024414;1.079102;
207144;-0.010742;0.023438;1.088867;
207284;-0.009766;0.024414;1.097656;
207434;-0.005859;0.015625;1.078125;
207584;-0.005859;0.022461;1.063477;
207729;-0.004883;0.022461;1.045898;
207873;0.000000;0.019531;1.037109;
208019;0.000000;0.016602;1.007812;
208159;-0.000977;0.016602;1.003906;
208301;-0.001953;0.021484;0.981445;
208449;-0.005859;0.024414;0.972656;
208590;-0.002930;0.025391;0.977539;
208739;-0.004883;0.024414;0.974609;
208879;0.000000;0.025391;0.984375;
209010;-0.002930;0.026367;0.985352;
209149;-0.003906;0.033203;0.979492;
209289;-0.004883;0.033203;0.985352;
209419;-0.003906;0.034180;0.983398;
209569;-0.006836;0.026367;0.980469;
209699;-0.006836;0.029297;0.985352;
209844;-0.003906;0.027344;0.972656;
209984;-0.005859;0.021484;0.971680;
210123;-0.004883;0.025391;0.974609;
210259;-0.003906;0.025391;0.975586;
210400;-0.009766;0.025391;0.978516;
210544;-0.008789;0.020508;0.969727;
210694;-0.008789;0.023438;0.966797;
210834;-0.009766;0.025391;0.983398;
210974;-0.006836;0.026367;0.990234;
211099;-0.007812;0.028320;0.997070;
211240;-0.009766;0.029297;1.002930;
211389;-0.006836;0.028320;1.015625;
211539;-0.008789;0.029297;1.016602;
211689;-0.008789;0.030273;1.019531;
211839;-0.006836;0.030273;1.021484;
211990;-0.007812;0.024414;1.025391;
212119;-0.005859;0.027344;1.037109;
212269;-0.008789;0.022461;1.013672;
212419;-0.006836;0.025391;1.002930;
212569;-0.006836;0.029297;1.017578;
212709;-0.007812;0.025391;1.019531;
212849;-0.006836;0.021484;1.015625;
213004;-0.005859;0.020508;1.010742;
213144;-0.007812;0.022461;1.012695;
213284;-0.006836;0.019531;1.014648;
213424;-0.007812;0.022461;1.024414;
213559;-0.005859;0.021484;1.034180;
213714;-0.008789;0.024414;1.055664;
213853;-0.006836;0.021484;1.063477;
213994;-0.005859;0.021484;1.068359;
214134;-0.005859;0.022461;1.066406;
214259;-0.004883;0.028320;1.077148;
214389;-0.006836;0.027344;1.079102;
214519;-0.005859;0.024414;1.083008;
214650;-0.004883;0.023438;1.068359;
214803;-0.005859;0.023438;1.065430;
214939;-0.006836;0.023438;1.059570;
215080;-0.005859;0.025391;1.063477;
215229;-0.004883;0.028320;1.069336;
215369;-0.005859;0.023438;1.061523;
215509;-0.003906;0.027344;1.078125;
215659;-0.005859;0.027344;1.092773;
215810;-0.005859;0.024414;1.111328;
215950;-0.003906;0.019531;1.125977;
216089;-0.002930;0.021484;1.137695;
216223;-0.000977;0.017578;1.149414;
216353;0.000977;0.020508;1.159180;
216489;0.000977;0.022461;1.168945;
216639;0.001953;0.024414;1.171875;
216779;0.001953;0.020508;1.187500;
216919;-0.000977;0.016602;1.172852;
217059;0.002930;0.026367;1.175781;
217204;0.000000;0.026367;1.179688;
217339;0.000000;0.027344;1.187500;
217492;0.001953;0.019531;1.178711;
217634;0.001953;0.021484;1.179688;
217769;0.004883;0.021484;1.181641;
217914;-0.002930;0.022461;1.179688;
218054;-0.000977;0.023438;1.165039;
218203;0.002930;0.023438;1.174805;
218344;-0.001953;0.021484;1.174805;
218482;0.000977;0.026367;1.170898;
218629;0.000000;0.023438;1.160156;
218784;0.000977;0.025391;1.153320;
218924;-0.002930;0.018555;1.141602;
219074;0.000000;0.025391;1.126953;
219209;-0.004883;0.021484;1.105469;
219359;-0.005859;0.023438;1.094727;
219499;-0.005859;0.022461;1.082031;
219639;-0.003906;0.026367;1.058594;
219789;-0.006836;0.023438;1.028320;
219919;-0.005859;0.019531;1.013672;
220059;-0.007812;0.027344;1.006836;
220189;-0.011719;0.027344;0.983398;
220341;-0.007812;0.016602;0.978516;
220479;-0.008789;0.026367;0.975586;
220629;-0.009766;0.025391;0.969727;
220769;-0.007812;0.025391;0.950195;
220909;-0.011719;0.027344;0.971680;
221049;-0.007812;0.028320;0.961914;
221179;-0.006836;0.030273;0.956055;
221323;-0.009766;0.024414;0.955078;
221460;-0.011719;0.024414;0.939453;
221599;-0.008789;0.024414;0.952148;
221753;-0.011719;0.018555;0.937500;
221894;-0.009766;0.021484;0.942383;
222034;-0.009766;0.020508;0.951172;
222169;-0.009766;0.016602;0.931641;
222299;-0.010742;0.021484;0.932617;
222449;-0.010742;0.028320;0.946289;
222579;-0.013672;0.025391;0.938477;
222709;-0.008789;0.023438;0.951172;
222864;-0.013672;0.026367;0.936523;
223004;-0.010742;0.018555;0.924805;
223144;-0.011719;0.025391;0.920898;
223279;-0.010742;0.030273;0.932617;
223419;-0.015625;0.025391;0.927734;
223559;-0.008789;0.027344;0.928711;
223699;-0.010742;0.025391;0.933594;
223849;-0.011719;0.027344;0.917969;
223999;-0.013672;0.025391;0.917969;
224139;-0.012695;0.023438;0.924805;
224279;-0.012695;0.026367;0.934570;
224419;-0.009766;0.022461;0.947266;
224559;-0.010742;0.024414;0.948242;
224704;-0.010742;0.022461;0.965820;
224839;-0.008789;0.018555;0.978516;
224979;-0.007812;0.024414;1.006836;
225119;-0.006836;0.021484;1.027344;
225263;-0.006836;0.028320;1.037109;
225403;-0.007812;0.031250;1.041016;
225544;-0.006836;0.024414;1.041016;
225684;-0.004883;0.025391;1.038086;
225819;-0.006836;0.026367;1.065430;
225949;-0.003906;0.025391;1.056641;
226084;-0.007812;0.020508;1.046875;
226224;-0.004883;0.027344;1.036133;
226363;-0.006836;0.024414;1.029297;
226514;-0.008789;0.020508;1.010742;
226649;-0.009766;0.025391;1.027344;
226790;-0.008789;0.025391;1.013672;
226939;-0.006836;0.021484;0.987305;
227069;-0.009766;0.025391;0.991211;
227210;-0.004883;0.018555;1.010742;
227349;-0.006836;0.022461;1.016602;
227499;-0.008789;0.020508;1.022461;
227650;-0.007812;0.024414;1.033203;
227799;-0.011719;0.020508;1.034180;
227949;-0.004883;0.025391;1.039062;
228099;-0.004883;0.025391;1.039062;
228229;-0.006836;0.020508;1.039062;
228359;-0.006836;0.023438;1.057617;
228499;-0.003906;0.023438;1.057617;
228649;-0.006836;0.024414;1.040039;
228789;-0.004883;0.022461;1.034180;
228933;-0.003906;0.026367;1.042969;
229074;-0.006836;0.031250;1.050781;
229214;-0.005859;0.034180;1.048828;
229365;-0.006836;0.028320;1.035156;
229509;-0.013672;0.029297;1.017578;
229649;-0.009766;0.028320;0.965820;
229784;-0.010742;0.014648;0.921875;
229924;-0.011719;0.015625;0.923828;
230064;-0.006836;0.016602;0.981445;
230204;-0.003906;0.009766;1.028320;
230349;-0.011719;0.015625;1.036133;
230503;-0.004883;0.007812;1.008789;
230649;-0.001953;0.010742;1.067383;
230789;-0.011719;0.019531;1.061523;
230929;-0.001953;0.048828;1.036133;
231069;-0.011719;0.020508;0.995117;
231209;-0.006836;0.020508;0.985352;
231349;-0.008789;0.009766;0.965820;
231499;0.000977;0.033203;1.018555;
231639;-0.011719;0.021484;1.027344;
231779;-0.002930;0.025391;1.045898;
231919;-0.007812;0.016602;1.050781;
232069;-0.004883;0.032227;1.054688;
232209;-0.003906;0.022461;1.061523;
232339;-0.005859;0.025391;1.090820;
232469;-0.007812;0.029297;1.084961;
232599;-0.007812;0.041016;1.061523;
232764;-0.004883;0.034180;1.050781;
232904;-0.011719;0.028320;1.044922;
233044;0.000000;0.021484;0.997070;
233184;-0.013672;0.023438;0.983398;
233314;-0.005859;0.027344;1.006836;
233449;-0.011719;0.003906;1.004883;
233580;-0.005859;0.020508;1.009766;
233720;-0.008789;0.017578;0.990234;
233864;-0.006836;0.039062;1.010742;
234004;-0.012695;0.020508;1.005859;
234154;-0.011719;0.038086;0.995117;
234289;-0.001953;0.035156;1.008789;
234429;-0.008789;0.030273;0.993164;
234579;-0.006836;0.036133;0.983398;
234719;-0.012695;0.035156;1.013672;
234869;-0.006836;0.031250;1.041016;
235011;-0.008789;0.027344;1.071289;
235140;-0.008789;0.028320;1.070312;
235291;-0.000977;0.020508;1.053711;
235430;-0.003906;0.022461;1.068359;
235579;-0.003906;0.020508;1.041016;
235719;-0.003906;0.011719;1.040039;
235850;-0.005859;0.015625;1.065430;
235983;-0.005859;0.019531;1.043945;
236119;-0.003906;0.021484;1.042969;
236269;-0.006836;0.021484;1.031250;
236419;-0.004883;0.030273;1.016602;
236574;-0.010742;0.023438;1.035156;
236724;-0.006836;0.029297;1.051758;
236864;-0.008789;0.041016;1.043945;
237004;-0.011719;0.033203;1.041016;
237154;-0.005859;0.031250;1.046875;
237294;-0.002930;0.031250;1.054688;
237443;-0.005859;0.031250;1.054688;
237583;0.000000;0.012695;1.059570;
237724;-0.005859;0.027344;1.053711;
237874;-0.005859;0.023438;1.049805;
238014;-0.003906;0.011719;1.045898;
238164;-0.004883;0.016602;1.065430;
238304;-0.008789;0.017578;1.051758;
238444;-0.002930;0.013672;1.062500;
238579;-0.005859;0.030273;1.065430;
238709;-0.004883;0.038086;1.066406;
238839;-0.005859;0.023438;1.050781;
238979;-0.006836;0.024414;1.044922;
239129;-0.009766;0.029297;1.035156;
239279;-0.002930;0.024414;1.042969;
239419;-0.009766;0.024414;1.044922;
239564;-0.005859;0.035156;1.044922;
239714;-0.004883;0.025391;1.047852;
239853;-0.003906;0.021484;1.070312;
239994;-0.004883;0.018555;1.074219;
240144;-0.000977;0.027344;1.089844;
240283;-0.005859;0.019531;1.083984;
240424;-0.006836;0.023438;1.087891;
240563;-0.003906;0.026367;1.093750;
240704;-0.002930;0.022461;1.102539;
240844;-0.004883;0.023438;1.093750;
240983;-0.001953;0.031250;1.071289;
241124;-0.006836;0.033203;1.055664;
241264;-0.005859;0.026367;1.053711;
241409;-0.008789;0.023438;1.045898;
241549;-0.006836;0.023438;1.044922;
241700;-0.004883;0.021484;1.035156;
241851;-0.003906;0.022461;1.045898;
241999;-0.009766;0.027344;1.024414;
242149;-0.006836;0.015625;1.007812;
242299;-0.010742;0.024414;1.009766;
242439;-0.007812;0.032227;1.029297;
242579;-0.008789;0.033203;1.024414;
242729;-0.004883;0.022461;1.042969;
242869;-0.007812;0.032227;1.040039;
243024;-0.003906;0.019531;1.043945;
243164;-0.007812;0.025391;1.035156;
243304;-0.004883;0.022461;1.022461;
243444;-0.003906;0.020508;1.040039;
243579;-0.007812;0.019531;1.061523;
243734;-0.005859;0.029297;1.062500;
243873;-0.004883;0.020508;1.058594;
244013;-0.006836;0.015625;1.051758;
244154;-0.004883;0.014648;1.037109;
244289;-0.004883;0.026367;1.057617;
244419;-0.004883;0.019531;1.055664;
244554;-0.002930;0.021484;1.052734;
244694;-0.003906;0.031250;1.047852;
244834;-0.005859;0.026367;1.026367;
244974;-0.007812;0.023438;1.026367;
245109;-0.007812;0.030273;1.042969;
245239;-0.007812;0.027344;1.029297;
245389;-0.005859;0.030273;1.035156;
245529;-0.004883;0.018555;1.045898;
245679;-0.006836;0.026367;1.043945;
245820;-0.002930;0.013672;1.036133;
245949;-0.009766;0.022461;1.052734;
246089;-0.004883;0.018555;1.044922;
246239;-0.003906;0.018555;1.049805;
246389;-0.003906;0.022461;1.043945;
246529;-0.004883;0.027344;1.053711;
246669;-0.002930;0.032227;1.080078;
246809;-0.008789;0.041992;1.081055;
246959;-0.008789;0.049805;1.046875;
247099;0.000977;0.051758;1.086914;
247239;-0.008789;0.023438;1.096680;
247390;-0.001953;0.020508;1.086914;
247529;0.001953;0.012695;1.084961;
247664;-0.004883;0.010742;1.089844;
247790;-0.002930;0.012695;1.090820;
247929;-0.000977;0.023438;1.067383;
248079;0.000977;0.012695;1.064453;
248224;0.001953;0.006836;1.057617;
248373;-0.010742;0.027344;1.030273;
248513;-0.005859;0.007812;1.027344;
248654;-0.007812;0.026367;1.046875;
248789;-0.009766;0.020508;1.020508;
248934;-0.001953;0.029297;1.028320;
249074;-0.003906;0.030273;1.026367;
249224;-0.008789;0.040039;1.000977;
249364;-0.005859;0.031250;0.993164;
249499;-0.009766;0.028320;0.983398;
249653;-0.013672;0.020508;0.943359;
249794;-0.011719;0.020508;0.948242;
249933;-0.002930;0.028320;0.932617;
250070;-0.011719;0.016602;0.911133;
250209;-0.010742;0.019531;0.898438;
250359;-0.010742;0.020508;0.904297;
250499;-0.015625;0.030273;0.908203;
250650;-0.012695;0.025391;0.894531;
250799;-0.005859;0.025391;0.897461;
250949;-0.008789;0.017578;0.912109;
251094;-0.003906;0.020508;0.919922;
251242;-0.013672;0.019531;0.932617;
251379;-0.007812;0.029297;0.958008;
251519;-0.008789;0.034180;0.975586;
251659;-0.007812;0.025391;0.988281;
251789;-0.003906;0.023438;0.993164;
251934;-0.008789;0.023438;1.012695;
252074;-0.007812;0.022461;1.014648;
252214;-0.007812;0.031250;1.039062;
252364;-0.008789;0.029297;1.050781;
252499;-0.001953;0.025391;1.073242;
252644;0.000977;0.023438;1.081055;
252794;0.000000;0.023438;1.100586;
252934;-0.002930;0.021484;1.099609;
253074;-0.001953;0.026367;1.111328;
253214;-0.000977;0.029297;1.119141;
253349;-0.004883;0.023438;1.111328;
253494;0.001953;0.019531;1.105469;
253629;-0.001953;0.021484;1.082031;
253769;-0.004883;0.023438;1.070312;
253899;-0.006836;0.021484;1.053711;
254029;-0.005859;0.020508;1.040039;
254169;-0.004883;0.021484;1.037109;
254319;-0.002930;0.008789;1.002930;
254459;-0.008789;0.016602;0.988281;
254599;-0.010742;0.025391;0.979492;
254749;-0.010742;0.021484;0.949219;
254899;-0.012695;0.022461;0.946289;
255049;-0.009766;0.025391;0.938477;
255200;-0.010742;0.027344;0.947266;
255349;-0.008789;0.025391;0.950195;
255504;-0.008789;0.030273;0.956055;
255654;-0.011719;0.024414;0.958008;
255794;-0.010742;0.030273;0.964844;
255934;-0.015625;0.029297;0.966797;
256069;-0.005859;0.028320;0.994141;
256199;-0.007812;0.020508;0.991211;
256339;-0.005859;0.025391;1.014648;
256483;-0.005859;0.029297;1.027344;
256623;-0.009766;0.030273;1.045898;
256774;-0.007812;0.028320;1.072266;
256909;-0.000977;0.034180;1.089844;
257049;-0.003906;0.021484;1.113281;
257194;-0.000977;0.027344;1.126953;
257334;-0.000977;0.026367;1.121094;
257472;-0.004883;0.027344;1.106445;
257601;-0.003906;0.019531;1.108398;
257739;-0.003906;0.023438;1.090820;
257879;0.000000;0.024414;1.075195;
258019;-0.002930;0.022461;1.065430;
258169;-0.004883;0.022461;1.035156;
258319;-0.005859;0.020508;1.024414;
258459;-0.007812;0.028320;1.002930;
258610;-0.008789;0.037109;0.986328;
258760;-0.009766;0.030273;0.978516;
258909;-0.008789;0.030273;0.974609;
259039;-0.008789;0.027344;0.964844;
259190;-0.010742;0.031250;0.966797;
259324;-0.009766;0.023438;0.968750;
259459;-0.008789;0.030273;0.975586;
259609;-0.010742;0.021484;1.010742;
259754;-0.005859;0.021484;1.029297;
259904;-0.001953;0.026367;1.029297;
260044;-0.002930;0.027344;1.038086;
260184;-0.007812;0.020508;1.033203;
260329;-0.007812;0.024414;1.020508;
260459;-0.006836;0.026367;1.023438;
260589;-0.004883;0.018555;1.028320;
260734;-0.007812;0.010742;1.025391;
260873;-0.003906;0.015625;1.035156;
261014;-0.005859;0.014648;1.013672;
261154;-0.007812;0.024414;1.013672;
261289;-0.007812;0.024414;1.029297;
261429;-0.006836;0.025391;1.030273;
261579;-0.009766;0.025391;1.030273;
261719;-0.004883;0.027344;1.043945;
261859;-0.005859;0.020508;1.037109;
261989;-0.004883;0.023438;1.028320;
262129;-0.008789;0.028320;1.038086;
262269;-0.008789;0.028320;1.041992;
262419;-0.005859;0.023438;1.039062;
262559;-0.005859;0.027344;1.030273;
262689;-0.004883;0.028320;1.010742;
262829;-0.007812;0.017578;1.000000;
262969;-0.009766;0.026367;1.005859;
263114;-0.009766;0.027344;1.006836;
263253;-0.009766;0.025391;0.997070;
263393;-0.005859;0.016602;0.996094;
263534;-0.007812;0.023438;0.987305;
263669;-0.005859;0.017578;0.984375;
263799;-0.011719;0.024414;0.986328;
263939;-0.008789;0.026367;0.997070;
264094;-0.009766;0.027344;0.998047;
264234;-0.005859;0.020508;1.004883;
264374;-0.007812;0.025391;1.007812;
264509;-0.006836;0.022461;1.024414;
264639;-0.000977;0.019531;1.047852;
264779;-0.004883;0.019531;1.046875;
264929;-0.000977;0.024414;1.062500;
265069;-0.002930;0.026367;1.093750;
265219;-0.003906;0.026367;1.090820;
265350;0.002930;0.023438;1.112305;
265489;0.002930;0.025391;1.125000;
265639;-0.000977;0.030273;1.116211;
265789;0.003906;0.027344;1.112305;
265929;0.002930;0.021484;1.119141;
266079;0.001953;0.023438;1.101562;
266219;0.000000;0.029297;1.089844;
266359;-0.001953;0.026367;1.076172;
266509;0.000000;0.028320;1.070312;
266659;-0.001953;0.029297;1.055664;
266800;-0.000977;0.024414;1.042969;
266954;-0.002930;0.029297;1.035156;
267094;-0.003906;0.028320;1.025391;
267234;-0.001953;0.026367;1.007812;
267374;-0.005859;0.025391;1.009766;
267509;-0.007812;0.032227;1.011719;
267649;-0.006836;0.026367;0.999023;
267794;-0.002930;0.026367;0.999023;
267933;-0.006836;0.021484;0.999023;
268073;-0.004883;0.030273;1.009766;
268225;-0.005859;0.031250;1.022461;
268369;-0.003906;0.028320;1.017578;
268514;-0.004883;0.029297;1.021484;
268652;-0.005859;0.030273;1.022461;
268779;-0.005859;0.026367;1.027344;
268909;-0.005859;0.027344;1.000977;
269049;-0.003906;0.025391;1.020508;
269189;-0.003906;0.026367;1.016602;
269339;-0.003906;0.025391;1.024414;
269479;-0.002930;0.028320;1.032227;
269619;-0.003906;0.028320;1.039062;
269769;-0.000977;0.028320;1.034180;
269920;-0.002930;0.021484;1.047852;
270069;-0.004883;0.020508;1.051758;
270209;-0.002930;0.021484;1.061523;
270359;-0.002930;0.018555;1.058594;
270499;-0.000977;0.020508;1.067383;
270649;-0.003906;0.022461;1.089844;
270789;-0.000977;0.022461;1.092773;
270933;-0.002930;0.023438;1.101562;
271074;-0.001953;0.025391;1.093750;
271214;-0.004883;0.025391;1.105469;
271349;-0.003906;0.020508;1.107422;
271494;-0.000977;0.023438;1.090820;
271634;-0.005859;0.021484;1.077148;
271773;-0.008789;0.028320;1.089844;
271924;-0.007812;0.030273;1.091797;
272060;-0.003906;0.032227;1.066406;
272189;-0.005859;0.025391;1.064453;
272324;-0.001953;0.030273;1.056641;
272473;-0.005859;0.034180;1.047852;
272609;-0.005859;0.035156;1.052734;
272754;-0.004883;0.032227;1.049805;
272889;-0.001953;0.028320;1.037109;
273039;-0.005859;0.026367;1.021484;
273190;0.000977;0.022461;1.025391;
273339;0.000977;0.025391;1.026367;
273479;0.002930;0.019531;1.026367;
273633;0.001953;0.020508;1.030273;
273769;0.003906;0.023438;1.042969;
273899;0.004883;0.023438;1.038086;
274039;0.002930;0.021484;1.047852;
274179;0.007812;0.020508;1.042969;
274329;0.010742;0.026367;1.061523;
274480;0.011719;0.021484;1.069336;
274629;0.017578;0.029297;1.083008;
274779;0.019531;0.025391;1.073242;
274929;0.020508;0.025391;1.079102;
275074;0.023438;0.027344;1.065430;
275214;0.026367;0.031250;1.060547;
275354;0.027344;0.025391;1.051758;
275493;0.026367;0.028320;1.038086;
275634;0.026367;0.026367;1.034180;
275774;0.032227;0.027344;1.021484;
275914;0.032227;0.024414;1.017578;
276053;0.031250;0.028320;1.001953;
276194;0.032227;0.023438;0.996094;
276334;0.035156;0.027344;1.003906;
276474;0.037109;0.031250;0.999023;
276609;0.041016;0.024414;1.005859;
276749;0.043945;0.023438;1.011719;
276889;0.046875;0.024414;1.025391;
277039;0.046875;0.030273;1.041992;
277190;0.051758;0.026367;1.041016;
277339;0.054688;0.023438;1.046875;
277489;0.056641;0.027344;1.072266;
277634;0.056641;0.028320;1.060547;
277774;0.061523;0.031250;1.063477;
277914;0.059570;0.028320;1.059570;
278054;0.060547;0.027344;1.054688;
278194;0.061523;0.027344;1.049805;
278334;0.064453;0.029297;1.041992;
278474;0.061523;0.030273;1.041992;
278614;0.063477;0.024414;1.039062;
278764;0.072266;0.024414;1.040039;
278904;0.064453;0.020508;1.039062;
279044;0.071289;0.025391;1.037109;
279193;0.071289;0.025391;1.038086;
279334;0.071289;0.026367;1.025391;
279469;0.075195;0.024414;1.035156;
279619;0.076172;0.034180;1.017578;
279759;0.076172;0.021484;1.012695;
279899;0.077148;0.027344;0.998047;
280043;0.082031;0.031250;1.013672;
280181;0.082031;0.029297;0.999023;
280319;0.081055;0.027344;0.994141;
280459;0.083984;0.029297;0.991211;
280599;0.086914;0.025391;0.967773;
280740;0.085938;0.026367;0.979492;
280893;0.088867;0.027344;0.983398;
281033;0.090820;0.022461;0.960938;
281174;0.088867;0.026367;0.944336;
281314;0.090820;0.022461;0.940430;
281453;0.093750;0.021484;0.959961;
281594;0.093750;0.021484;0.949219;
281743;0.094727;0.019531;0.947266;
281884;0.091797;0.021484;0.931641;
282024;0.090820;0.019531;0.926758;
282164;0.091797;0.024414;0.944336;
282303;0.088867;0.026367;0.955078;
282444;0.093750;0.018555;0.949219;
282584;0.092773;0.019531;0.956055;
282734;0.092773;0.026367;0.971680;
282869;0.092773;0.028320;0.954102;
283009;0.091797;0.023438;0.960938;
283159;0.088867;0.021484;0.983398;
283299;0.089844;0.021484;0.990234;
283439;0.092773;0.022461;0.993164;
283589;0.093750;0.025391;0.990234;
283744;0.094727;0.024414;0.997070;
283884;0.096680;0.023438;0.992188;
284024;0.092773;0.023438;0.967773;
284163;0.090820;0.023438;0.952148;
284304;0.090820;0.021484;0.980469;
284444;0.090820;0.018555;0.967773;
284593;0.090820;0.019531;0.943359;
284733;0.090820;0.017578;0.948242;
284874;0.089844;0.022461;0.930664;
285014;0.089844;0.024414;0.946289;
285154;0.087891;0.021484;0.965820;
285293;0.090820;0.023438;1.000000;
285434;0.090820;0.022461;1.032227;
285583;0.091797;0.024414;1.059570;
285719;0.096680;0.018555;1.091797;
285869;0.097656;0.026367;1.104492;
286019;0.098633;0.027344;1.134766;
286161;0.096680;0.023438;1.141602;
286299;0.098633;0.027344;1.161133;
286439;0.099609;0.021484;1.162109;
286589;0.094727;0.023438;1.137695;
286734;0.094727;0.021484;1.131836;
286874;0.097656;0.019531;1.120117;
287024;0.092773;0.021484;1.101562;
287164;0.092773;0.023438;1.078125;
287304;0.093750;0.022461;1.073242;
287443;0.090820;0.022461;1.068359;
287584;0.090820;0.019531;1.056641;
287734;0.090820;0.022461;1.063477;
287874;0.092773;0.024414;1.063477;
288014;0.090820;0.025391;1.041016;
288153;0.089844;0.024414;1.027344;
288294;0.086914;0.028320;1.031250;
288434;0.088867;0.027344;1.006836;
288573;0.085938;0.023438;1.008789;
288711;0.085938;0.029297;0.980469;
288859;0.085938;0.023438;0.981445;
288989;0.087891;0.027344;0.958984;
289129;0.083008;0.025391;0.965820;
289270;0.083984;0.027344;0.977539;
289420;0.083984;0.018555;0.979492;
289570;0.083008;0.021484;0.980469;
289724;0.087891;0.021484;0.993164;
289864;0.090820;0.024414;0.999023;
290004;0.083008;0.021484;1.008789;
290144;0.086914;0.019531;1.023438;
290293;0.083984;0.022461;1.034180;
290434;0.086914;0.023438;1.047852;
290573;0.087891;0.024414;1.045898;
290714;0.088867;0.030273;1.041016;
290854;0.087891;0.028320;1.036133;
290994;0.086914;0.030273;1.056641;
291134;0.083984;0.024414;1.053711;
291273;0.089844;0.021484;1.065430;
291413;0.086914;0.029297;1.047852;
291554;0.087891;0.027344;1.031250;
291689;0.086914;0.023438;1.021484;
291839;0.084961;0.024414;1.010742;
291980;0.080078;0.023438;1.022461;
292129;0.085938;0.025391;1.024414;
292279;0.083984;0.029297;1.018555;
292419;0.083984;0.023438;1.019531;
292559;0.085938;0.021484;1.004883;
292714;0.084961;0.022461;1.010742;
292854;0.079102;0.019531;1.017578;
292994;0.083008;0.020508;1.021484;
293143;0.083984;0.023438;1.024414;
293284;0.083008;0.021484;1.020508;
293424;0.084961;0.020508;0.999023;
293563;0.081055;0.024414;0.996094;
293703;0.078125;0.021484;0.998047;
293854;0.080078;0.019531;1.024414;
293994;0.081055;0.022461;1.057617;
294134;0.082031;0.020508;1.104492;
294273;0.085938;0.019531;1.209961;
294414;0.084961;0.022461;1.282227;
294554;0.093750;0.025391;1.406250;
294690;0.097656;0.019531;1.478516;
294840;0.104492;0.018555;1.590820;
294980;0.114258;0.020508;1.683594;
295129;0.115234;0.014648;1.727539;
295280;0.123047;0.010742;1.811523;
295430;0.126953;0.010742;1.862305;
295579;0.128906;0.015625;1.896484;
295724;0.131836;0.011719;1.945312;
295864;0.134766;0.014648;1.972656;
296004;0.134766;0.016602;2.006836;
296144;0.139648;0.016602;2.047852;
296294;0.136719;0.015625;2.038086;
296434;0.137695;0.014648;2.029297;
296574;0.134766;0.012695;1.992188;
296714;0.134766;0.016602;1.970703;
296854;0.129883;0.015625;1.928711;
296993;0.127930;0.014648;1.885742;
297134;0.127930;0.012695;1.855469;
297283;0.124023;0.016602;1.825195;
297424;0.125000;0.016602;1.819336;
297564;0.122070;0.017578;1.806641;
297709;0.121094;0.012695;1.797852;
297849;0.123047;0.019531;1.804688;
297989;0.125000;0.020508;1.831055;
298129;0.124023;0.022461;1.850586;
298269;0.125977;0.018555;1.859375;
298409;0.130859;0.024414;1.886719;
298549;0.125000;0.014648;1.890625;
298694;0.128906;0.020508;1.907227;
298834;0.134766;0.011719;1.918945;
298984;0.134766;0.014648;1.922852;
299123;0.135742;0.015625;1.939453;
299264;0.136719;0.016602;1.908203;
299403;0.132812;0.015625;1.894531;
299544;0.129883;0.011719;1.875977;
299684;0.132812;0.018555;1.855469;
299824;0.130859;0.022461;1.849609;
299964;0.125977;0.021484;1.817383;
300114;0.124023;0.017578;1.795898;
300254;0.125977;0.017578;1.785156;
300394;0.122070;0.019531;1.766602;
300544;0.124023;0.020508;1.782227;
300679;0.123047;0.023438;1.791992;
300821;0.127930;0.023438;1.796875;
300969;0.125977;0.020508;1.797852;
301109;0.128906;0.019531;1.798828;
301249;0.130859;0.016602;1.798828;
301379;0.125977;0.016602;1.792969;
301519;0.128906;0.014648;1.795898;
301664;0.130859;0.015625;1.813477;
301813;0.132812;0.019531;1.820312;
301954;0.132812;0.013672;1.809570;
302104;0.133789;0.009766;1.820312;
302244;0.135742;0.004883;1.814453;
302384;0.136719;0.007812;1.816406;
302534;0.135742;0.007812;1.820312;
302674;0.133789;0.012695;1.809570;
302814;0.137695;0.006836;1.828125;
302964;0.136719;0.015625;1.812500;
303103;0.133789;0.014648;1.808594;
303244;0.137695;0.016602;1.807617;
303383;0.136719;0.018555;1.821289;
303524;0.139648;0.020508;1.835938;
303659;0.139648;0.031250;1.834961;
303799;0.139648;0.018555;1.844727;
303939;0.146484;0.025391;1.874023;
304090;0.142578;0.018555;1.855469;
304229;0.144531;0.018555;1.853516;
304359;0.146484;0.013672;1.872070;
304504;0.146484;0.011719;1.861328;
304639;0.144531;0.006836;1.854492;
304790;0.148438;0.011719;1.856445;
304934;0.150391;0.012695;1.849609;
305084;0.150391;0.011719;1.851562;
305223;0.151367;0.022461;1.859375;
305364;0.150391;0.021484;1.847656;
305514;0.151367;0.021484;1.836914;
305654;0.150391;0.024414;1.838867;
305794;0.154297;0.021484;1.829102;
305934;0.152344;0.024414;1.837891;
306073;0.159180;0.019531;1.837891;
306213;0.153320;0.020508;1.839844;
306353;0.157227;0.015625;1.836914;
306494;0.159180;0.021484;1.852539;
306633;0.156250;0.015625;1.849609;
306774;0.164062;0.008789;1.845703;
306909;0.162109;0.007812;1.845703;
307039;0.162109;0.008789;1.841797;
307169;0.166016;0.012695;1.859375;
307299;0.164062;0.012695;1.854492;
307440;0.164062;0.005859;1.835938;
307589;0.168945;0.010742;1.850586;
307729;0.166992;0.005859;1.818359;
307869;0.164062;0.008789;1.820312;
308024;0.165039;0.012695;1.823242;
308164;0.169922;0.015625;1.809570;
308304;0.167969;0.019531;1.823242;
308444;0.166016;0.018555;1.808594;
308583;0.169922;0.019531;1.830078;
308724;0.170898;0.016602;1.819336;
308863;0.172852;0.018555;1.805664;
309004;0.170898;0.019531;1.811523;
309144;0.172852;0.014648;1.814453;
309284;0.172852;0.021484;1.825195;
309424;0.173828;0.015625;1.836914;
309564;0.179688;0.015625;1.837891;
309704;0.181641;0.022461;1.843750;
309844;0.176758;0.023438;1.849609;
309979;0.181641;0.015625;1.846680;
310119;0.184570;0.015625;1.833984;
310259;0.181641;0.017578;1.840820;
310409;0.185547;0.015625;1.851562;
310560;0.186523;0.020508;1.849609;
310694;0.187500;0.017578;1.834961;
310829;0.186523;0.020508;1.833984;
310959;0.187500;0.022461;1.822266;
311109;0.186523;0.017578;1.793945;
311254;0.188477;0.022461;1.805664;
311394;0.191406;0.005859;1.776367;
311533;0.190430;0.009766;1.764648;
311673;0.187500;0.012695;1.760742;
311814;0.187500;0.008789;1.734375;
311954;0.187500;0.012695;1.696289;
312104;0.191406;0.013672;1.702148;
312244;0.188477;0.012695;1.727539;
312384;0.192383;0.007812;1.719727;
312524;0.195312;0.011719;1.726562;
312664;0.197266;0.008789;1.736328;
312804;0.199219;0.010742;1.750000;
312944;0.204102;0.005859;1.767578;
313084;0.208008;0.006836;1.782227;
313229;0.208984;-0.001953;1.794922;
313369;0.210938;0.006836;1.777344;
313499;0.208008;0.008789;1.792969;
313639;0.212891;0.004883;1.775391;
313779;0.211914;0.011719;1.791016;
313909;0.205078;0.006836;1.764648;
314061;0.199219;0.013672;1.768555;
314204;0.199219;0.010742;1.742188;
314344;0.188477;0.012695;1.735352;
314493;0.184570;0.024414;1.741211;
314633;0.172852;0.019531;1.723633;
314774;0.172852;0.028320;1.713867;
314914;0.171875;0.029297;1.739258;
315054;0.160156;0.025391;1.695312;
315193;0.150391;0.018555;1.615234;
315334;0.138672;0.023438;1.516602;
315484;0.117188;0.028320;1.445312;
315624;0.102539;0.030273;1.306641;
315764;0.088867;0.023438;1.208008;
315903;0.066406;0.030273;1.074219;
316044;0.052734;0.018555;0.966797;
316179;0.041992;0.025391;0.816406;
316319;0.026367;0.025391;0.681641;
316449;0.012695;0.026367;0.563477;
316589;0.015625;0.027344;0.494141;
316719;0.014648;0.030273;0.438477;
316860;0.007812;0.033203;0.329102;
316989;0.007812;0.035156;0.280273;
317129;0.000977;0.035156;0.180664;
317284;0.000000;0.033203;0.128906;
317424;-0.000977;0.037109;0.101562;
317564;0.001953;0.028320;0.050781;
317704;0.003906;0.028320;0.028320;
317843;-0.000977;0.032227;0.010742;
317984;0.000977;0.028320;0.001953;
318124;0.001953;0.021484;-0.016602;
318264;-0.002930;0.023438;-0.025391;
318404;0.001953;0.025391;-0.030273;
318554;-0.001953;0.024414;-0.044922;
318694;0.003906;0.026367;-0.024414;
318839;-0.001953;0.029297;-0.025391;
318994;-0.005859;0.032227;-0.027344;
319134;-0.001953;0.034180;-0.010742;
319275;-0.007812;0.037109;-0.008789;
319420;-0.004883;0.036133;-0.004883;
319559;-0.000977;0.035156;0.001953;
319700;-0.005859;0.034180;-0.012695;
319839;-0.008789;0.035156;0.000977;
319989;-0.009766;0.034180;-0.006836;
320139;-0.002930;0.033203;0.006836;
320290;-0.002930;0.031250;0.006836;
320439;-0.006836;0.029297;0.006836;
320580;-0.006836;0.025391;0.013672;
320719;-0.004883;0.028320;0.017578;
320864;-0.008789;0.032227;0.013672;
321014;-0.006836;0.028320;0.021484;
321154;-0.008789;0.033203;0.009766;
321304;-0.008789;0.037109;0.030273;
321444;-0.012695;0.035156;0.013672;
321584;-0.011719;0.031250;0.018555;
321734;-0.012695;0.034180;0.020508;
321874;-0.009766;0.032227;0.018555;
322014;-0.014648;0.033203;0.008789;
322164;-0.012695;0.030273;0.009766;
322299;-0.007812;0.031250;0.016602;
322454;-0.012695;0.029297;0.010742;
322594;-0.012695;0.030273;0.019531;
322734;-0.008789;0.028320;0.025391;
322879;-0.008789;0.028320;0.049805;
323009;-0.014648;0.037109;0.015625;
323149;-0.005859;0.027344;0.024414;
323290;-0.012695;0.027344;0.030273;
323440;-0.014648;0.026367;0.023438;
323579;-0.011719;0.024414;0.018555;
323730;-0.014648;0.032227;0.008789;
323859;-0.014648;0.035156;0.023438;
324004;-0.014648;0.030273;0.028320;
324144;-0.010742;0.031250;0.031250;
324284;-0.011719;0.029297;0.029297;
324424;-0.010742;0.032227;0.025391;
324564;-0.014648;0.031250;0.025391;
324704;-0.016602;0.033203;0.025391;
324844;-0.016602;0.033203;0.035156;
324984;-0.017578;0.027344;0.032227;
325123;-0.015625;0.029297;0.030273;
325263;-0.014648;0.028320;0.039062;
325404;-0.015625;0.025391;0.036133;
325544;-0.015625;0.030273;0.029297;
325684;-0.013672;0.032227;0.022461;
325820;-0.015625;0.030273;0.022461;
325959;-0.016602;0.028320;0.025391;
326110;-0.014648;0.027344;0.034180;
326259;-0.013672;0.026367;0.017578;
326390;-0.014648;0.030273;0.019531;
326539;-0.014648;0.028320;0.016602;
326679;-0.014648;0.025391;0.025391;
326829;-0.011719;0.027344;0.012695;
326959;-0.013672;0.027344;0.013672;
327094;-0.014648;0.026367;0.017578;
327234;-0.016602;0.026367;0.015625;
327374;-0.015625;0.027344;0.017578;
327515;-0.013672;0.024414;0.015625;
327664;-0.015625;0.026367;0.005859;
327804;-0.017578;0.023438;0.015625;
327944;-0.014648;0.029297;0.016602;
328094;-0.015625;0.028320;0.008789;
328229;-0.015625;0.019531;0.016602;
328374;-0.017578;0.028320;0.012695;
328513;-0.015625;0.022461;0.013672;
328653;-0.016602;0.028320;0.017578;
328799;-0.018555;0.023438;0.014648;
328939;-0.017578;0.028320;0.011719;
329089;-0.015625;0.020508;0.011719;
329229;-0.018555;0.025391;0.007812;
329379;-0.016602;0.019531;0.012695;
329529;-0.015625;0.020508;0.019531;
329669;-0.017578;0.024414;0.012695;
329819;-0.019531;0.026367;0.020508;
329964;-0.017578;0.030273;0.020508;
330104;-0.017578;0.030273;0.013672;
330244;-0.017578;0.035156;0.011719;
330393;-0.019531;0.031250;0.010742;
330534;-0.021484;0.030273;0.013672;
330674;-0.018555;0.032227;0.009766;
330809;-0.019531;0.032227;0.007812;
330964;-0.019531;0.030273;0.033203;
331104;-0.016602;0.027344;0.024414;
331243;-0.020508;0.030273;0.023438;
331384;-0.020508;0.025391;0.033203;
331524;-0.021484;0.026367;0.016602;
331664;-0.016602;0.028320;0.028320;
331803;-0.023438;0.031250;0.015625;
331939;-0.021484;0.026367;0.018555;
332089;-0.017578;0.028320;0.028320;
332219;-0.018555;0.029297;0.011719;
332370;-0.019531;0.029297;0.024414;
332519;-0.020508;0.031250;0.014648;
332669;-0.022461;0.028320;0.009766;
332819;-0.028320;0.026367;0.000000;
332950;-0.020508;0.026367;0.009766;
333104;-0.020508;0.026367;0.016602;
333244;-0.021484;0.026367;0.018555;
333394;-0.019531;0.026367;0.024414;
333534;-0.022461;0.029297;0.026367;
333674;-0.022461;0.028320;0.022461;
333824;-0.022461;0.030273;0.021484;
333964;-0.021484;0.027344;0.017578;
334104;-0.023438;0.028320;0.007812;
334254;-0.022461;0.031250;0.006836;
334394;-0.020508;0.033203;0.004883;
334529;-0.023438;0.029297;0.005859;
334674;-0.024414;0.027344;0.009766;
334814;-0.022461;0.028320;0.009766;
334954;-0.023438;0.030273;0.009766;
335089;-0.022461;0.028320;0.009766;
335229;-0.025391;0.026367;0.006836;
335382;-0.025391;0.027344;-0.002930;
335519;-0.025391;0.027344;0.000977;
335659;-0.023438;0.026367;-0.000977;
335804;-0.027344;0.028320;-0.003906;
335939;-0.026367;0.028320;-0.000977;
336089;-0.025391;0.030273;0.000000;
336219;-0.028320;0.029297;-0.003906;
336359;-0.026367;0.029297;-0.000977;
336494;-0.028320;0.029297;0.001953;
336629;-0.028320;0.027344;0.002930;
336771;-0.026367;0.030273;0.005859;
336924;-0.029297;0.030273;0.000000;
337064;-0.028320;0.029297;0.002930;
337204;-0.031250;0.030273;0.005859;
337350;-0.030273;0.033203;0.003906;
337480;-0.029297;0.029297;-0.000977;
337624;-0.028320;0.028320;0.004883;
337764;-0.031250;0.027344;0.015625;
337904;-0.031250;0.027344;0.007812;
338039;-0.030273;0.026367;0.004883;
338194;-0.032227;0.020508;0.002930;
338334;-0.034180;0.023438;0.000000;
338474;-0.032227;0.026367;-0.007812;
338614;-0.032227;0.025391;-0.000977;
338754;-0.034180;0.025391;-0.003906;
338889;-0.034180;0.024414;-0.015625;
339043;-0.032227;0.028320;-0.008789;
339189;-0.035156;0.022461;-0.010742;
339329;-0.035156;0.024414;-0.016602;
339483;-0.034180;0.027344;-0.017578;
339629;-0.037109;0.031250;-0.016602;
339759;-0.038086;0.027344;-0.014648;
339904;-0.036133;0.018555;-0.016602;
340039;-0.035156;0.019531;-0.015625;
340189;-0.036133;0.020508;-0.010742;
340339;-0.038086;0.023438;-0.009766;
340479;-0.041016;0.023438;-0.007812;
340629;-0.041992;0.028320;-0.008789;
340784;-0.040039;0.030273;-0.007812;
340924;-0.047852;0.031250;0.002930;
341064;-0.047852;0.029297;0.020508;
341204;-0.048828;0.032227;0.065430;
341339;-0.049805;0.031250;0.145508;
341484;-0.047852;0.027344;0.237305;
341624;-0.043945;0.029297;0.373047;
341764;-0.040039;0.027344;0.457031;
341903;-0.032227;0.029297;0.565430;
342044;-0.023438;0.026367;0.665039;
342184;-0.012695;0.027344;0.824219;
342323;-0.002930;0.024414;0.927734;
342464;0.009766;0.025391;1.053711;
342604;0.011719;0.024414;1.149414;
342739;0.016602;0.021484;1.263672;
342870;0.021484;0.013672;1.337891;
343009;0.035156;0.021484;1.424805;
343159;0.041992;0.024414;1.500000;
343289;0.048828;0.026367;1.565430;
343440;0.052734;0.025391;1.593750;
343579;0.058594;0.029297;1.628906;
343734;0.065430;0.026367;1.657227;
343869;0.067383;0.019531;1.631836;
344000;0.066406;0.030273;1.644531;
344144;0.063477;0.028320;1.666016;
344284;0.055664;0.035156;1.665039;
344424;0.057617;0.030273;1.666016;
344559;0.055664;0.035156;1.669922;
344714;0.051758;0.026367;1.691406;
344854;0.049805;0.024414;1.689453;
344994;0.051758;0.028320;1.696289;
345134;0.050781;0.026367;1.695312;
345274;0.048828;0.028320;1.709961;
345423;0.049805;0.027344;1.714844;
345564;0.053711;0.023438;1.745117;
345699;0.046875;0.025391;1.750977;
345839;0.052734;0.023438;1.797852;
345990;0.050781;0.028320;1.804688;
346129;0.046875;0.026367;1.820312;
346260;0.053711;0.030273;1.860352;
346390;0.051758;0.031250;1.886719;
346529;0.046875;0.032227;1.900391;
346679;0.049805;0.030273;1.927734;
346834;0.051758;0.026367;1.939453;
346974;0.054688;0.021484;1.955078;
347114;0.055664;0.022461;1.990234;
347253;0.051758;0.021484;2.004883;
347394;0.060547;0.026367;2.012695;
347544;0.060547;0.020508;1.997070;
347683;0.049805;0.043945;2.008789;
347824;0.049805;0.036133;1.964844;
347974;0.046875;0.027344;1.980469;
348114;0.038086;0.032227;1.914062;
348263;0.044922;0.021484;1.919922;
348404;0.038086;0.016602;1.895508;
348544;0.031250;0.015625;1.856445;
348693;0.026367;0.020508;1.770508;
348829;0.012695;0.021484;1.698242;
348959;0.004883;0.015625;1.659180;
349089;-0.002930;0.012695;1.601562;
349224;-0.005859;0.018555;1.552734;
349349;-0.012695;0.015625;1.526367;
349489;-0.014648;0.025391;1.502930;
349639;-0.018555;0.023438;1.477539;
349779;-0.019531;0.027344;1.483398;
349930;-0.022461;0.027344;1.487305;
350084;-0.025391;0.026367;1.486328;
350234;-0.024414;0.024414;1.481445;
350374;-0.025391;0.022461;1.502930;
350514;-0.027344;0.025391;1.514648;
350654;-0.022461;0.019531;1.525391;
350794;-0.022461;0.020508;1.535156;
350934;-0.023438;0.019531;1.552734;
351074;-0.022461;0.016602;1.557617;
351213;-0.020508;0.013672;1.561523;
351354;-0.024414;0.017578;1.567383;
351494;-0.023438;0.019531;1.578125;
351634;-0.024414;0.023438;1.578125;
351774;-0.023438;0.025391;1.603516;
351914;-0.023438;0.033203;1.614258;
352051;-0.026367;0.024414;1.610352;
352189;-0.025391;0.024414;1.616211;
352331;-0.023438;0.020508;1.641602;
352481;-0.024414;0.018555;1.649414;
352619;-0.020508;0.015625;1.656250;
352759;-0.023438;0.016602;1.654297;
352899;-0.022461;0.014648;1.661133;
353034;-0.025391;0.018555;1.656250;
353184;-0.027344;0.015625;1.644531;
353324;-0.026367;0.015625;1.634766;
353464;-0.029297;0.015625;1.632812;
353614;-0.033203;0.017578;1.619141;
353754;-0.033203;0.017578;1.614258;
353894;-0.034180;0.012695;1.617188;
354034;-0.036133;0.017578;1.617188;
354174;-0.036133;0.017578;1.610352;
354313;-0.036133;0.017578;1.631836;
354454;-0.037109;0.014648;1.634766;
354594;-0.038086;0.014648;1.642578;
354734;-0.038086;0.006836;1.649414;
354874;-0.033203;0.009766;1.668945;
355019;-0.034180;0.012695;1.696289;
355169;-0.034180;0.012695;1.708008;
355310;-0.032227;0.021484;1.730469;
355449;-0.034180;0.016602;1.729492;
355589;-0.034180;0.022461;1.738281;
355739;-0.035156;0.023438;1.758789;
355889;-0.034180;0.026367;1.766602;
356044;-0.033203;0.029297;1.766602;
356184;-0.035156;0.026367;1.785156;
356324;-0.036133;0.026367;1.783203;
356464;-0.032227;0.025391;1.786133;
356614;-0.033203;0.023438;1.789062;
356754;-0.032227;0.016602;1.798828;
356894;-0.033203;0.017578;1.803711;
357034;-0.032227;0.020508;1.803711;
357174;-0.032227;0.021484;1.812500;
357323;-0.028320;0.023438;1.833984;
357463;-0.031250;0.019531;1.828125;
357604;-0.035156;0.022461;1.815430;
357754;-0.034180;0.018555;1.817383;
357894;-0.035156;0.021484;1.812500;
358035;-0.034180;0.017578;1.816406;
358169;-0.032227;0.018555;1.808594;
358309;-0.035156;0.017578;1.798828;
358459;-0.038086;0.018555;1.784180;
358599;-0.041016;0.018555;1.774414;
358743;-0.041016;0.017578;1.781250;
358883;-0.036133;0.019531;1.781250;
359033;-0.040039;0.015625;1.788086;
359174;-0.039062;0.014648;1.800781;
359299;-0.037109;0.020508;1.821289;
359449;-0.037109;0.014648;1.830078;
359589;-0.033203;0.017578;1.843750;
359744;-0.036133;0.014648;1.849609;
359883;-0.034180;0.010742;1.848633;
360024;-0.035156;0.012695;1.854492;
360174;-0.035156;0.019531;1.858398;
360314;-0.032227;0.014648;1.863281;
360454;-0.037109;0.011719;1.868164;
360594;-0.033203;0.010742;1.867188;
360733;-0.030273;0.011719;1.881836;
360874;-0.035156;0.011719;1.883789;
361013;-0.034180;0.017578;1.882812;
361154;-0.032227;0.018555;1.870117;
361294;-0.035156;0.013672;1.856445;
361434;-0.036133;0.018555;1.833008;
361574;-0.037109;0.018555;1.812500;
361709;-0.041016;0.018555;1.779297;
361841;-0.041992;0.023438;1.750000;
361980;-0.047852;0.021484;1.715820;
362130;-0.049805;0.021484;1.684570;
362269;-0.054688;0.018555;1.622070;
362409;-0.057617;0.022461;1.570312;
362549;-0.059570;0.021484;1.537109;
362700;-0.063477;0.021484;1.485352;
362854;-0.066406;0.020508;1.450195;
362994;-0.071289;0.018555;1.415039;
363134;-0.071289;0.021484;1.382812;
363273;-0.071289;0.018555;1.357422;
363413;-0.075195;0.018555;1.322266;
363554;-0.077148;0.016602;1.302734;
363693;-0.083984;0.018555;1.258789;
363834;-0.082031;0.019531;1.219727;
363974;-0.084961;0.020508;1.166016;
364114;-0.086914;0.024414;1.131836;
364254;-0.091797;0.021484;1.084961;
364403;-0.088867;0.024414;1.052734;
364544;-0.094727;0.023438;1.015625;
364684;-0.092773;0.027344;1.004883;
364829;-0.096680;0.027344;0.981445;
364971;-0.095703;0.023438;0.974609;
365119;-0.094727;0.020508;0.993164;
365264;-0.094727;0.019531;0.991211;
365389;-0.092773;0.020508;0.997070;
365519;-0.092773;0.022461;1.029297;
365659;-0.090820;0.022461;1.054688;
365790;-0.089844;0.020508;1.079102;
365944;-0.088867;0.026367;1.105469;
366083;-0.089844;0.023438;1.129883;
366224;-0.089844;0.025391;1.160156;
366364;-0.084961;0.026367;1.181641;
366504;-0.087891;0.027344;1.191406;
366644;-0.083984;0.026367;1.223633;
366784;-0.081055;0.030273;1.243164;
366924;-0.082031;0.028320;1.237305;
367064;-0.080078;0.022461;1.242188;
367204;-0.080078;0.022461;1.231445;
367344;-0.080078;0.020508;1.230469;
367484;-0.082031;0.023438;1.211914;
367624;-0.078125;0.020508;1.201172;
367764;-0.075195;0.023438;1.187500;
367899;-0.081055;0.021484;1.162109;
368049;-0.080078;0.020508;1.145508;
368180;-0.080078;0.028320;1.126953;
368329;-0.078125;0.026367;1.123047;
368469;-0.077148;0.024414;1.101562;
368619;-0.075195;0.025391;1.086914;
368774;-0.075195;0.026367;1.084961;
368924;-0.073242;0.025391;1.066406;
369064;-0.071289;0.023438;1.057617;
369204;-0.066406;0.027344;1.045898;
369343;-0.061523;0.023438;1.041016;
369483;-0.061523;0.021484;1.030273;
369623;-0.055664;0.017578;1.021484;
369763;-0.052734;0.016602;1.026367;
369904;-0.046875;0.020508;1.007812;
370044;-0.040039;0.027344;1.017578;
370184;-0.036133;0.021484;1.019531;
370324;-0.025391;0.027344;1.034180;
370464;-0.013672;0.025391;1.048828;
370603;-0.013672;0.024414;1.054688;
370739;-0.003906;0.023438;1.072266;
370889;-0.001953;0.026367;1.092773;
371039;-0.001953;0.025391;1.099609;
371189;0.003906;0.028320;1.133789;
371334;0.003906;0.026367;1.151367;
371469;0.003906;0.029297;1.168945;
371599;0.006836;0.028320;1.195312;
371749;0.006836;0.032227;1.220703;
371899;0.011719;0.026367;1.244141;
372054;0.009766;0.030273;1.262695;
372194;0.019531;0.022461;1.278320;
372334;0.014648;0.027344;1.286133;
372474;0.015625;0.023438;1.270508;
372614;0.011719;0.028320;1.267578;
372754;0.014648;0.027344;1.241211;
372894;0.012695;0.030273;1.218750;
373034;0.012695;0.029297;1.183594;
373173;0.006836;0.022461;1.157227;
373314;0.004883;0.021484;1.094727;
373464;0.006836;0.016602;1.038086;
373604;0.002930;0.015625;1.004883;
373744;0.000000;0.016602;0.959961;
373883;0.003906;0.019531;0.957031;
374019;0.000977;0.020508;0.943359;
374159;0.000977;0.014648;0.914062;
