Time;acc_x;acc_y;acc_z;

12896;0.003906;0.020508;1.030273;
13114;0.000000;0.023438;1.039062;
13264;0.000000;0.020508;1.035156;
13404;-0.004883;0.022461;1.026367;
13544;-0.003906;0.027344;1.039062;
13684;0.001953;0.024414;1.042969;
13824;0.000000;0.022461;1.048828;
13964;0.000000;0.023438;1.029297;
14104;-0.000977;0.022461;1.035156;
14244;-0.000977;0.023438;1.038086;
14384;0.000977;0.025391;1.042969;
14524;-0.002930;0.025391;1.041016;
14664;-0.004883;0.024414;1.033203;
14804;0.000000;0.025391;1.054688;
14944;0.000000;0.020508;1.047852;
15084;-0.001953;0.021484;1.034180;
15224;-0.000977;0.022461;1.039062;
15364;0.002930;0.022461;1.045898;
15500;-0.001953;0.025391;1.044922;
15650;-0.003906;0.022461;1.038086;
15799;-0.002930;0.026367;1.045898;
15949;-0.001953;0.022461;1.049805;
16104;0.000000;0.026367;1.054688;
16244;-0.002930;0.019531;1.042969;
16384;-0.002930;0.021484;1.049805;
16524;-0.000977;0.026367;1.051758;
16659;0.002930;0.021484;1.052734;
16814;0.003906;0.019531;1.056641;
16954;-0.005859;0.021484;1.031250;
17094;-0.002930;0.021484;1.029297;
17234;0.000000;0.021484;1.043945;
17374;0.001953;0.022461;1.041016;
17514;-0.004883;0.020508;1.026367;
17654;-0.004883;0.026367;1.041992;
17804;-0.003906;0.025391;1.050781;
17944;0.000977;0.022461;1.041992;
18079;-0.002930;0.021484;1.038086;
18229;-0.007812;0.025391;1.036133;
18370;0.000000;0.024414;1.044922;
18519;0.003906;0.027344;1.028320;
18669;-0.003906;0.024414;1.023438;
18814;-0.004883;0.027344;1.024414;
18954;0.000977;0.023438;1.018555;
19094;0.001953;0.024414;1.032227;
19234;0.001953;0.023438;1.033203;
19374;-0.005859;0.018555;1.009766;
19514;-0.004883;0.024414;1.013672;
19654;0.000977;0.021484;1.017578;
19794;-0.001953;0.023438;1.012695;
19944;-0.002930;0.021484;1.008789;
20084;-0.003906;0.026367;1.018555;
20224;-0.000977;0.027344;1.016602;
20374;-0.002930;0.025391;1.011719;
20514;-0.003906;0.028320;0.992188;
20654;-0.008789;0.027344;0.992188;
20790;-0.000977;0.027344;1.008789;
20929;-0.002930;0.028320;0.984375;
21079;-0.006836;0.024414;0.962891;
21229;-0.009766;0.025391;0.981445;
21359;-0.001953;0.019531;0.983398;
21500;0.000000;0.020508;0.982422;
21630;-0.004883;0.021484;0.972656;
21784;-0.009766;0.018555;0.982422;
21924;-0.002930;0.019531;0.995117;
22064;0.000977;0.019531;0.991211;
22204;-0.004883;0.023438;0.990234;
22344;-0.004883;0.023438;0.993164;
22484;-0.001953;0.022461;1.006836;
22624;-0.001953;0.022461;0.994141;
22764;-0.004883;0.025391;0.991211;
22904;-0.005859;0.028320;1.005859;
23054;-0.007812;0.028320;1.005859;
23194;0.000977;0.021484;1.011719;
23334;-0.003906;0.024414;1.009766;
23484;-0.002930;0.033203;1.010742;
23624;-0.001953;0.030273;1.016602;
23760;0.000000;0.022461;1.025391;
23891;-0.003906;0.022461;1.014648;
24029;-0.003906;0.025391;1.011719;
24179;-0.003906;0.025391;1.027344;
24330;-0.001953;0.026367;1.033203;
24484;-0.000977;0.024414;1.024414;
24634;-0.004883;0.021484;1.014648;
24774;-0.004883;0.027344;1.022461;
24914;-0.005859;0.026367;1.021484;
25064;0.000977;0.022461;1.024414;
25204;-0.003906;0.023438;1.020508;
25344;-0.004883;0.027344;1.031250;
25484;-0.000977;0.023438;1.029297;
25624;-0.002930;0.021484;1.035156;
25764;-0.003906;0.024414;1.032227;
25914;-0.004883;0.023438;1.022461;
26054;-0.001953;0.020508;1.036133;
26194;-0.000977;0.019531;1.042969;
26334;0.000000;0.023438;1.032227;
26476;-0.004883;0.024414;1.040039;
26629;-0.005859;0.026367;1.062500;
26780;0.003906;0.018555;1.081055;
26929;0.003906;0.016602;1.077148;
27079;-0.000977;0.026367;1.068359;
27244;-0.002930;0.024414;1.071289;
27384;-0.001953;0.024414;1.038086;
27524;0.000000;0.023438;1.033203;
27664;-0.001953;0.020508;1.006836;
27804;-0.005859;0.025391;0.977539;
27944;-0.006836;0.022461;0.954102;
28084;-0.005859;0.019531;0.954102;
28224;-0.001953;0.027344;0.945312;
28364;-0.005859;0.028320;0.943359;
28504;-0.009766;0.024414;0.951172;
28644;0.000000;0.024414;0.977539;
28784;-0.002930;0.021484;0.976562;
28924;-0.010742;0.023438;0.974609;
29064;-0.003906;0.028320;1.000977;
29209;-0.004883;0.022461;1.010742;
29359;-0.001953;0.027344;1.005859;
29500;-0.001953;0.023438;0.995117;
29649;-0.001953;0.026367;0.986328;
29804;-0.008789;0.023438;0.978516;
29944;-0.002930;0.026367;0.986328;
30084;-0.001953;0.025391;0.978516;
30224;-0.007812;0.023438;0.952148;
30364;-0.009766;0.025391;0.946289;
30504;-0.005859;0.019531;0.974609;
30644;-0.003906;0.024414;0.984375;
30794;-0.007812;0.027344;0.978516;
30934;-0.005859;0.018555;0.996094;
31074;-0.004883;0.025391;1.010742;
31214;-0.000977;0.021484;1.040039;
31354;-0.003906;0.024414;1.045898;
31494;-0.002930;0.024414;1.073242;
31634;-0.005859;0.026367;1.085938;
31780;0.003906;0.023438;1.084961;
31931;0.000977;0.020508;1.087891;
32079;-0.001953;0.027344;1.091797;
32239;-0.004883;0.027344;1.076172;
32390;-0.000977;0.026367;1.077148;
32534;0.001953;0.025391;1.099609;
32674;0.002930;0.018555;1.087891;
32814;-0.001953;0.024414;1.079102;
32954;-0.002930;0.022461;1.083008;
33094;0.003906;0.027344;1.085938;
33234;0.003906;0.019531;1.092773;
33374;-0.002930;0.026367;1.099609;
33514;-0.005859;0.034180;1.095703;
33654;0.004883;0.025391;1.125977;
33794;0.000000;0.026367;1.127930;
33934;0.000977;0.020508;1.118164;
34074;0.001953;0.021484;1.123047;
34214;0.002930;0.022461;1.133789;
34354;0.002930;0.024414;1.119141;
34499;0.000977;0.021484;1.099609;
34649;-0.003906;0.024414;1.087891;
34790;0.000000;0.025391;1.092773;
34940;0.000977;0.025391;1.074219;
35090;-0.001953;0.019531;1.050781;
35224;-0.004883;0.024414;1.042969;
35374;-0.003906;0.029297;1.040039;
35514;-0.000977;0.020508;1.023438;
35654;-0.001953;0.021484;1.008789;
35804;-0.007812;0.025391;1.004883;
35944;-0.004883;0.025391;0.984375;
36084;-0.001953;0.019531;0.996094;
36224;-0.003906;0.026367;0.983398;
36364;-0.009766;0.025391;0.966797;
36504;-0.009766;0.030273;0.972656;
36644;-0.005859;0.029297;0.983398;
36784;-0.002930;0.019531;0.984375;
36924;-0.006836;0.016602;0.977539;
37064;-0.009766;0.016602;0.976562;
37200;-0.001953;0.014648;1.004883;
37339;-0.004883;0.017578;0.998047;
37481;-0.008789;0.017578;0.968750;
37619;-0.006836;0.030273;0.983398;
37754;-0.004883;0.021484;0.983398;
37890;-0.007812;0.026367;0.992188;
38039;-0.009766;0.026367;0.980469;
38194;-0.009766;0.029297;0.986328;
38334;-0.006836;0.035156;1.007812;
38484;-0.009766;0.033203;1.005859;
38624;-0.004883;0.028320;1.010742;
38764;-0.000977;0.027344;1.006836;
38914;-0.002930;0.027344;1.012695;
39054;-0.008789;0.029297;1.008789;
39194;-0.006836;0.036133;1.014648;
39344;-0.002930;0.028320;1.017578;
39484;-0.001953;0.022461;1.008789;
39624;-0.003906;0.019531;1.010742;
39764;0.000977;0.023438;1.001953;
39904;0.004883;0.017578;1.002930;
40054;0.003906;0.018555;1.004883;
40179;0.007812;0.026367;1.014648;
40329;0.008789;0.026367;1.011719;
40481;0.016602;0.025391;1.032227;
40629;0.025391;0.026367;1.043945;
40779;0.030273;0.023438;1.047852;
40934;0.034180;0.022461;1.042969;
41074;0.034180;0.024414;1.072266;
41214;0.039062;0.026367;1.081055;
41354;0.042969;0.029297;1.092773;
41494;0.040039;0.027344;1.082031;
41634;0.045898;0.028320;1.070312;
41784;0.045898;0.030273;1.065430;
41934;0.047852;0.027344;1.057617;
42074;0.048828;0.029297;1.043945;
42214;0.057617;0.029297;1.043945;
42354;0.057617;0.026367;1.040039;
42494;0.066406;0.027344;1.062500;
42634;0.075195;0.025391;1.076172;
42774;0.078125;0.021484;1.082031;
42909;0.082031;0.020508;1.097656;
43050;0.085938;0.016602;1.095703;
43199;0.091797;0.019531;1.123047;
43339;0.101562;0.016602;1.113281;
43489;0.102539;0.012695;1.121094;
43640;0.100586;0.020508;1.125000;
43794;0.099609;0.023438;1.126953;
43944;0.099609;0.020508;1.095703;
44094;0.101562;0.027344;1.051758;
44234;0.104492;0.025391;1.028320;
44374;0.101562;0.028320;0.999023;
44524;0.096680;0.029297;0.966797;
44664;0.096680;0.022461;0.943359;
44804;0.091797;0.026367;0.960938;
44944;0.092773;0.032227;0.934570;
45084;0.092773;0.030273;0.935547;
45224;0.089844;0.023438;0.955078;
45364;0.089844;0.026367;0.951172;
45504;0.091797;0.026367;0.946289;
45644;0.093750;0.020508;0.970703;
45790;0.091797;0.019531;0.986328;
45939;0.093750;0.026367;0.991211;
46079;0.093750;0.023438;0.996094;
46230;0.097656;0.030273;1.016602;
46374;0.094727;0.027344;1.034180;
46514;0.092773;0.026367;1.047852;
46654;0.095703;0.017578;1.045898;
46794;0.091797;0.023438;1.039062;
46944;0.095703;0.013672;1.036133;
47084;0.088867;0.021484;1.023438;
47224;0.092773;0.020508;0.999023;
47364;0.090820;0.026367;0.997070;
47504;0.086914;0.018555;0.978516;
47644;0.092773;0.017578;1.000977;
47784;0.095703;0.022461;0.997070;
47924;0.091797;0.018555;1.000000;
48064;0.090820;0.021484;0.993164;
48204;0.087891;0.022461;0.983398;
48339;0.083984;0.021484;0.983398;
48479;0.089844;0.017578;1.000977;
48609;0.089844;0.032227;1.030273;
48740;0.089844;0.030273;1.031250;
48889;0.088867;0.018555;1.025391;
49024;0.088867;0.028320;1.022461;
49164;0.089844;0.016602;1.010742;
49304;0.088867;0.020508;1.006836;
49444;0.088867;0.025391;1.016602;
49584;0.087891;0.026367;1.011719;
49724;0.086914;0.021484;1.004883;
49864;0.087891;0.025391;0.976562;
50014;0.089844;0.023438;0.977539;
50154;0.086914;0.022461;0.961914;
50294;0.084961;0.026367;0.974609;
50434;0.084961;0.027344;0.994141;
50574;0.087891;0.022461;1.011719;
50714;0.087891;0.027344;1.020508;
50854;0.083984;0.023438;1.029297;
50990;0.087891;0.029297;1.035156;
51141;0.085938;0.028320;1.041992;
51300;0.088867;0.026367;1.044922;
51439;0.086914;0.026367;1.074219;
51589;0.084961;0.035156;1.089844;
51729;0.086914;0.035156;1.112305;
51884;0.086914;0.032227;1.117188;
52034;0.088867;0.036133;1.118164;
52174;0.086914;0.026367;1.093750;
52314;0.087891;0.021484;1.086914;
52454;0.087891;0.021484;1.106445;
52594;0.087891;0.020508;1.094727;
52734;0.086914;0.028320;1.107422;
52874;0.087891;0.028320;1.103516;
53014;0.088867;0.022461;1.078125;
53154;0.083984;0.018555;1.072266;
53294;0.084961;0.019531;1.098633;
53434;0.084961;0.024414;1.112305;
53574;0.087891;0.017578;1.089844;
53714;0.085938;0.016602;1.088867;
53849;0.085938;0.019531;1.080078;
53991;0.083984;0.023438;1.076172;
54139;0.085938;0.022461;1.090820;
54269;0.084961;0.024414;1.092773;
54421;0.084961;0.026367;1.091797;
54572;0.084961;0.030273;1.077148;
54719;0.083008;0.022461;1.050781;
54874;0.086914;0.022461;1.045898;
55014;0.081055;0.020508;1.029297;
55154;0.078125;0.026367;1.036133;
55294;0.083008;0.025391;1.038086;
55434;0.082031;0.030273;1.021484;
55574;0.078125;0.024414;1.007812;
55714;0.082031;0.020508;0.994141;
55854;0.078125;0.020508;1.000977;
55994;0.079102;0.030273;1.074219;
56134;0.083008;0.024414;1.164062;
56274;0.084961;0.022461;1.204102;
56414;0.087891;0.027344;1.330078;
56564;0.091797;0.026367;1.411133;
56704;0.097656;0.027344;1.488281;
56840;0.104492;0.023438;1.560547;
56989;0.111328;0.018555;1.633789;
57129;0.113281;0.016602;1.680664;
57279;0.114258;0.022461;1.739258;
57434;0.117188;0.014648;1.761719;
57574;0.119141;0.014648;1.807617;
57714;0.125000;0.015625;1.805664;
57854;0.125000;0.008789;1.826172;
57994;0.117188;0.005859;1.801758;
58134;0.120117;0.015625;1.814453;
58274;0.123047;0.020508;1.826172;
58414;0.125000;0.016602;1.832031;
58554;0.123047;0.018555;1.827148;
58694;0.123047;0.017578;1.856445;
58834;0.124023;0.016602;1.876953;
58974;0.125977;0.022461;1.883789;
59114;0.128906;0.022461;1.914062;
59264;0.127930;0.013672;1.924805;
59400;0.129883;0.015625;1.956055;
59550;0.130859;0.011719;1.952148;
59700;0.134766;0.011719;1.968750;
59849;0.136719;0.012695;1.961914;
60001;0.136719;0.014648;1.945312;
60154;0.132812;0.008789;1.899414;
60294;0.129883;0.006836;1.861328;
60434;0.128906;0.008789;1.837891;
60574;0.125000;0.004883;1.815430;
60714;0.121094;0.012695;1.787109;
60864;0.125977;0.014648;1.797852;
61004;0.122070;0.007812;1.772461;
61144;0.119141;0.020508;1.794922;
61294;0.125977;0.014648;1.802734;
61434;0.124023;0.014648;1.819336;
61574;0.126953;0.019531;1.843750;
61714;0.127930;0.022461;1.842773;
61854;0.125977;0.020508;1.851562;
61994;0.129883;0.024414;1.863281;
62129;0.125977;0.019531;1.867188;
62269;0.130859;0.012695;1.863281;
62419;0.127930;0.007812;1.859375;
62569;0.131836;0.016602;1.878906;
62709;0.129883;0.017578;1.862305;
62864;0.129883;0.016602;1.866211;
63004;0.132812;0.019531;1.857422;
63144;0.131836;0.020508;1.853516;
63284;0.132812;0.016602;1.853516;
63424;0.133789;0.021484;1.846680;
63564;0.128906;0.020508;1.837891;
63704;0.134766;0.020508;1.841797;
63844;0.135742;0.016602;1.838867;
63984;0.136719;0.022461;1.839844;
64124;0.135742;0.013672;1.834961;
64264;0.134766;0.017578;1.845703;
64404;0.134766;0.019531;1.843750;
64544;0.134766;0.018555;1.833984;
64684;0.134766;0.014648;1.833008;
64820;0.134766;0.013672;1.830078;
64962;0.139648;0.011719;1.837891;
65119;0.140625;0.011719;1.826172;
65270;0.140625;0.010742;1.812500;
65410;0.138672;0.008789;1.832031;
65549;0.141602;0.009766;1.821289;
65684;0.140625;0.009766;1.816406;
65824;0.144531;0.008789;1.827148;
65964;0.144531;0.014648;1.844727;
66114;0.146484;0.014648;1.840820;
66254;0.151367;0.013672;1.835938;
66394;0.145508;0.014648;1.846680;
66544;0.150391;0.011719;1.857422;
66684;0.149414;0.011719;1.849609;
66824;0.152344;0.012695;1.855469;
66964;0.155273;0.009766;1.883789;
67104;0.152344;0.012695;1.875977;
67254;0.155273;0.009766;1.873047;
67394;0.159180;0.009766;1.877930;
67534;0.155273;0.010742;1.870117;
67670;0.157227;0.017578;1.881836;
67822;0.158203;0.013672;1.875977;
67974;0.159180;0.015625;1.870117;
68109;0.161133;0.020508;1.851562;
68251;0.159180;0.020508;1.856445;
68399;0.161133;0.017578;1.849609;
68549;0.162109;0.018555;1.848633;
68704;0.161133;0.017578;1.840820;
68854;0.159180;0.009766;1.833984;
68994;0.163086;0.008789;1.838867;
69134;0.165039;0.013672;1.838867;
69284;0.166016;0.013672;1.827148;
69424;0.168945;0.013672;1.834961;
69564;0.166992;0.011719;1.827148;
69704;0.171875;0.014648;1.828125;
69844;0.170898;0.018555;1.835938;
69984;0.170898;0.014648;1.828125;
70124;0.172852;0.016602;1.820312;
70264;0.173828;0.014648;1.835938;
70404;0.170898;0.018555;1.823242;
70554;0.175781;0.013672;1.824219;
70699;0.176758;0.023438;1.832031;
70839;0.175781;0.010742;1.818359;
70980;0.177734;0.014648;1.820312;
71129;0.182617;0.012695;1.823242;
71289;0.178711;0.015625;1.832031;
71444;0.180664;0.006836;1.800781;
71584;0.185547;0.011719;1.837891;
71724;0.186523;0.014648;1.836914;
71864;0.188477;0.019531;1.849609;
72004;0.187500;0.012695;1.848633;
72144;0.193359;0.018555;1.853516;
72284;0.195312;0.014648;1.870117;
72434;0.193359;0.019531;1.865234;
72574;0.197266;0.022461;1.859375;
72714;0.192383;0.024414;1.831055;
72854;0.196289;0.020508;1.813477;
72994;0.199219;0.018555;1.826172;
73134;0.196289;0.016602;1.828125;
73274;0.201172;0.024414;1.832031;
73419;0.202148;0.020508;1.823242;
73571;0.201172;0.010742;1.813477;
73719;0.206055;0.019531;1.817383;
73869;0.207031;0.018555;1.813477;
74014;0.206055;0.020508;1.819336;
74151;0.206055;0.025391;1.808594;
74290;0.206055;0.025391;1.815430;
74434;0.210938;0.022461;1.791016;
74584;0.205078;0.027344;1.745117;
74724;0.201172;0.029297;1.718750;
74864;0.189453;0.028320;1.627930;
75004;0.182617;0.036133;1.556641;
75144;0.178711;0.025391;1.541016;
75294;0.166016;0.016602;1.550781;
75434;0.164062;0.019531;1.522461;
75574;0.160156;0.010742;1.479492;
75714;0.151367;0.017578;1.458984;
75854;0.143555;0.016602;1.466797;
75994;0.138672;0.019531;1.480469;
76134;0.133789;0.015625;1.471680;
76274;0.133789;0.018555;1.473633;
76409;0.129883;0.015625;1.476562;
76549;0.121094;0.011719;1.436523;
76690;0.115234;0.012695;1.409180;
76831;0.109375;0.017578;1.353516;
76970;0.092773;0.014648;1.273438;
77100;0.086914;0.011719;1.176758;
77229;0.066406;0.016602;1.069336;
77374;0.046875;0.015625;0.933594;
77524;0.040039;0.012695;0.827148;
77664;0.034180;0.014648;0.757812;
77804;0.022461;0.020508;0.641602;
77954;0.014648;0.010742;0.570312;
78094;0.014648;0.005859;0.480469;
78230;0.000000;0.017578;0.444336;
78374;0.013672;0.005859;0.404297;
78514;0.001953;0.014648;0.313477;
78654;-0.001953;0.017578;0.240234;
78794;-0.000977;0.018555;0.211914;
78944;-0.000977;0.021484;0.174805;
79084;-0.003906;0.023438;0.129883;
79224;-0.004883;0.021484;0.121094;
79359;-0.006836;0.024414;0.096680;
79509;-0.003906;0.021484;0.074219;
79650;-0.005859;0.022461;0.061523;
79789;-0.000977;0.022461;0.048828;
79940;-0.003906;0.024414;0.033203;
80089;-0.001953;0.020508;0.040039;
80244;-0.004883;0.025391;0.028320;
80384;-0.004883;0.024414;0.016602;
80524;-0.008789;0.025391;0.003906;
80664;-0.010742;0.023438;0.010742;
80804;-0.004883;0.028320;0.010742;
80944;-0.004883;0.030273;0.008789;
81084;-0.009766;0.030273;0.009766;
81224;-0.006836;0.027344;0.018555;
81374;-0.011719;0.030273;0.005859;
81514;-0.007812;0.028320;0.013672;
81664;-0.008789;0.027344;0.019531;
81804;-0.013672;0.032227;0.020508;
81944;-0.007812;0.026367;0.020508;
82084;-0.010742;0.028320;0.016602;
82220;-0.005859;0.027344;0.027344;
82369;-0.010742;0.029297;0.019531;
82519;-0.008789;0.030273;0.015625;
82659;-0.012695;0.033203;0.016602;
82809;-0.010742;0.032227;0.027344;
82961;-0.012695;0.031250;0.011719;
83094;-0.010742;0.033203;0.007812;
83240;-0.008789;0.032227;0.011719;
83384;-0.009766;0.030273;0.010742;
83524;-0.011719;0.032227;0.010742;
83664;-0.014648;0.033203;0.005859;
83804;-0.011719;0.025391;0.008789;
83944;-0.010742;0.030273;0.014648;
84084;-0.009766;0.025391;0.008789;
84234;-0.013672;0.035156;0.017578;
84374;-0.012695;0.026367;0.004883;
84509;-0.010742;0.030273;0.000977;
84654;-0.015625;0.028320;0.000000;
84794;-0.014648;0.022461;0.001953;
84934;-0.016602;0.030273;-0.001953;
85084;-0.012695;0.034180;-0.004883;
85229;-0.014648;0.037109;0.000977;
85379;-0.013672;0.034180;0.003906;
85529;-0.016602;0.036133;0.004883;
85679;-0.013672;0.035156;0.015625;
85829;-0.015625;0.037109;0.009766;
85984;-0.014648;0.035156;0.005859;
86124;-0.015625;0.037109;0.013672;
86264;-0.012695;0.034180;0.022461;
86404;-0.015625;0.029297;0.023438;
86544;-0.016602;0.036133;0.022461;
86684;-0.013672;0.036133;0.019531;
86824;-0.016602;0.036133;0.031250;
86964;-0.011719;0.029297;0.036133;
87104;-0.013672;0.033203;0.034180;
87244;-0.014648;0.033203;0.033203;
87384;-0.013672;0.032227;0.038086;
87534;-0.015625;0.026367;0.038086;
87674;-0.015625;0.029297;0.035156;
87810;-0.012695;0.028320;0.027344;
87950;-0.014648;0.025391;0.028320;
88099;-0.007812;0.021484;0.065430;
88241;-0.016602;0.029297;-0.028320;
88381;-0.014648;0.025391;0.023438;
88531;-0.012695;0.024414;0.028320;
88669;-0.015625;0.023438;0.031250;
88814;-0.015625;0.021484;0.027344;
88954;-0.013672;0.023438;0.025391;
89094;-0.017578;0.024414;0.008789;
89244;-0.014648;0.023438;0.021484;
89384;-0.015625;0.024414;0.020508;
89524;-0.015625;0.027344;0.015625;
89664;-0.016602;0.023438;0.018555;
89804;-0.019531;0.025391;0.013672;
89944;-0.016602;0.025391;0.017578;
90084;-0.015625;0.026367;0.016602;
90224;-0.016602;0.022461;0.018555;
90364;-0.015625;0.025391;0.023438;
90514;-0.017578;0.024414;0.011719;
90654;-0.017578;0.025391;0.019531;
90789;-0.019531;0.026367;0.029297;
90932;-0.016602;0.024414;0.012695;
91069;-0.016602;0.024414;0.018555;
91209;-0.017578;0.023438;0.020508;
91359;-0.014648;0.025391;0.018555;
91510;-0.016602;0.023438;0.011719;
91660;-0.018555;0.023438;0.012695;
91809;-0.017578;0.022461;0.020508;
91964;-0.018555;0.024414;0.016602;
92114;-0.019531;0.025391;0.013672;
92254;-0.020508;0.025391;0.010742;
92394;-0.018555;0.023438;0.014648;
92544;-0.018555;0.024414;0.011719;
92684;-0.018555;0.026367;0.003906;
92824;-0.018555;0.022461;0.003906;
92963;-0.020508;0.023438;0.005859;
93114;-0.017578;0.024414;0.001953;
93264;-0.020508;0.021484;0.006836;
93404;-0.021484;0.020508;-0.001953;
93544;-0.019531;0.020508;0.002930;
93694;-0.019531;0.022461;-0.004883;
93830;-0.020508;0.023438;0.004883;
93981;-0.019531;0.020508;-0.002930;
94124;-0.019531;0.023438;-0.001953;
94264;-0.020508;0.022461;0.005859;
94400;-0.021484;0.021484;0.003906;
94540;-0.023438;0.023438;0.001953;
94680;-0.020508;0.024414;-0.002930;
94809;-0.022461;0.024414;0.004883;
94952;-0.021484;0.023438;0.009766;
95104;-0.022461;0.025391;0.000000;
95244;-0.025391;0.021484;0.001953;
95384;-0.023438;0.023438;0.008789;
95524;-0.021484;0.019531;0.013672;
95664;-0.025391;0.021484;0.018555;
95804;-0.021484;0.021484;0.018555;
95944;-0.024414;0.021484;0.016602;
96084;-0.025391;0.023438;0.010742;
96224;-0.023438;0.026367;0.013672;
96364;-0.024414;0.024414;0.007812;
96504;-0.025391;0.025391;0.008789;
96644;-0.025391;0.024414;0.016602;
96784;-0.023438;0.025391;0.008789;
96924;-0.028320;0.023438;0.007812;
97069;-0.026367;0.024414;0.003906;
97210;-0.028320;0.021484;0.002930;
97359;-0.028320;0.021484;0.002930;
97489;-0.026367;0.017578;0.001953;
97639;-0.029297;0.020508;0.000000;
97779;-0.030273;0.025391;0.001953;
97919;-0.027344;0.025391;0.008789;
98069;-0.031250;0.030273;0.012695;
98214;-0.031250;0.029297;0.022461;
98364;-0.030273;0.029297;0.017578;
98504;-0.032227;0.025391;0.016602;
98644;-0.031250;0.028320;0.024414;
98784;-0.033203;0.026367;0.022461;
98924;-0.032227;0.026367;0.023438;
99074;-0.032227;0.021484;0.018555;
99200;-0.031250;0.025391;0.003906;
99344;-0.032227;0.028320;-0.000977;
99484;-0.034180;0.024414;0.001953;
99624;-0.032227;0.025391;0.012695;
99765;-0.034180;0.028320;0.006836;
99914;-0.033203;0.024414;0.006836;
100051;-0.036133;0.024414;0.005859;
100202;-0.036133;0.022461;0.001953;
100350;-0.036133;0.025391;0.011719;
100501;-0.037109;0.024414;0.012695;
100639;-0.033203;0.025391;0.024414;
100799;-0.036133;0.025391;0.024414;
100949;-0.041992;0.024414;0.026367;
101104;-0.039062;0.026367;0.021484;
101244;-0.038086;0.031250;0.014648;
101384;-0.040039;0.034180;0.011719;
101519;-0.043945;0.030273;0.011719;
101664;-0.041992;0.036133;0.013672;
101804;-0.045898;0.036133;0.005859;
101944;-0.049805;0.041992;0.042969;
102094;-0.050781;0.034180;0.107422;
102234;-0.054688;0.038086;0.166992;
102374;-0.048828;0.033203;0.275391;
102514;-0.040039;0.031250;0.376953;
102654;-0.036133;0.028320;0.506836;
102794;-0.028320;0.027344;0.601562;
102934;-0.015625;0.035156;0.725586;
103080;-0.007812;0.032227;0.839844;
103209;0.004883;0.032227;0.969727;
103359;0.010742;0.032227;1.062500;
103499;0.010742;0.031250;1.169922;
103640;0.015625;0.029297;1.253906;
103779;0.028320;0.031250;1.327148;
103934;0.037109;0.032227;1.390625;
104074;0.039062;0.030273;1.421875;
104214;0.045898;0.031250;1.462891;
104364;0.051758;0.034180;1.494141;
104504;0.057617;0.025391;1.522461;
104644;0.061523;0.034180;1.565430;
104784;0.063477;0.033203;1.602539;
104924;0.066406;0.032227;1.619141;
105066;0.066406;0.025391;1.642578;
105214;0.062500;0.027344;1.656250;
105354;0.065430;0.028320;1.667969;
105494;0.053711;0.026367;1.685547;
105634;0.059570;0.034180;1.695312;
105784;0.058594;0.016602;1.694336;
105919;0.062500;0.021484;1.742188;
106069;0.059570;0.025391;1.732422;
106220;0.051758;0.033203;1.740234;
106361;0.050781;0.031250;1.765625;
106510;0.048828;0.023438;1.783203;
106664;0.055664;0.023438;1.789062;
106804;0.051758;0.018555;1.822266;
106954;0.050781;0.008789;1.838867;
107094;0.053711;0.016602;1.840820;
107234;0.049805;0.014648;1.873047;
107384;0.049805;0.015625;1.918945;
107524;0.056641;0.027344;1.921875;
107664;0.049805;0.024414;1.957031;
107804;0.057617;0.024414;1.998047;
107944;0.056641;0.031250;2.019531;
108094;0.054688;0.029297;2.010742;
108234;0.056641;0.029297;2.041016;
108374;0.050781;0.005859;1.988281;
108514;0.049805;0.022461;1.991211;
108656;0.049805;0.031250;1.976562;
108809;0.047852;0.019531;1.967773;
108950;0.049805;0.030273;1.992188;
109099;0.046875;0.031250;1.952148;
109249;0.041992;0.023438;1.930664;
109384;0.038086;0.022461;1.924805;
109520;0.037109;0.012695;1.905273;
109669;0.031250;0.019531;1.867188;
109824;0.023438;0.017578;1.830078;
109964;0.020508;0.024414;1.807617;
110104;0.017578;0.019531;1.774414;
110244;0.010742;0.028320;1.755859;
110394;0.008789;0.022461;1.740234;
110534;0.003906;0.028320;1.709961;
110674;-0.000977;0.019531;1.665039;
110814;-0.004883;0.023438;1.649414;
110954;0.000000;0.019531;1.664062;
111094;-0.009766;0.023438;1.641602;
111234;-0.003906;0.011719;1.659180;
111374;-0.011719;0.019531;1.653320;
111514;-0.009766;0.017578;1.656250;
111654;-0.010742;0.023438;1.664062;
111789;-0.010742;0.037109;1.663086;
111939;-0.012695;0.034180;1.689453;
112080;-0.004883;0.022461;1.736328;
112219;-0.003906;0.017578;1.762695;
112369;-0.003906;0.014648;1.799805;
112520;-0.001953;0.031250;1.819336;
112674;0.000977;0.024414;1.851562;
112814;0.000000;0.030273;1.878906;
112954;0.001953;0.020508;1.889648;
113104;0.000977;0.021484;1.886719;
113244;0.002930;0.015625;1.907227;
113384;0.000977;0.021484;1.904297;
113524;0.001953;0.014648;1.897461;
113664;-0.000977;0.017578;1.877930;
113804;-0.002930;0.013672;1.869141;
113944;-0.006836;0.012695;1.852539;
114084;-0.009766;0.009766;1.820312;
114224;-0.010742;0.020508;1.809570;
114374;-0.013672;0.012695;1.793945;
114514;-0.014648;0.018555;1.775391;
114649;-0.018555;0.022461;1.763672;
114799;-0.023438;0.024414;1.748047;
114950;-0.017578;0.015625;1.763672;
115099;-0.020508;0.024414;1.768555;
115252;-0.017578;0.015625;1.774414;
115394;-0.018555;0.020508;1.798828;
115534;-0.016602;0.019531;1.820312;
115674;-0.015625;0.022461;1.833984;
115814;-0.015625;0.022461;1.852539;
115964;-0.015625;0.029297;1.856445;
116104;-0.012695;0.025391;1.876953;
116244;-0.017578;0.020508;1.872070;
116384;-0.014648;0.018555;1.870117;
116524;-0.015625;0.020508;1.872070;
116664;-0.017578;0.019531;1.864258;
116804;-0.013672;0.022461;1.863281;
116944;-0.017578;0.025391;1.862305;
117084;-0.021484;0.022461;1.848633;
117224;-0.017578;0.022461;1.841797;
117364;-0.023438;0.018555;1.829102;
117500;-0.023438;0.023438;1.817383;
117630;-0.022461;0.023438;1.811523;
117779;-0.025391;0.024414;1.794922;
117930;-0.027344;0.020508;1.780273;
118079;-0.028320;0.020508;1.764648;
118224;-0.030273;0.021484;1.763672;
118364;-0.032227;0.018555;1.749023;
118514;-0.032227;0.019531;1.747070;
118654;-0.034180;0.018555;1.739258;
118794;-0.034180;0.019531;1.741211;
118944;-0.033203;0.019531;1.727539;
119084;-0.036133;0.019531;1.708008;
119224;-0.040039;0.019531;1.692383;
119364;-0.041992;0.017578;1.656250;
119504;-0.047852;0.021484;1.620117;
119644;-0.050781;0.020508;1.573242;
119784;-0.051758;0.018555;1.529297;
119924;-0.060547;0.013672;1.451172;
120074;-0.064453;0.013672;1.386719;
120209;-0.066406;0.014648;1.322266;
120359;-0.071289;0.015625;1.269531;
120509;-0.078125;0.019531;1.216797;
120661;-0.079102;0.014648;1.162109;
120809;-0.080078;0.021484;1.142578;
120949;-0.082031;0.021484;1.121094;
121094;-0.083984;0.023438;1.104492;
121234;-0.084961;0.026367;1.107422;
121384;-0.087891;0.025391;1.110352;
121524;-0.083984;0.026367;1.118164;
121664;-0.082031;0.024414;1.138672;
121814;-0.081055;0.028320;1.159180;
121954;-0.083984;0.023438;1.166016;
122094;-0.080078;0.026367;1.194336;
122244;-0.081055;0.022461;1.214844;
122384;-0.080078;0.025391;1.234375;
122524;-0.076172;0.025391;1.250977;
122664;-0.080078;0.024414;1.255859;
122804;-0.074219;0.015625;1.267578;
122944;-0.078125;0.018555;1.273438;
123080;-0.076172;0.020508;1.281250;
123230;-0.073242;0.016602;1.271484;
123374;-0.075195;0.016602;1.263672;
123514;-0.077148;0.017578;1.259766;
123651;-0.076172;0.016602;1.240234;
123799;-0.077148;0.018555;1.227539;
123940;-0.080078;0.016602;1.216797;
124090;-0.078125;0.021484;1.211914;
124234;-0.079102;0.021484;1.187500;
124374;-0.082031;0.022461;1.181641;
124514;-0.079102;0.016602;1.171875;
124654;-0.079102;0.026367;1.166992;
124794;-0.084961;0.025391;1.153320;
124934;-0.081055;0.025391;1.154297;
125074;-0.085938;0.024414;1.136719;
125214;-0.083008;0.027344;1.137695;
125364;-0.086914;0.026367;1.129883;
125504;-0.083008;0.020508;1.135742;
125644;-0.084961;0.021484;1.120117;
125794;-0.085938;0.023438;1.148438;
125934;-0.079102;0.019531;1.157227;
126074;-0.081055;0.018555;1.174805;
126210;-0.081055;0.027344;1.204102;
126339;-0.078125;0.022461;1.228516;
126490;-0.075195;0.020508;1.269531;
126639;-0.074219;0.020508;1.288086;
126791;-0.074219;0.023438;1.313477;
126940;-0.075195;0.021484;1.317383;
127084;-0.074219;0.019531;1.313477;
127224;-0.074219;0.018555;1.314453;
127374;-0.072266;0.023438;1.319336;
127514;-0.073242;0.020508;1.311523;
127654;-0.071289;0.020508;1.301758;
127794;-0.074219;0.020508;1.294922;
127934;-0.071289;0.023438;1.290039;
128074;-0.073242;0.019531;1.292969;
128214;-0.074219;0.022461;1.285156;
128354;-0.074219;0.021484;1.284180;
128504;-0.074219;0.022461;1.291016;
128644;-0.075195;0.019531;1.287109;
128784;-0.075195;0.017578;1.289062;
128924;-0.076172;0.021484;1.297852;
129060;-0.071289;0.024414;1.295898;
129210;-0.074219;0.024414;1.295898;
129361;-0.075195;0.022461;1.291992;
129500;-0.076172;0.018555;1.280273;
129649;-0.073242;0.020508;1.272461;
129799;-0.073242;0.021484;1.255859;
129934;-0.074219;0.021484;1.261719;
130084;-0.077148;0.026367;1.233398;
130224;-0.079102;0.024414;1.209961;
130364;-0.075195;0.024414;1.204102;
130514;-0.081055;0.021484;1.174805;
130654;-0.078125;0.018555;1.141602;
130794;-0.083008;0.020508;1.123047;
130934;-0.084961;0.023438;1.095703;
131074;-0.083984;0.017578;1.081055;
131214;-0.088867;0.024414;1.053711;
131354;-0.085938;0.025391;1.039062;
131494;-0.087891;0.025391;1.023438;
131644;-0.084961;0.024414;1.011719;
131784;-0.089844;0.024414;1.006836;
131919;-0.086914;0.023438;1.023438;
132070;-0.083984;0.023438;1.028320;
132212;-0.084961;0.025391;1.036133;
132361;-0.086914;0.026367;1.040039;
132510;-0.083984;0.023438;1.042969;
132664;-0.085938;0.022461;1.059570;
132804;-0.082031;0.026367;1.080078;
132944;-0.083008;0.024414;1.073242;
133084;-0.079102;0.024414;1.090820;
133224;-0.082031;0.021484;1.087891;
133364;-0.082031;0.021484;1.094727;
133514;-0.079102;0.020508;1.084961;
133654;-0.080078;0.019531;1.087891;
133794;-0.079102;0.017578;1.074219;
133944;-0.078125;0.020508;1.073242;
134084;-0.079102;0.022461;1.073242;
134224;-0.077148;0.020508;1.072266;
134374;-0.075195;0.020508;1.066406;
134514;-0.074219;0.017578;1.066406;
134656;-0.073242;0.020508;1.066406;
134800;-0.071289;0.025391;1.065430;
134951;-0.069336;0.023438;1.074219;
135100;-0.069336;0.020508;1.078125;
135250;-0.065430;0.023438;1.078125;
135380;-0.063477;0.021484;1.086914;
135529;-0.062500;0.020508;1.092773;
135684;-0.061523;0.017578;1.106445;
135824;-0.053711;0.018555;1.118164;
135964;-0.051758;0.022461;1.132812;
136104;-0.045898;0.015625;1.179688;
136244;-0.038086;0.022461;1.209961;
136384;-0.031250;0.014648;1.226562;
136524;-0.027344;0.016602;1.238281;
136664;-0.024414;0.015625;1.252930;
136804;-0.020508;0.015625;1.253906;
136944;-0.015625;0.016602;1.263672;
137084;-0.016602;0.016602;1.244141;
137234;-0.019531;0.021484;1.231445;
137374;-0.017578;0.020508;1.225586;
137514;-0.018555;0.023438;1.188477;
137650;-0.018555;0.025391;1.158203;
137799;-0.019531;0.026367;1.133789;
137939;-0.021484;0.029297;1.106445;
138079;-0.019531;0.032227;1.083008;
138230;-0.023438;0.029297;1.047852;
138380;-0.020508;0.026367;1.028320;
138534;-0.020508;0.031250;1.016602;
138674;-0.018555;0.029297;1.009766;
138814;-0.019531;0.019531;0.994141;
138954;-0.018555;0.023438;0.989258;
139104;-0.019531;0.020508;0.991211;
139244;-0.011719;0.020508;0.997070;
139384;-0.014648;0.017578;0.994141;
139524;-0.012695;0.017578;0.993164;
139664;-0.011719;0.019531;1.008789;
139804;-0.009766;0.023438;1.006836;
139944;-0.011719;0.019531;1.010742;
140084;-0.008789;0.026367;1.006836;
140224;-0.009766;0.026367;1.012695;
140364;-0.002930;0.020508;1.007812;
140499;-0.002930;0.017578;1.006836;
140640;0.000977;0.022461;1.023438;
140781;0.000977;0.021484;1.025391;
140921;0.005859;0.022461;1.033203;
141059;0.002930;0.023438;1.041016;
141210;0.009766;0.018555;1.048828;
141359;0.009766;0.027344;1.058594;
141514;0.009766;0.021484;1.069336;
141654;0.010742;0.025391;1.074219;
141794;0.011719;0.021484;1.069336;
141929;0.007812;0.026367;1.083984;
142059;0.010742;0.020508;1.078125;
142204;0.007812;0.026367;1.080078;
142344;0.005859;0.023438;1.068359;
142484;0.005859;0.022461;1.073242;
142620;0.000977;0.025391;1.064453;
142774;0.000977;0.026367;1.066406;
142924;0.001953;0.024414;1.063477;
143064;-0.000977;0.030273;1.058594;
143200;-0.003906;0.031250;1.056641;
143349;-0.002930;0.029297;1.057617;
143506;-0.002930;0.027344;1.048828;
143650;-0.004883;0.032227;1.040039;
143799;-0.002930;0.031250;1.043945;
143940;-0.004883;0.029297;1.046875;
144089;0.000977;0.030273;1.055664;
144239;0.000000;0.025391;1.043945;
144390;-0.001953;0.027344;1.050781;
144531;-0.001953;0.024414;1.050781;
144660;0.003906;0.025391;1.052734;
144811;0.001953;0.014648;1.060547;
144964;0.005859;0.023438;1.061523;
145114;0.000000;0.015625;1.056641;
145254;0.000977;0.024414;1.050781;
145389;0.002930;0.017578;1.068359;
145539;0.002930;0.021484;1.066406;
145694;0.004883;0.019531;1.073242;
145844;-0.002930;0.023438;1.057617;
145984;-0.003906;0.023438;1.062500;
146120;0.000000;0.027344;1.067383;
146269;-0.001953;0.018555;1.070312;
146424;0.003906;0.023438;1.077148;
146560;0.000977;0.021484;1.061523;
146709;0.000000;0.025391;1.082031;
146860;0.001953;0.029297;1.085938;
146989;0.002930;0.023438;1.099609;
147139;-0.000977;0.027344;1.081055;
147271;0.000977;0.027344;1.086914;
147410;-0.002930;0.031250;1.089844;
147550;0.001953;0.028320;1.087891;
147704;0.000977;0.024414;1.095703;
147844;-0.001953;0.021484;1.070312;
147984;-0.003906;0.022461;1.050781;
148124;-0.000977;0.025391;1.056641;
148259;-0.000977;0.019531;1.034180;
148404;-0.000977;0.024414;1.021484;
148544;-0.005859;0.021484;1.000000;
148684;-0.005859;0.024414;1.004883;
148824;-0.000977;0.026367;1.005859;
148974;-0.002930;0.023438;0.982422;
149114;-0.003906;0.026367;0.978516;
149254;-0.003906;0.033203;0.976562;
149384;-0.004883;0.030273;0.983398;
149524;-0.005859;0.024414;0.957031;
149659;-0.007812;0.030273;0.965820;
149809;-0.005859;0.030273;0.967773;
149960;-0.005859;0.026367;0.964844;
150109;-0.006836;0.026367;0.962891;
150249;-0.006836;0.021484;0.954102;
