Time;acc_x;acc_y;acc_z;

376484;-0.008789;0.023438;0.820312;
376708;-0.009766;0.022461;0.847656;
376858;-0.011719;0.022461;0.871094;
376998;-0.009766;0.029297;0.944336;
377138;-0.005859;0.017578;0.983398;
377278;-0.002930;0.023438;1.075195;
377418;-0.002930;0.022461;1.135742;
377558;0.003906;0.020508;1.204102;
377698;0.004883;0.019531;1.261719;
377838;0.008789;0.021484;1.317383;
377978;0.006836;0.020508;1.341797;
378118;0.010742;0.023438;1.381836;
378258;0.012695;0.028320;1.408203;
378398;0.014648;0.018555;1.416016;
378538;0.015625;0.023438;1.429688;
378678;0.015625;0.017578;1.437500;
378818;0.015625;0.020508;1.431641;
378958;0.012695;0.018555;1.421875;
379093;0.016602;0.016602;1.402344;
379243;0.012695;0.019531;1.406250;
379384;0.012695;0.022461;1.386719;
379523;0.012695;0.015625;1.368164;
379653;0.012695;0.024414;1.373047;
379794;0.013672;0.020508;1.344727;
379923;0.010742;0.021484;1.334961;
380068;0.008789;0.017578;1.327148;
380208;0.008789;0.018555;1.312500;
380358;0.007812;0.012695;1.294922;
380498;0.008789;0.010742;1.283203;
380638;0.008789;0.016602;1.265625;
380778;0.002930;0.016602;1.197266;
380918;0.004883;0.013672;1.155273;
381058;-0.000977;0.021484;1.069336;
381198;-0.007812;0.022461;1.015625;
381338;-0.007812;0.030273;0.959961;
381478;-0.011719;0.027344;0.892578;
381618;-0.011719;0.036133;0.866211;
381758;-0.011719;0.029297;0.852539;
381898;-0.016602;0.029297;0.845703;
382034;-0.006836;0.026367;0.865234;
382174;-0.012695;0.018555;0.886719;
382328;-0.010742;0.020508;0.920898;
382474;-0.008789;0.022461;0.959961;
382614;-0.004883;0.019531;0.977539;
382754;-0.008789;0.019531;0.978516;
382898;-0.002930;0.013672;0.999023;
383038;-0.005859;0.016602;1.034180;
383178;-0.005859;0.019531;1.048828;
383318;-0.000977;0.019531;1.075195;
383458;-0.004883;0.023438;1.087891;
383598;-0.002930;0.020508;1.123047;
383738;-0.002930;0.020508;1.141602;
383878;-0.000977;0.022461;1.149414;
384018;0.001953;0.024414;1.170898;
384158;0.003906;0.019531;1.173828;
384298;0.000000;0.029297;1.187500;
384438;0.004883;0.024414;1.191406;
384578;-0.001953;0.024414;1.184570;
384718;-0.000977;0.024414;1.182617;
384864;0.005859;0.016602;1.173828;
385013;-0.004883;0.021484;1.160156;
385153;-0.002930;0.022461;1.158203;
385303;0.000977;0.022461;1.156250;
385454;0.000977;0.028320;1.144531;
385603;0.005859;0.024414;1.155273;
385748;0.001953;0.021484;1.154297;
385888;0.000000;0.023438;1.138672;
386028;0.000000;0.024414;1.142578;
386178;0.000977;0.019531;1.142578;
386318;-0.002930;0.017578;1.129883;
386458;-0.000977;0.021484;1.124023;
386598;0.000000;0.012695;1.111328;
386738;-0.004883;0.016602;1.096680;
386878;0.000977;0.009766;1.103516;
387018;-0.000977;0.016602;1.079102;
387168;-0.003906;0.018555;1.072266;
387308;-0.001953;0.018555;1.068359;
387448;-0.005859;0.023438;1.049805;
387588;0.000977;0.026367;1.066406;
387714;-0.004883;0.024414;1.043945;
387853;-0.002930;0.027344;1.052734;
388003;-0.004883;0.023438;1.044922;
388154;-0.004883;0.022461;1.054688;
388285;-0.006836;0.029297;1.047852;
388433;0.002930;0.022461;1.041992;
388568;-0.009766;0.025391;1.034180;
388708;-0.002930;0.025391;1.057617;
388848;0.000000;0.019531;1.046875;
388988;-0.006836;0.025391;1.046875;
389128;-0.000977;0.024414;1.049805;
389268;-0.004883;0.023438;1.035156;
389408;-0.005859;0.021484;1.045898;
389558;-0.001953;0.022461;1.037109;
389698;-0.004883;0.015625;1.026367;
389838;-0.003906;0.013672;1.029297;
389978;-0.000977;0.021484;1.037109;
390118;-0.004883;0.023438;1.024414;
390258;-0.000977;0.016602;1.016602;
390398;-0.003906;0.017578;0.999023;
390534;-0.005859;0.024414;0.980469;
390674;-0.004883;0.025391;0.961914;
390824;-0.011719;0.024414;0.919922;
390973;-0.007812;0.029297;0.915039;
391118;-0.004883;0.027344;0.900391;
391253;-0.011719;0.028320;0.880859;
391393;-0.006836;0.024414;0.884766;
391538;-0.006836;0.026367;0.885742;
391663;-0.007812;0.019531;0.892578;
391803;-0.007812;0.024414;0.909180;
391943;-0.008789;0.020508;0.904297;
392088;-0.009766;0.026367;0.923828;
392228;-0.005859;0.023438;0.942383;
392368;-0.009766;0.023438;0.953125;
392508;-0.007812;0.023438;0.958984;
392648;-0.008789;0.018555;0.969727;
392788;-0.009766;0.024414;0.970703;
392928;-0.004883;0.020508;0.978516;
393068;-0.007812;0.017578;0.980469;
393208;-0.007812;0.027344;0.985352;
393348;-0.002930;0.022461;0.995117;
393488;-0.008789;0.022461;0.981445;
393628;-0.005859;0.029297;1.000000;
393768;-0.003906;0.026367;1.007812;
393908;-0.005859;0.022461;1.009766;
394043;-0.001953;0.019531;1.025391;
394193;-0.003906;0.023438;1.017578;
394335;-0.003906;0.024414;1.033203;
394486;-0.001953;0.026367;1.042969;
394624;-0.006836;0.025391;1.050781;
394763;-0.003906;0.034180;1.068359;
394913;-0.002930;0.029297;1.074219;
395044;-0.004883;0.028320;1.088867;
395198;-0.000977;0.028320;1.105469;
395338;0.000000;0.026367;1.105469;
395478;-0.001953;0.027344;1.105469;
395618;0.002930;0.022461;1.114258;
395758;0.000977;0.023438;1.110352;
395898;-0.002930;0.020508;1.090820;
396038;0.000977;0.017578;1.070312;
396178;-0.003906;0.018555;1.069336;
396318;-0.004883;0.022461;1.053711;
396458;0.000000;0.020508;1.050781;
396598;-0.007812;0.020508;1.031250;
396748;-0.005859;0.023438;1.030273;
396888;-0.004883;0.020508;1.038086;
397028;-0.003906;0.026367;1.046875;
397184;-0.000977;0.022461;1.038086;
397333;-0.003906;0.020508;1.022461;
397473;-0.005859;0.028320;1.010742;
397613;-0.000977;0.024414;1.000000;
397753;-0.006836;0.023438;0.984375;
397905;-0.008789;0.028320;0.965820;
398045;-0.003906;0.025391;0.954102;
398174;-0.008789;0.029297;0.942383;
398328;-0.008789;0.024414;0.923828;
398478;-0.005859;0.023438;0.914062;
398618;-0.011719;0.028320;0.903320;
398758;-0.006836;0.023438;0.916992;
398898;-0.009766;0.019531;0.920898;
399038;-0.006836;0.020508;0.923828;
399178;-0.005859;0.016602;0.937500;
399318;-0.005859;0.014648;0.942383;
399458;-0.004883;0.020508;0.951172;
399608;-0.002930;0.019531;0.957031;
399748;-0.008789;0.021484;0.958008;
399888;-0.006836;0.017578;0.968750;
400038;-0.004883;0.020508;0.968750;
400178;-0.006836;0.020508;0.981445;
400314;-0.001953;0.024414;0.987305;
400463;-0.006836;0.028320;0.988281;
400594;-0.006836;0.027344;1.012695;
400734;-0.003906;0.029297;1.012695;
400873;-0.003906;0.028320;1.007812;
401024;-0.000977;0.024414;1.017578;
401168;-0.002930;0.024414;1.014648;
401308;-0.004883;0.024414;1.014648;
401448;-0.001953;0.020508;1.013672;
401588;-0.006836;0.027344;1.009766;
401728;-0.003906;0.024414;1.006836;
401868;-0.001953;0.024414;1.016602;
402008;-0.004883;0.026367;1.005859;
402158;-0.002930;0.024414;1.014648;
402298;-0.003906;0.024414;1.011719;
402438;-0.005859;0.025391;1.012695;
402588;0.000000;0.017578;1.017578;
402728;-0.004883;0.021484;1.000977;
402868;-0.003906;0.021484;0.992188;
403008;-0.002930;0.023438;0.985352;
403148;-0.005859;0.028320;0.972656;
403283;-0.004883;0.020508;0.957031;
403423;-0.005859;0.022461;0.940430;
403564;-0.008789;0.022461;0.939453;
403713;-0.006836;0.021484;0.919922;
403863;-0.006836;0.021484;0.906250;
404013;-0.009766;0.026367;0.920898;
404163;-0.005859;0.017578;0.915039;
404318;-0.011719;0.020508;0.902344;
404458;-0.005859;0.020508;0.915039;
404598;-0.007812;0.026367;0.918945;
404738;-0.010742;0.018555;0.914062;
404878;-0.006836;0.023438;0.920898;
405018;-0.004883;0.021484;0.947266;
405158;-0.008789;0.023438;0.950195;
405298;-0.006836;0.019531;0.956055;
405438;-0.005859;0.025391;0.963867;
405578;-0.011719;0.023438;0.985352;
405728;-0.008789;0.013672;0.991211;
405868;-0.012695;0.020508;0.999023;
406008;-0.019531;0.020508;0.998047;
406148;-0.022461;0.023438;1.002930;
406283;-0.020508;0.023438;1.015625;
406417;-0.026367;0.029297;1.005859;
406553;-0.025391;0.031250;1.005859;
406683;-0.027344;0.026367;0.998047;
406827;-0.029297;0.031250;0.992188;
406968;-0.031250;0.031250;0.994141;
407114;-0.029297;0.031250;0.987305;
407253;-0.028320;0.025391;0.966797;
407404;-0.027344;0.022461;0.960938;
407548;-0.029297;0.021484;0.954102;
407688;-0.025391;0.024414;0.960938;
407828;-0.030273;0.017578;0.957031;
407968;-0.026367;0.020508;0.960938;
408108;-0.025391;0.021484;0.960938;
408248;-0.026367;0.021484;0.969727;
408388;-0.026367;0.024414;0.978516;
408528;-0.025391;0.028320;0.986328;
408678;-0.029297;0.027344;0.989258;
408818;-0.024414;0.026367;1.012695;
408958;-0.026367;0.026367;1.039062;
409108;-0.024414;0.029297;1.071289;
409248;-0.023438;0.022461;1.100586;
409388;-0.025391;0.024414;1.129883;
409524;-0.018555;0.021484;1.169922;
409668;-0.014648;0.028320;1.206055;
409818;-0.016602;0.026367;1.227539;
409953;-0.016602;0.033203;1.247070;
410095;-0.015625;0.023438;1.252930;
410223;-0.014648;0.019531;1.267578;
410365;-0.011719;0.023438;1.278320;
410514;-0.013672;0.023438;1.288086;
410663;-0.013672;0.021484;1.275391;
410808;-0.015625;0.018555;1.276367;
410948;-0.013672;0.021484;1.262695;
411098;-0.015625;0.019531;1.253906;
411238;-0.013672;0.019531;1.243164;
411378;-0.013672;0.022461;1.218750;
411518;-0.016602;0.016602;1.196289;
411658;-0.018555;0.031250;1.189453;
411808;-0.018555;0.025391;1.155273;
411948;-0.019531;0.026367;1.140625;
412088;-0.020508;0.031250;1.122070;
412228;-0.023438;0.033203;1.113281;
412368;-0.023438;0.030273;1.107422;
412508;-0.021484;0.028320;1.085938;
412658;-0.026367;0.025391;1.083008;
412793;-0.029297;0.025391;1.063477;
412934;-0.027344;0.027344;1.064453;
413073;-0.028320;0.021484;1.050781;
413213;-0.035156;0.026367;1.030273;
413363;-0.035156;0.024414;1.023438;
413504;-0.036133;0.023438;1.015625;
413648;-0.039062;0.021484;0.996094;
413788;-0.037109;0.027344;0.995117;
413928;-0.041992;0.028320;0.988281;
414068;-0.041992;0.025391;0.991211;
414208;-0.041992;0.032227;0.983398;
414348;-0.043945;0.027344;0.978516;
414488;-0.045898;0.029297;0.993164;
414628;-0.044922;0.034180;0.983398;
414768;-0.043945;0.027344;0.999023;
414908;-0.045898;0.028320;0.981445;
415048;-0.041992;0.030273;1.011719;
415188;-0.044922;0.028320;1.012695;
415328;-0.045898;0.024414;1.039062;
415478;-0.042969;0.025391;1.051758;
415613;-0.042969;0.024414;1.051758;
415764;-0.041992;0.013672;1.057617;
415913;-0.040039;0.019531;1.092773;
416054;-0.040039;0.021484;1.113281;
416193;-0.039062;0.022461;1.123047;
416333;-0.041016;0.028320;1.141602;
416478;-0.042969;0.028320;1.147461;
416618;-0.041992;0.024414;1.141602;
416758;-0.042969;0.023438;1.123047;
416908;-0.041992;0.021484;1.112305;
417048;-0.040039;0.027344;1.102539;
417188;-0.041016;0.021484;1.097656;
417338;-0.041016;0.024414;1.109375;
417478;-0.041016;0.029297;1.124023;
417628;-0.043945;0.027344;1.084961;
417768;-0.039062;0.029297;1.117188;
417908;-0.042969;0.031250;1.091797;
418058;-0.039062;0.035156;1.098633;
418198;-0.043945;0.030273;1.092773;
418338;-0.042969;0.032227;1.102539;
418483;-0.045898;0.031250;1.096680;
418623;-0.041992;0.029297;1.093750;
418773;-0.042969;0.024414;1.092773;
418914;-0.041016;0.025391;1.098633;
419063;-0.041992;0.023438;1.089844;
419215;-0.041992;0.016602;1.071289;
419368;-0.043945;0.020508;1.083008;
419508;-0.040039;0.018555;1.078125;
419658;-0.039062;0.009766;1.077148;
419798;-0.041016;0.021484;1.080078;
419938;-0.039062;0.016602;1.079102;
420088;-0.043945;0.024414;1.094727;
420228;-0.044922;0.027344;1.079102;
420368;-0.038086;0.030273;1.087891;
420518;-0.043945;0.027344;1.103516;
420658;-0.042969;0.028320;1.074219;
420798;-0.037109;0.025391;1.098633;
420938;-0.041992;0.027344;1.084961;
421078;-0.041016;0.027344;1.063477;
421218;-0.037109;0.029297;1.083984;
421353;-0.044922;0.024414;1.044922;
421504;-0.041992;0.023438;1.033203;
421643;-0.041016;0.026367;1.038086;
421788;-0.043945;0.018555;1.030273;
421913;-0.040039;0.016602;1.041016;
422045;-0.037109;0.018555;1.011719;
422193;-0.042969;0.018555;0.998047;
422343;-0.040039;0.020508;1.000977;
422498;-0.042969;0.020508;0.993164;
422638;-0.042969;0.023438;0.955078;
422778;-0.043945;0.023438;0.959961;
422918;-0.046875;0.026367;0.945312;
423058;-0.044922;0.025391;0.952148;
423198;-0.042969;0.023438;0.945312;
423338;-0.045898;0.027344;0.971680;
423478;-0.044922;0.025391;0.970703;
423618;-0.041016;0.034180;0.975586;
423758;-0.044922;0.028320;0.985352;
423898;-0.046875;0.034180;0.965820;
424038;-0.045898;0.029297;0.969727;
424188;-0.043945;0.031250;0.966797;
424328;-0.047852;0.028320;0.941406;
424468;-0.043945;0.029297;0.946289;
424613;-0.047852;0.025391;0.921875;
424764;-0.045898;0.022461;0.904297;
424904;-0.046875;0.028320;0.907227;
425054;-0.042969;0.023438;0.891602;
425204;-0.041016;0.026367;0.904297;
425348;-0.040039;0.024414;0.900391;
425498;-0.031250;0.023438;0.910156;
425638;-0.027344;0.021484;0.933594;
425778;-0.026367;0.021484;0.966797;
425928;-0.022461;0.023438;0.993164;
426068;-0.019531;0.024414;1.042969;
426218;-0.016602;0.020508;1.069336;
426358;-0.009766;0.022461;1.112305;
426498;-0.008789;0.017578;1.136719;
426648;0.000977;0.019531;1.168945;
426788;0.001953;0.026367;1.178711;
426928;-0.000977;0.021484;1.184570;
427068;-0.001953;0.017578;1.171875;
427208;0.001953;0.028320;1.170898;
427343;0.001953;0.028320;1.147461;
427484;-0.000977;0.018555;1.122070;
427623;-0.001953;0.025391;1.089844;
427763;-0.003906;0.029297;1.064453;
427913;-0.003906;0.022461;1.051758;
428043;-0.006836;0.029297;1.041016;
428183;-0.011719;0.031250;1.013672;
428328;-0.012695;0.020508;1.004883;
428468;-0.010742;0.030273;1.003906;
428608;-0.008789;0.030273;1.008789;
428748;-0.012695;0.033203;1.000977;
428888;-0.013672;0.031250;0.990234;
429028;-0.011719;0.031250;0.994141;
429168;-0.013672;0.026367;1.003906;
429308;-0.008789;0.023438;1.014648;
429448;-0.010742;0.030273;1.014648;
429588;-0.008789;0.020508;1.000000;
429728;-0.010742;0.020508;1.000977;
429868;-0.006836;0.020508;0.982422;
430018;-0.006836;0.022461;0.987305;
430158;-0.012695;0.020508;0.976562;
430293;-0.010742;0.020508;0.963867;
430433;-0.008789;0.024414;0.974609;
430573;-0.008789;0.022461;0.975586;
430714;-0.006836;0.020508;0.971680;
430863;-0.008789;0.025391;0.963867;
431003;-0.011719;0.025391;0.958984;
431138;-0.008789;0.024414;0.961914;
431278;-0.008789;0.027344;0.977539;
431428;-0.011719;0.025391;0.971680;
431568;-0.011719;0.033203;0.968750;
431708;-0.012695;0.031250;0.970703;
431848;-0.011719;0.026367;0.991211;
431988;-0.010742;0.027344;0.992188;
432128;-0.013672;0.029297;0.986328;
432268;-0.008789;0.027344;0.986328;
432408;-0.007812;0.031250;0.999023;
432548;-0.008789;0.025391;1.000977;
432688;-0.010742;0.024414;0.990234;
432828;-0.012695;0.025391;0.984375;
432978;-0.013672;0.028320;0.996094;
433113;-0.019531;0.026367;0.999023;
433254;-0.020508;0.021484;1.005859;
433393;-0.017578;0.022461;1.020508;
433533;-0.019531;0.028320;1.039062;
433683;-0.018555;0.022461;1.051758;
433813;-0.018555;0.022461;1.062500;
433956;-0.013672;0.023438;1.085938;
434083;-0.018555;0.024414;1.083984;
434228;-0.016602;0.021484;1.090820;
434368;-0.015625;0.026367;1.077148;
434518;-0.014648;0.025391;1.081055;
434658;-0.018555;0.026367;1.062500;
434798;-0.016602;0.025391;1.052734;
434948;-0.020508;0.024414;1.037109;
435088;-0.020508;0.025391;1.028320;
435228;-0.018555;0.025391;1.017578;
435368;-0.017578;0.024414;1.015625;
435508;-0.023438;0.026367;1.003906;
435648;-0.017578;0.028320;0.984375;
435788;-0.022461;0.026367;0.982422;
435928;-0.021484;0.022461;0.992188;
436078;-0.019531;0.025391;0.998047;
436213;-0.016602;0.023438;1.004883;
436354;-0.020508;0.021484;1.004883;
436497;-0.017578;0.022461;1.002930;
436628;-0.017578;0.022461;0.997070;
436763;-0.019531;0.023438;0.989258;
436903;-0.022461;0.020508;0.976562;
437056;-0.019531;0.023438;0.967773;
437203;-0.019531;0.023438;0.961914;
437358;-0.020508;0.019531;0.954102;
437498;-0.021484;0.021484;0.949219;
437638;-0.020508;0.022461;0.938477;
437778;-0.020508;0.019531;0.938477;
437918;-0.026367;0.032227;0.944336;
438068;-0.028320;0.023438;0.921875;
438208;-0.032227;0.026367;0.927734;
438348;-0.024414;0.023438;0.937500;
438488;-0.032227;0.025391;0.934570;
438628;-0.030273;0.027344;0.929688;
438778;-0.033203;0.026367;0.913086;
438918;-0.030273;0.031250;0.929688;
439058;-0.032227;0.030273;0.936523;
439198;-0.023438;0.024414;0.950195;
439333;-0.029297;0.028320;0.992188;
439483;-0.022461;0.026367;1.027344;
439623;-0.021484;0.024414;1.067383;
439774;-0.017578;0.024414;1.135742;
439913;-0.017578;0.025391;1.161133;
440054;-0.010742;0.022461;1.199219;
440208;-0.013672;0.026367;1.229492;
440348;-0.010742;0.024414;1.237305;
440488;-0.012695;0.022461;1.211914;
440628;-0.015625;0.018555;1.206055;
440768;-0.015625;0.020508;1.183594;
440908;-0.015625;0.020508;1.166992;
441048;-0.014648;0.021484;1.148438;
441188;-0.018555;0.018555;1.123047;
441328;-0.020508;0.022461;1.098633;
441468;-0.019531;0.019531;1.087891;
441608;-0.024414;0.020508;1.073242;
441748;-0.018555;0.023438;1.076172;
441888;-0.017578;0.024414;1.093750;
442028;-0.012695;0.023438;1.102539;
442163;-0.024414;0.025391;1.101562;
442314;-0.019531;0.023438;1.100586;
442463;-0.020508;0.022461;1.090820;
442613;-0.020508;0.027344;1.097656;
442764;-0.020508;0.026367;1.083008;
442904;-0.021484;0.027344;1.073242;
443035;-0.024414;0.024414;1.066406;
443188;-0.017578;0.023438;1.066406;
443328;-0.020508;0.021484;1.049805;
443468;-0.023438;0.024414;1.047852;
443608;-0.023438;0.025391;1.041992;
443748;-0.022461;0.022461;1.043945;
443888;-0.023438;0.024414;1.042969;
444028;-0.020508;0.023438;1.031250;
444168;-0.024414;0.022461;1.022461;
444308;-0.023438;0.023438;1.029297;
444448;-0.026367;0.023438;1.013672;
444588;-0.023438;0.027344;1.000977;
444728;-0.024414;0.024414;0.999023;
444868;-0.025391;0.020508;0.986328;
445008;-0.023438;0.022461;0.984375;
445144;-0.028320;0.021484;0.980469;
445283;-0.023438;0.021484;0.981445;
445415;-0.025391;0.026367;0.975586;
445553;-0.023438;0.026367;0.974609;
445683;-0.026367;0.023438;0.971680;
445814;-0.026367;0.027344;0.969727;
445953;-0.024414;0.030273;0.973633;
446094;-0.024414;0.025391;0.974609;
446248;-0.027344;0.025391;0.973633;
446388;-0.025391;0.026367;0.978516;
446528;-0.022461;0.026367;0.969727;
446668;-0.027344;0.023438;0.970703;
446808;-0.027344;0.026367;0.976562;
446948;-0.026367;0.026367;0.978516;
447088;-0.027344;0.024414;0.990234;
447228;-0.022461;0.025391;0.984375;
447368;-0.026367;0.023438;0.979492;
447508;-0.023438;0.025391;0.987305;
447648;-0.022461;0.024414;0.989258;
447788;-0.021484;0.027344;0.983398;
447928;-0.023438;0.028320;0.993164;
448078;-0.022461;0.024414;0.988281;
448218;-0.021484;0.030273;0.996094;
448353;-0.018555;0.025391;1.000977;
448494;-0.019531;0.025391;0.998047;
448644;-0.020508;0.025391;0.977539;
448794;-0.022461;0.027344;0.996094;
448934;-0.023438;0.029297;0.984375;
449083;-0.018555;0.030273;0.987305;
449223;-0.020508;0.025391;1.000977;
449378;-0.018555;0.023438;0.998047;
449528;-0.014648;0.026367;0.988281;
449668;-0.017578;0.025391;0.991211;
449808;-0.018555;0.024414;0.995117;
449958;-0.018555;0.023438;1.002930;
450098;-0.018555;0.026367;1.017578;
450238;-0.017578;0.029297;1.038086;
450378;-0.016602;0.026367;1.047852;
450518;-0.015625;0.028320;1.068359;
450668;-0.010742;0.022461;1.087891;
450808;-0.012695;0.028320;1.095703;
450948;-0.014648;0.029297;1.110352;
451088;-0.013672;0.029297;1.102539;
451228;-0.015625;0.028320;1.096680;
451363;-0.014648;0.031250;1.104492;
451513;-0.011719;0.027344;1.089844;
451665;-0.008789;0.028320;1.092773;
451794;-0.004883;0.026367;1.093750;
451934;-0.000977;0.023438;1.093750;
452063;0.000977;0.020508;1.085938;
452193;0.004883;0.020508;1.087891;
452348;0.004883;0.024414;1.081055;
452488;0.006836;0.021484;1.085938;
452628;0.009766;0.025391;1.091797;
452778;0.009766;0.027344;1.103516;
452918;0.014648;0.018555;1.098633;
453058;0.013672;0.026367;1.105469;
453208;0.015625;0.024414;1.097656;
453348;0.013672;0.020508;1.091797;
453488;0.014648;0.029297;1.085938;
453628;0.016602;0.023438;1.069336;
453768;0.016602;0.021484;1.074219;
453908;0.018555;0.029297;1.056641;
454048;0.017578;0.027344;1.049805;
454188;0.013672;0.022461;1.060547;
454324;0.017578;0.025391;1.032227;
454473;0.015625;0.030273;1.030273;
454623;0.015625;0.026367;1.031250;
454774;0.019531;0.030273;1.030273;
454923;0.017578;0.032227;1.024414;
455073;0.020508;0.025391;1.020508;
455218;0.021484;0.030273;1.031250;
455358;0.023438;0.025391;1.037109;
455498;0.028320;0.026367;1.043945;
455638;0.029297;0.025391;1.050781;
455778;0.035156;0.025391;1.053711;
455918;0.036133;0.025391;1.060547;
456058;0.037109;0.024414;1.054688;
456198;0.038086;0.020508;1.041992;
456348;0.037109;0.023438;1.042969;
456488;0.041016;0.025391;1.043945;
456638;0.038086;0.025391;1.022461;
456778;0.041992;0.022461;1.022461;
456918;0.040039;0.022461;1.006836;
457068;0.042969;0.022461;1.006836;
457203;0.039062;0.028320;1.006836;
457333;0.041016;0.026367;1.005859;
457473;0.036133;0.031250;0.999023;
457624;0.037109;0.030273;1.002930;
457753;0.041016;0.021484;1.006836;
457893;0.038086;0.018555;1.001953;
458033;0.041016;0.025391;1.015625;
458183;0.044922;0.018555;1.019531;
458338;0.046875;0.021484;1.030273;
458478;0.040039;0.018555;1.040039;
458618;0.040039;0.022461;1.042969;
458758;0.041016;0.022461;1.032227;
458898;0.041016;0.025391;1.038086;
459038;0.044922;0.026367;1.041992;
459178;0.042969;0.022461;1.047852;
459328;0.047852;0.027344;1.041992;
459468;0.048828;0.030273;1.058594;
459608;0.054688;0.037109;1.051758;
459748;0.051758;0.023438;1.049805;
459888;0.060547;0.025391;1.061523;
460038;0.060547;0.016602;1.049805;
460178;0.062500;0.018555;1.057617;
460313;0.069336;0.014648;1.059570;
460454;0.069336;0.017578;1.082031;
460604;0.074219;0.023438;1.076172;
460743;0.077148;0.031250;1.092773;
460883;0.077148;0.025391;1.093750;
461023;0.079102;0.027344;1.109375;
461155;0.087891;0.013672;1.113281;
461298;0.083008;0.028320;1.103516;
461438;0.085938;0.028320;1.083008;
461578;0.088867;0.027344;1.074219;
461718;0.087891;0.025391;1.083008;
461868;0.093750;0.017578;1.078125;
462008;0.091797;0.013672;1.076172;
462148;0.099609;0.019531;1.052734;
462288;0.097656;0.019531;1.050781;
462428;0.091797;0.022461;1.047852;
462568;0.093750;0.017578;1.019531;
462708;0.092773;0.023438;1.011719;
462848;0.094727;0.035156;1.017578;
462998;0.092773;0.034180;0.995117;
463138;0.093750;0.030273;0.984375;
463273;0.094727;0.026367;0.987305;
463413;0.091797;0.020508;0.975586;
463544;0.089844;0.034180;0.962891;
463693;0.093750;0.024414;0.967773;
463834;0.086914;0.027344;0.949219;
463974;0.093750;0.031250;0.931641;
464114;0.090820;0.031250;0.938477;
464268;0.088867;0.021484;0.953125;
464418;0.085938;0.020508;0.935547;
464558;0.088867;0.017578;0.943359;
464698;0.085938;0.021484;0.951172;
464838;0.088867;0.013672;0.953125;
464978;0.088867;0.016602;0.970703;
465128;0.091797;0.011719;0.967773;
465268;0.087891;0.023438;0.949219;
465408;0.090820;0.024414;0.951172;
465548;0.087891;0.026367;0.948242;
465688;0.086914;0.029297;0.966797;
465828;0.087891;0.033203;0.970703;
465968;0.089844;0.035156;0.967773;
466108;0.084961;0.032227;0.956055;
466253;0.085938;0.025391;0.948242;
466394;0.089844;0.034180;0.965820;
466524;0.085938;0.023438;0.961914;
466663;0.088867;0.031250;0.967773;
466813;0.089844;0.019531;0.964844;
466964;0.088867;0.015625;0.962891;
467103;0.086914;0.016602;0.968750;
467248;0.087891;0.019531;0.984375;
467398;0.089844;0.015625;1.012695;
467538;0.088867;0.025391;1.038086;
467688;0.087891;0.025391;1.069336;
467828;0.092773;0.021484;1.094727;
467968;0.093750;0.032227;1.109375;
468118;0.091797;0.023438;1.124023;
468258;0.092773;0.022461;1.147461;
468398;0.093750;0.026367;1.147461;
468538;0.094727;0.028320;1.147461;
468678;0.096680;0.025391;1.164062;
468818;0.089844;0.022461;1.128906;
468958;0.089844;0.021484;1.120117;
469098;0.088867;0.020508;1.116211;
469234;0.089844;0.021484;1.080078;
469374;0.092773;0.021484;1.060547;
469515;0.086914;0.027344;1.021484;
469664;0.089844;0.027344;1.019531;
469803;0.082031;0.025391;1.001953;
469954;0.087891;0.025391;0.997070;
470104;0.083008;0.028320;0.968750;
470248;0.084961;0.021484;0.976562;
470388;0.085938;0.035156;0.970703;
470538;0.083008;0.019531;0.969727;
470678;0.081055;0.020508;0.983398;
470818;0.082031;0.023438;0.978516;
470958;0.082031;0.035156;0.981445;
471098;0.082031;0.024414;0.976562;
471238;0.082031;0.028320;0.972656;
471378;0.079102;0.020508;0.980469;
471518;0.080078;0.015625;0.984375;
471668;0.081055;0.023438;0.988281;
471808;0.085938;0.031250;0.975586;
471948;0.083008;0.016602;0.955078;
472098;0.080078;0.017578;0.951172;
472233;0.084961;0.021484;0.949219;
472383;0.083984;0.021484;0.947266;
472524;0.081055;0.017578;0.951172;
472657;0.083984;0.026367;0.954102;
472803;0.077148;0.022461;0.948242;
472947;0.081055;0.020508;0.961914;
473093;0.079102;0.023438;0.973633;
473244;0.083984;0.025391;0.967773;
473398;0.082031;0.026367;0.966797;
473548;0.078125;0.023438;0.964844;
473688;0.078125;0.024414;1.000977;
473828;0.080078;0.020508;1.086914;
473968;0.083008;0.021484;1.175781;
474108;0.090820;0.024414;1.253906;
474248;0.093750;0.017578;1.378906;
474388;0.097656;0.017578;1.478516;
474528;0.107422;0.015625;1.597656;
474668;0.108398;0.014648;1.664062;
474808;0.120117;0.012695;1.750000;
474948;0.122070;0.006836;1.800781;
475088;0.125977;0.016602;1.863281;
475228;0.128906;0.017578;1.883789;
475363;0.127930;0.021484;1.912109;
475513;0.131836;0.019531;1.933594;
475643;0.131836;0.010742;1.943359;
475798;0.129883;0.011719;1.949219;
475923;0.133789;0.015625;1.956055;
476073;0.130859;0.010742;1.947266;
476213;0.132812;0.016602;1.945312;
476353;0.135742;0.015625;1.928711;
476494;0.129883;0.013672;1.923828;
476648;0.128906;0.011719;1.892578;
476788;0.126953;0.019531;1.873047;
476928;0.122070;0.016602;1.856445;
477068;0.120117;0.018555;1.843750;
477208;0.122070;0.019531;1.839844;
477348;0.123047;0.021484;1.836914;
477488;0.122070;0.015625;1.848633;
477628;0.125977;0.017578;1.858398;
477778;0.122070;0.019531;1.855469;
477918;0.126953;0.024414;1.884766;
478058;0.124023;0.019531;1.880859;
478198;0.131836;0.021484;1.894531;
478338;0.128906;0.016602;1.908203;
478488;0.127930;0.016602;1.915039;
478624;0.129883;0.006836;1.917969;
478764;0.129883;0.017578;1.916016;
478904;0.127930;0.010742;1.915039;
479044;0.133789;0.018555;1.904297;
479178;0.133789;0.014648;1.895508;
479314;0.127930;0.017578;1.877930;
479458;0.126953;0.011719;1.870117;
479583;0.131836;0.012695;1.846680;
479723;0.129883;0.011719;1.855469;
479853;0.127930;0.016602;1.843750;
480008;0.127930;0.014648;1.841797;
480148;0.125000;0.006836;1.821289;
480288;0.129883;0.014648;1.826172;
480438;0.128906;0.018555;1.825195;
480578;0.125977;0.015625;1.840820;
480718;0.131836;0.017578;1.833984;
480858;0.131836;0.017578;1.843750;
480998;0.128906;0.022461;1.838867;
481138;0.128906;0.017578;1.846680;
481278;0.128906;0.018555;1.835938;
481418;0.130859;0.016602;1.845703;
481558;0.129883;0.010742;1.842773;
481708;0.133789;0.018555;1.845703;
481848;0.131836;0.013672;1.857422;
481984;0.134766;0.011719;1.863281;
482116;0.133789;0.011719;1.857422;
482253;0.136719;0.010742;1.853516;
482403;0.137695;0.015625;1.849609;
482555;0.133789;0.015625;1.853516;
482704;0.138672;0.017578;1.852539;
482843;0.139648;0.015625;1.846680;
482993;0.136719;0.013672;1.838867;
483148;0.136719;0.020508;1.832031;
483288;0.138672;0.019531;1.830078;
483428;0.140625;0.022461;1.826172;
483568;0.140625;0.014648;1.836914;
483708;0.145508;0.010742;1.829102;
483858;0.142578;0.005859;1.824219;
483998;0.144531;0.008789;1.826172;
484138;0.140625;0.002930;1.811523;
484278;0.146484;0.000000;1.822266;
484418;0.146484;0.010742;1.837891;
484558;0.144531;0.003906;1.833984;
484698;0.148438;0.004883;1.857422;
484838;0.147461;-0.001953;1.837891;
484988;0.153320;0.002930;1.839844;
485123;0.150391;0.011719;1.845703;
485253;0.148438;0.010742;1.836914;
485393;0.150391;0.024414;1.832031;
485534;0.149414;0.017578;1.832031;
485673;0.151367;0.008789;1.842773;
485818;0.153320;0.014648;1.833008;
485953;0.157227;0.011719;1.842773;
486083;0.153320;0.010742;1.839844;
486213;0.159180;0.012695;1.849609;
486358;0.166016;0.019531;1.860352;
486498;0.161133;0.021484;1.859375;
486638;0.164062;0.012695;1.850586;
486778;0.164062;0.021484;1.870117;
486918;0.162109;0.015625;1.858398;
487058;0.163086;0.017578;1.856445;
487198;0.163086;0.017578;1.850586;
487338;0.164062;0.025391;1.854492;
487478;0.163086;0.015625;1.856445;
487618;0.167969;0.021484;1.848633;
487758;0.167969;0.017578;1.836914;
487898;0.168945;0.020508;1.830078;
488038;0.169922;0.016602;1.827148;
488178;0.170898;0.012695;1.827148;
488313;0.171875;0.012695;1.816406;
488444;0.171875;0.009766;1.823242;
488594;0.176758;0.008789;1.822266;
488723;0.176758;0.013672;1.819336;
488863;0.171875;0.008789;1.815430;
489004;0.180664;0.016602;1.840820;
489144;0.179688;0.019531;1.854492;
489288;0.180664;0.028320;1.865234;
489428;0.187500;0.027344;1.886719;
489568;0.183594;0.016602;1.855469;
489708;0.184570;0.007812;1.853516;
489848;0.184570;0.007812;1.875000;
489988;0.190430;0.020508;1.891602;
490128;0.189453;0.029297;1.894531;
490268;0.189453;0.027344;1.885742;
490408;0.190430;0.022461;1.896484;
490548;0.191406;0.041016;1.884766;
490688;0.190430;0.038086;1.874023;
490828;0.194336;0.041016;1.880859;
490978;0.191406;0.024414;1.880859;
491118;0.197266;0.031250;1.872070;
491253;0.194336;0.017578;1.867188;
491395;0.199219;0.017578;1.848633;
491543;0.199219;0.008789;1.835938;
491693;0.198242;0.000000;1.839844;
491833;0.199219;-0.003906;1.834961;
491974;0.198242;-0.006836;1.830078;
492103;0.203125;-0.009766;1.816406;
492253;0.204102;-0.011719;1.814453;
492408;0.202148;-0.000977;1.798828;
492548;0.203125;0.008789;1.771484;
492688;0.199219;0.014648;1.745117;
492828;0.199219;0.016602;1.717773;
492968;0.198242;0.022461;1.698242;
493108;0.198242;0.022461;1.673828;
493248;0.196289;0.028320;1.668945;
493388;0.199219;0.018555;1.682617;
493528;0.189453;0.014648;1.682617;
493678;0.189453;0.005859;1.667969;
493818;0.186523;0.005859;1.655273;
493958;0.178711;0.012695;1.659180;
494098;0.169922;0.018555;1.647461;
494238;0.166992;0.010742;1.639648;
494373;0.159180;0.019531;1.623047;
494513;0.154297;0.022461;1.625000;
494645;0.149414;0.021484;1.616211;
494784;0.140625;0.018555;1.570312;
494924;0.126953;0.023438;1.506836;
495063;0.117188;0.019531;1.431641;
495193;0.109375;0.009766;1.385742;
495338;0.090820;0.020508;1.270508;
495478;0.079102;0.021484;1.158203;
495618;0.058594;0.028320;1.055664;
495758;0.044922;0.039062;0.920898;
495898;0.041016;0.037109;0.840820;
496038;0.030273;0.039062;0.724609;
496188;0.015625;0.039062;0.635742;
496328;0.011719;0.041016;0.529297;
496478;0.011719;0.038086;0.426758;
496618;0.005859;0.037109;0.369141;
496758;0.001953;0.031250;0.270508;
496908;0.000000;0.030273;0.221680;
497048;-0.002930;0.032227;0.176758;
497188;0.001953;0.031250;0.129883;
497324;-0.000977;0.031250;0.109375;
497464;-0.000977;0.029297;0.091797;
497615;-0.000977;0.033203;0.083008;
497755;-0.000977;0.025391;0.058594;
497894;-0.004883;0.029297;0.047852;
498048;-0.000977;0.031250;0.043945;
498193;-0.002930;0.030273;0.046875;
498343;-0.004883;0.027344;0.026367;
498494;-0.000977;0.029297;0.024414;
498638;-0.003906;0.028320;0.033203;
498788;-0.011719;0.032227;0.018555;
498928;-0.002930;0.032227;0.033203;
499068;-0.003906;0.029297;0.036133;
499203;-0.012695;0.029297;0.016602;
499337;-0.007812;0.034180;0.018555;
499488;-0.008789;0.033203;0.034180;
499628;-0.005859;0.026367;0.022461;
499768;-0.009766;0.028320;0.013672;
499908;-0.009766;0.030273;0.010742;
500044;-0.007812;0.032227;0.006836;
500188;-0.008789;0.026367;0.007812;
500338;-0.011719;0.028320;0.012695;
500474;-0.009766;0.026367;0.001953;
500604;-0.011719;0.024414;0.009766;
500754;-0.011719;0.024414;0.008789;
500894;-0.011719;0.025391;0.000977;
501023;-0.012695;0.027344;-0.005859;
501163;-0.011719;0.019531;-0.001953;
501313;-0.014648;0.018555;0.000000;
501453;-0.008789;0.020508;0.002930;
501603;-0.013672;0.019531;0.005859;
501758;-0.008789;0.018555;0.014648;
501898;-0.009766;0.019531;0.000000;
502038;-0.013672;0.024414;-0.004883;
502184;-0.010742;0.022461;0.003906;
502328;-0.012695;0.020508;0.011719;
502478;-0.013672;0.018555;0.009766;
502618;-0.013672;0.018555;0.013672;
502758;-0.012695;0.021484;0.026367;
502908;-0.014648;0.023438;0.018555;
503048;-0.014648;0.026367;0.018555;
503188;-0.012695;0.025391;0.033203;
503328;-0.013672;0.020508;0.019531;
503468;-0.014648;0.018555;0.025391;
503620;-0.012695;0.015625;0.022461;
503754;-0.011719;0.013672;0.017578;
503903;-0.016602;0.020508;0.017578;
504043;-0.012695;0.018555;0.025391;
504193;-0.038086;0.020508;-0.056641;
504343;-0.018555;0.020508;0.039062;
504484;-0.015625;0.023438;0.021484;
504618;-0.017578;0.027344;0.028320;
504758;-0.021484;0.030273;0.030273;
504908;-0.017578;0.026367;0.033203;
505048;-0.016602;0.026367;0.040039;
505188;-0.016602;0.025391;0.039062;
505338;-0.014648;0.026367;0.039062;
505478;-0.017578;0.027344;0.031250;
505618;-0.016602;0.033203;0.028320;
505768;-0.016602;0.029297;0.030273;
505908;-0.017578;0.029297;0.026367;
506048;-0.018555;0.026367;0.027344;
506188;-0.019531;0.034180;0.028320;
506328;-0.017578;0.033203;0.025391;
506468;-0.016602;0.032227;0.021484;
506603;-0.018555;0.028320;0.018555;
506753;-0.014648;0.032227;0.015625;
506883;-0.016602;0.031250;0.014648;
507023;-0.015625;0.026367;0.011719;
507153;-0.016602;0.030273;0.013672;
507305;-0.017578;0.030273;0.007812;
507454;-0.016602;0.029297;0.008789;
507605;-0.016602;0.029297;0.008789;
507754;-0.015625;0.031250;0.003906;
507883;-0.018555;0.029297;-0.002930;
508038;-0.017578;0.031250;0.006836;
508178;-0.018555;0.032227;0.001953;
508318;-0.017578;0.029297;0.006836;
508458;-0.017578;0.029297;0.003906;
508598;-0.016602;0.030273;0.008789;
508738;-0.016602;0.027344;0.000000;
508878;-0.018555;0.029297;0.001953;
509028;-0.016602;0.031250;0.002930;
509168;-0.019531;0.032227;0.002930;
509308;-0.016602;0.030273;0.004883;
509448;-0.018555;0.026367;0.006836;
509588;-0.017578;0.030273;0.009766;
509728;-0.018555;0.031250;0.004883;
509868;-0.018555;0.027344;0.012695;
509993;-0.017578;0.028320;0.020508;
510143;-0.018555;0.029297;0.013672;
510293;-0.017578;0.029297;0.012695;
510443;-0.021484;0.028320;0.020508;
510583;-0.018555;0.029297;0.014648;
510724;-0.018555;0.027344;0.025391;
510874;-0.019531;0.031250;0.023438;
511018;-0.017578;0.028320;0.020508;
511158;-0.019531;0.031250;0.020508;
511298;-0.023438;0.032227;0.022461;
511438;-0.020508;0.029297;0.018555;
511588;-0.020508;0.029297;0.025391;
511728;-0.020508;0.030273;0.022461;
511868;-0.020508;0.031250;0.030273;
512018;-0.020508;0.027344;0.025391;
512158;-0.021484;0.031250;0.024414;
512298;-0.022461;0.029297;0.019531;
512438;-0.021484;0.025391;0.021484;
512578;-0.019531;0.031250;0.023438;
512718;-0.021484;0.029297;0.019531;
512854;-0.021484;0.028320;0.023438;
512994;-0.022461;0.028320;0.020508;
513133;-0.022461;0.032227;0.019531;
513284;-0.023438;0.026367;0.025391;
513413;-0.021484;0.026367;0.020508;
513554;-0.021484;0.030273;0.019531;
513684;-0.022461;0.027344;0.016602;
513828;-0.022461;0.028320;0.019531;
513978;-0.022461;0.028320;0.010742;
514118;-0.021484;0.027344;0.016602;
514258;-0.022461;0.028320;0.011719;
514408;-0.023438;0.027344;0.013672;
514558;-0.022461;0.027344;0.008789;
514698;-0.024414;0.025391;0.014648;
514848;-0.024414;0.028320;0.017578;
514988;-0.022461;0.030273;0.021484;
515114;-0.024414;0.036133;0.017578;
515258;-0.029297;0.041016;0.030273;
515398;-0.026367;0.039062;0.011719;
515548;-0.023438;0.036133;0.009766;
515683;-0.026367;0.034180;0.012695;
515833;-0.026367;0.036133;0.005859;
515973;-0.026367;0.041016;-0.002930;
516103;-0.028320;0.038086;0.000977;
516238;-0.027344;0.041016;0.010742;
516374;-0.027344;0.035156;0.000000;
516513;-0.025391;0.038086;0.014648;
516653;-0.030273;0.034180;0.020508;
516794;-0.027344;0.041016;0.007812;
516933;-0.029297;0.041992;-0.016602;
517084;-0.030273;0.037109;-0.004883;
517238;-0.030273;0.039062;-0.010742;
517378;-0.030273;0.039062;0.002930;
517518;-0.031250;0.041016;-0.000977;
517658;-0.025391;0.035156;0.002930;
517794;-0.030273;0.041016;0.001953;
517948;-0.033203;0.041992;-0.008789;
518088;-0.031250;0.045898;-0.004883;
518228;-0.030273;0.046875;0.000977;
518363;-0.033203;0.038086;-0.001953;
518508;-0.030273;0.040039;-0.011719;
518648;-0.032227;0.039062;-0.018555;
518788;-0.033203;0.038086;-0.009766;
518928;-0.032227;0.033203;-0.027344;
519068;-0.033203;0.032227;-0.006836;
519204;-0.034180;0.034180;-0.011719;
519354;-0.034180;0.025391;-0.001953;
519493;-0.034180;0.025391;-0.000977;
519643;-0.036133;0.028320;0.011719;
519783;-0.037109;0.023438;0.005859;
519923;-0.037109;0.023438;0.008789;
520053;-0.041016;0.025391;0.023438;
520208;-0.038086;0.024414;0.022461;
520348;-0.039062;0.021484;0.024414;
520488;-0.041992;0.018555;0.038086;
520638;-0.043945;0.021484;0.050781;
520778;-0.049805;0.019531;0.077148;
520918;-0.046875;0.023438;0.125977;
521058;-0.044922;0.019531;0.194336;
521198;-0.045898;0.019531;0.274414;
521338;-0.037109;0.021484;0.374023;
521488;-0.038086;0.016602;0.489258;
521628;-0.027344;0.022461;0.582031;
521768;-0.020508;0.019531;0.711914;
521908;-0.010742;0.021484;0.826172;
522048;-0.000977;0.017578;0.947266;
522183;0.006836;0.016602;1.041992;
522324;0.009766;0.014648;1.154297;
522464;0.015625;0.019531;1.223633;
522603;0.022461;0.023438;1.297852;
522743;0.031250;0.022461;1.341797;
522884;0.034180;0.029297;1.390625;
523013;0.041992;0.021484;1.428711;
523153;0.049805;0.022461;1.462891;
523303;0.053711;0.021484;1.498047;
523448;0.061523;0.013672;1.539062;
523588;0.058594;0.022461;1.544922;
523728;0.056641;0.028320;1.566406;
523868;0.054688;0.031250;1.582031;
524008;0.053711;0.035156;1.618164;
524148;0.051758;0.036133;1.655273;
524288;0.055664;0.033203;1.670898;
524428;0.050781;0.031250;1.699219;
524568;0.051758;0.030273;1.710938;
524708;0.050781;0.029297;1.734375;
524858;0.053711;0.034180;1.759766;
524998;0.058594;0.034180;1.791016;
525138;0.054688;0.021484;1.813477;
525278;0.062500;0.012695;1.834961;
525414;0.054688;0.020508;1.868164;
525544;0.057617;0.029297;1.887695;
525673;0.063477;0.030273;1.878906;
525814;0.050781;0.038086;1.896484;
525964;0.052734;0.022461;1.867188;
526103;0.045898;0.026367;1.895508;
526254;0.040039;0.017578;1.873047;
526394;0.052734;0.031250;1.896484;
526548;0.049805;0.025391;1.858398;
526688;0.045898;0.020508;1.852539;
526828;0.046875;0.021484;1.861328;
526968;0.046875;0.024414;1.847656;
527108;0.043945;0.011719;1.830078;
527248;0.039062;0.007812;1.822266;
527398;0.040039;0.015625;1.848633;
527538;0.041016;0.012695;1.853516;
527678;0.037109;0.014648;1.858398;
527818;0.041016;0.016602;1.876953;
527958;0.039062;0.022461;1.893555;
528098;0.041016;0.025391;1.898438;
528238;0.036133;0.029297;1.897461;
528378;0.039062;0.031250;1.897461;
528515;0.032227;0.038086;1.894531;
528653;0.032227;0.031250;1.906250;
528804;0.032227;0.030273;1.897461;
528953;0.030273;0.024414;1.890625;
529093;0.031250;0.028320;1.894531;
529243;0.030273;0.014648;1.892578;
529388;0.027344;0.011719;1.881836;
529528;0.027344;-0.008789;1.872070;
529668;0.025391;-0.000977;1.848633;
529808;0.023438;-0.002930;1.847656;
529948;0.017578;0.006836;1.836914;
530088;0.019531;0.001953;1.831055;
530228;0.014648;0.012695;1.812500;
530368;0.009766;0.012695;1.825195;
530508;0.008789;0.012695;1.813477;
530648;0.014648;0.011719;1.812500;
530788;0.006836;0.012695;1.810547;
530928;0.009766;0.008789;1.818359;
531068;0.011719;0.011719;1.828125;
531208;0.007812;0.015625;1.830078;
531343;0.004883;0.017578;1.842773;
531483;0.006836;0.018555;1.833984;
531633;0.004883;0.026367;1.846680;
531778;0.004883;0.022461;1.848633;
531913;0.003906;0.019531;1.842773;
532054;0.004883;0.023438;1.843750;
532184;0.000977;0.022461;1.847656;
532334;0.000977;0.019531;1.845703;
532488;0.002930;0.021484;1.849609;
532628;0.000977;0.018555;1.853516;
532768;0.001953;0.022461;1.861328;
532908;0.000977;0.020508;1.868164;
533048;-0.000977;0.022461;1.866211;
533188;-0.003906;0.022461;1.871094;
533328;-0.000977;0.024414;1.877930;
533468;-0.001953;0.024414;1.876953;
533608;-0.005859;0.014648;1.873047;
533748;-0.001953;0.015625;1.882812;
533888;-0.002930;0.019531;1.891602;
534028;-0.002930;0.012695;1.893555;
534168;-0.000977;0.014648;1.898438;
534308;-0.002930;0.015625;1.907227;
534443;-0.002930;0.020508;1.900391;
534583;-0.002930;0.021484;1.906250;
534713;-0.003906;0.022461;1.915039;
534854;-0.004883;0.023438;1.904297;
534983;-0.002930;0.026367;1.914062;
535114;-0.004883;0.022461;1.906250;
535254;-0.006836;0.028320;1.908203;
535404;-0.009766;0.020508;1.893555;
535558;-0.006836;0.021484;1.885742;
535698;-0.009766;0.018555;1.872070;
535838;-0.012695;0.020508;1.846680;
535978;-0.014648;0.017578;1.837891;
536118;-0.015625;0.016602;1.806641;
536258;-0.021484;0.016602;1.771484;
536398;-0.024414;0.018555;1.750000;
536538;-0.027344;0.022461;1.717773;
536678;-0.028320;0.028320;1.696289;
536818;-0.031250;0.022461;1.674805;
536958;-0.038086;0.023438;1.651367;
537098;-0.036133;0.024414;1.641602;
537238;-0.038086;0.020508;1.625000;
537388;-0.040039;0.022461;1.607422;
537528;-0.039062;0.024414;1.605469;
537663;-0.041016;0.021484;1.601562;
537803;-0.040039;0.019531;1.593750;
537945;-0.041016;0.019531;1.590820;
538094;-0.041992;0.016602;1.601562;
538233;-0.043945;0.016602;1.597656;
538384;-0.046875;0.018555;1.581055;
538523;-0.044922;0.017578;1.583984;
538664;-0.044922;0.018555;1.583008;
538808;-0.041992;0.017578;1.593750;
538948;-0.043945;0.017578;1.596680;
539098;-0.044922;0.017578;1.606445;
539238;-0.045898;0.018555;1.604492;
539378;-0.041992;0.018555;1.617188;
539528;-0.044922;0.020508;1.608398;
539668;-0.044922;0.020508;1.579102;
539808;-0.049805;0.018555;1.548828;
539948;-0.051758;0.022461;1.505859;
540088;-0.055664;0.018555;1.449219;
540228;-0.059570;0.019531;1.398438;
540368;-0.066406;0.020508;1.322266;
540508;-0.069336;0.020508;1.276367;
540648;-0.074219;0.021484;1.202148;
540773;-0.077148;0.019531;1.160156;
540914;-0.081055;0.019531;1.118164;
541053;-0.082031;0.024414;1.079102;
541203;-0.085938;0.024414;1.045898;
541353;-0.086914;0.030273;1.032227;
541493;-0.087891;0.025391;1.015625;
541625;-0.086914;0.025391;1.013672;
541768;-0.083984;0.030273;1.030273;
541918;-0.084961;0.032227;1.048828;
542058;-0.083984;0.020508;1.052734;
542198;-0.085938;0.025391;1.083984;
542338;-0.082031;0.025391;1.096680;
542478;-0.083984;0.026367;1.109375;
542628;-0.083008;0.029297;1.115234;
542768;-0.081055;0.027344;1.126953;
542908;-0.080078;0.020508;1.138672;
543048;-0.079102;0.021484;1.151367;
543188;-0.081055;0.018555;1.154297;
543328;-0.078125;0.019531;1.180664;
543468;-0.074219;0.016602;1.181641;
543608;-0.078125;0.018555;1.194336;
543743;-0.078125;0.020508;1.201172;
543874;-0.077148;0.023438;1.213867;
544013;-0.076172;0.019531;1.212891;
544153;-0.076172;0.022461;1.207031;
544284;-0.075195;0.024414;1.205078;
544424;-0.076172;0.019531;1.199219;
544573;-0.080078;0.022461;1.188477;
544704;-0.079102;0.027344;1.174805;
544858;-0.080078;0.023438;1.178711;
544998;-0.081055;0.024414;1.155273;
545148;-0.081055;0.028320;1.138672;
545288;-0.080078;0.029297;1.125000;
545428;-0.080078;0.029297;1.128906;
545578;-0.082031;0.024414;1.099609;
545718;-0.084961;0.029297;1.079102;
545858;-0.086914;0.028320;1.041016;
545998;-0.086914;0.028320;1.024414;
546138;-0.085938;0.029297;0.983398;
546278;-0.090820;0.025391;0.958984;
546418;-0.092773;0.025391;0.941406;
546558;-0.090820;0.025391;0.928711;
546698;-0.091797;0.025391;0.915039;
546833;-0.092773;0.023438;0.918945;
546963;-0.090820;0.027344;0.929688;
547113;-0.091797;0.020508;0.935547;
547263;-0.090820;0.020508;0.950195;
547403;-0.086914;0.017578;0.974609;
547534;-0.084961;0.019531;0.991211;
547674;-0.086914;0.017578;1.008789;
547818;-0.086914;0.018555;1.037109;
547968;-0.086914;0.021484;1.070312;
548108;-0.083984;0.022461;1.085938;
548248;-0.083984;0.024414;1.110352;
548388;-0.085938;0.021484;1.119141;
548528;-0.079102;0.021484;1.148438;
548678;-0.080078;0.020508;1.163086;
548818;-0.079102;0.023438;1.172852;
548953;-0.078125;0.023438;1.180664;
549098;-0.078125;0.027344;1.173828;
549248;-0.078125;0.029297;1.168945;
549388;-0.081055;0.026367;1.147461;
549523;-0.080078;0.029297;1.137695;
549663;-0.081055;0.024414;1.117188;
549804;-0.082031;0.025391;1.090820;
549944;-0.085938;0.026367;1.075195;
550084;-0.083008;0.025391;1.066406;
550234;-0.083008;0.023438;1.065430;
550363;-0.083008;0.025391;1.058594;
550513;-0.083008;0.025391;1.050781;
550664;-0.083984;0.024414;1.062500;
550813;-0.081055;0.023438;1.053711;
550953;-0.082031;0.019531;1.069336;
551103;-0.083984;0.020508;1.077148;
551248;-0.083008;0.023438;1.083008;
551383;-0.081055;0.023438;1.098633;
551528;-0.081055;0.022461;1.108398;
551668;-0.081055;0.022461;1.127930;
551808;-0.081055;0.026367;1.125000;
551948;-0.078125;0.024414;1.131836;
552095;-0.078125;0.023438;1.134766;
552224;-0.081055;0.025391;1.145508;
552378;-0.078125;0.027344;1.147461;
552518;-0.078125;0.022461;1.152344;
552658;-0.076172;0.025391;1.166016;
552793;-0.076172;0.023438;1.157227;
552938;-0.072266;0.023438;1.171875;
553078;-0.073242;0.021484;1.173828;
553218;-0.070312;0.023438;1.188477;
553353;-0.068359;0.018555;1.182617;
553493;-0.068359;0.017578;1.185547;
553633;-0.068359;0.020508;1.186523;
553773;-0.064453;0.019531;1.187500;
553913;-0.067383;0.014648;1.174805;
554053;-0.065430;0.013672;1.164062;
554204;-0.064453;0.016602;1.164062;
554353;-0.062500;0.019531;1.159180;
554484;-0.059570;0.017578;1.148438;
554615;-0.062500;0.019531;1.141602;
554753;-0.057617;0.019531;1.147461;
554893;-0.051758;0.020508;1.153320;
555033;-0.049805;0.020508;1.149414;
555178;-0.048828;0.019531;1.146484;
555318;-0.045898;0.019531;1.144531;
555458;-0.045898;0.021484;1.139648;
555593;-0.043945;0.020508;1.133789;
555748;-0.042969;0.020508;1.122070;
555888;-0.040039;0.021484;1.105469;
556038;-0.041016;0.020508;1.083984;
556173;-0.039062;0.019531;1.069336;
556328;-0.038086;0.019531;1.067383;
556468;-0.037109;0.028320;1.043945;
556608;-0.040039;0.028320;1.053711;
556748;-0.039062;0.033203;1.037109;
556883;-0.042969;0.035156;1.037109;
557034;-0.042969;0.036133;1.039062;
557173;-0.040039;0.034180;1.034180;
557306;-0.041016;0.038086;1.044922;
557454;-0.041016;0.031250;1.034180;
557603;-0.037109;0.032227;1.041992;
557753;-0.031250;0.025391;1.051758;
557894;-0.029297;0.024414;1.073242;
558033;-0.020508;0.026367;1.095703;
558178;-0.014648;0.022461;1.125977;
558318;-0.014648;0.021484;1.145508;
558468;-0.008789;0.025391;1.166992;
558608;-0.008789;0.017578;1.202148;
558748;-0.002930;0.018555;1.219727;
558898;-0.000977;0.017578;1.233398;
559038;-0.003906;0.016602;1.244141;
559178;-0.000977;0.019531;1.252930;
559328;-0.002930;0.018555;1.261719;
559468;-0.003906;0.025391;1.245117;
559608;-0.003906;0.017578;1.220703;
559748;-0.008789;0.024414;1.183594;
559888;-0.011719;0.022461;1.144531;
560028;-0.012695;0.019531;1.110352;
560163;-0.015625;0.020508;1.073242;
560303;-0.017578;0.022461;1.029297;
560453;-0.015625;0.021484;1.019531;
560605;-0.017578;0.021484;1.003906;
560754;-0.019531;0.021484;0.996094;
560893;-0.018555;0.024414;0.995117;
561043;-0.020508;0.018555;0.984375;
561193;-0.017578;0.023438;0.993164;
561338;-0.016602;0.025391;0.983398;
561463;-0.016602;0.025391;0.979492;
561613;-0.017578;0.029297;0.983398;
561758;-0.020508;0.023438;0.963867;
561908;-0.024414;0.022461;0.959961;
562048;-0.020508;0.023438;0.973633;
562188;-0.021484;0.022461;0.976562;
562328;-0.021484;0.021484;0.977539;
562468;-0.018555;0.021484;0.973633;
562608;-0.017578;0.019531;0.979492;
562748;-0.019531;0.020508;0.987305;
562888;-0.020508;0.020508;0.988281;
563028;-0.016602;0.018555;0.988281;
563168;-0.018555;0.023438;0.981445;
563318;-0.019531;0.018555;0.978516;
563458;-0.020508;0.024414;0.980469;
563598;-0.021484;0.019531;0.986328;
563743;-0.019531;0.027344;0.977539;
563885;-0.020508;0.023438;0.992188;
564036;-0.020508;0.029297;1.007812;
564173;-0.022461;0.023438;0.996094;
564304;-0.022461;0.026367;0.998047;
564443;-0.022461;0.025391;0.998047;
564584;-0.021484;0.024414;0.998047;
564738;-0.022461;0.024414;1.013672;
564878;-0.020508;0.025391;1.017578;
565028;-0.021484;0.023438;1.022461;
565168;-0.021484;0.026367;1.024414;
565308;-0.020508;0.023438;1.023438;
565458;-0.021484;0.022461;1.022461;
565598;-0.022461;0.023438;1.020508;
565738;-0.021484;0.017578;1.014648;
565878;-0.019531;0.026367;1.020508;
566018;-0.025391;0.026367;1.011719;
566168;-0.025391;0.028320;1.014648;
566308;-0.021484;0.025391;1.013672;
566448;-0.020508;0.030273;1.013672;
566588;-0.022461;0.026367;1.017578;
566723;-0.022461;0.023438;1.003906;
566864;-0.023438;0.031250;1.009766;
567003;-0.022461;0.027344;0.999023;
567133;-0.021484;0.024414;0.995117;
567273;-0.023438;0.027344;0.991211;
567414;-0.025391;0.022461;0.964844;
567557;-0.026367;0.026367;0.961914;
567708;-0.026367;0.022461;0.940430;
567848;-0.027344;0.024414;0.932617;
567998;-0.026367;0.019531;0.919922;
568138;-0.027344;0.021484;0.901367;
568278;-0.027344;0.021484;0.904297;
568418;-0.030273;0.023438;0.916016;
568558;-0.027344;0.023438;0.922852;
568708;-0.026367;0.023438;0.915039;
568848;-0.023438;0.021484;0.919922;
568988;-0.027344;0.018555;0.918945;
569128;-0.028320;0.023438;0.953125;
569268;-0.026367;0.024414;0.962891;
569408;-0.026367;0.019531;0.972656;
569548;-0.023438;0.019531;0.981445;
569686;-0.022461;0.015625;0.997070;
569824;-0.022461;0.017578;1.000977;
569957;-0.021484;0.022461;1.021484;
570103;-0.025391;0.023438;1.008789;
570233;-0.024414;0.017578;1.006836;
570383;-0.023438;0.019531;1.019531;
570523;-0.023438;0.024414;1.025391;
570663;-0.023438;0.020508;1.026367;
570814;-0.024414;0.026367;1.025391;
570958;-0.021484;0.025391;1.026367;
571108;-0.026367;0.029297;1.024414;
571258;-0.023438;0.025391;1.039062;
571398;-0.021484;0.023438;1.069336;
571538;-0.018555;0.025391;1.079102;
571678;-0.016602;0.021484;1.102539;
571818;-0.021484;0.019531;1.124023;
571958;-0.018555;0.016602;1.145508;
572098;-0.015625;0.017578;1.175781;
572238;-0.011719;0.020508;1.197266;
572378;-0.016602;0.025391;1.200195;
572518;-0.012695;0.013672;1.213867;
572658;-0.011719;0.017578;1.215820;
572798;-0.012695;0.014648;1.222656;
572933;-0.011719;0.022461;1.234375;
573084;-0.016602;0.019531;1.236328;
573224;-0.013672;0.024414;1.218750;
573374;-0.007812;0.024414;1.229492;
573524;-0.019531;0.025391;1.210938;
573665;-0.014648;0.023438;1.194336;
573818;-0.013672;0.022461;1.196289;
573958;-0.010742;0.020508;1.205078;
574098;-0.015625;0.018555;1.182617;
574238;-0.011719;0.028320;1.182617;
574378;-0.016602;0.023438;1.179688;
574518;-0.016602;0.027344;1.166992;
574658;-0.013672;0.018555;1.147461;
574808;-0.018555;0.019531;1.125977;
574948;-0.020508;0.017578;1.118164;
575088;-0.017578;0.018555;1.107422;
575228;-0.014648;0.022461;1.091797;
575368;-0.019531;0.024414;1.075195;
575508;-0.021484;0.018555;1.054688;
575648;-0.021484;0.023438;1.031250;
575784;-0.018555;0.020508;1.039062;
575923;-0.022461;0.029297;1.031250;
576063;-0.023438;0.021484;1.011719;
576193;-0.025391;0.027344;0.980469;
576343;-0.024414;0.014648;0.982422;
576493;-0.025391;0.021484;0.983398;
576634;-0.023438;0.020508;0.980469;
576788;-0.027344;0.021484;0.980469;
576928;-0.028320;0.021484;0.981445;
577068;-0.025391;0.026367;1.003906;
577218;-0.024414;0.020508;1.015625;
577358;-0.023438;0.022461;1.026367;
577498;-0.024414;0.018555;1.051758;
577638;-0.020508;0.022461;1.061523;
577778;-0.016602;0.022461;1.071289;
577918;-0.017578;0.020508;1.101562;
578068;-0.015625;0.024414;1.125000;
578208;-0.018555;0.019531;1.131836;
578348;-0.017578;0.025391;1.157227;
578488;-0.014648;0.021484;1.173828;
578628;-0.013672;0.026367;1.194336;
578764;-0.012695;0.029297;1.211914;
578914;-0.012695;0.031250;1.225586;
579058;-0.014648;0.025391;1.212891;
579194;-0.014648;0.018555;1.205078;
579325;-0.012695;0.022461;1.211914;
579454;-0.015625;0.024414;1.230469;
579604;-0.011719;0.012695;1.209961;
579745;-0.011719;0.004883;1.177734;
579898;-0.007812;0.022461;1.178711;
580048;-0.008789;0.016602;1.182617;
580188;-0.016602;0.019531;1.197266;
580328;-0.020508;0.025391;1.147461;
580478;-0.020508;0.050781;1.108398;
580618;-0.023438;0.039062;1.097656;
580758;-0.023438;0.027344;1.077148;
580898;-0.016602;0.032227;1.084961;
581038;-0.024414;0.021484;1.092773;
581178;-0.019531;0.008789;1.075195;
581318;-0.015625;0.004883;1.041992;
581458;-0.019531;0.002930;1.058594;
581598;-0.022461;0.015625;1.021484;
581748;-0.023438;0.036133;0.972656;
581883;-0.023438;0.009766;1.008789;
582024;-0.027344;0.013672;1.053711;
582153;-0.020508;0.031250;1.034180;
582303;-0.027344;0.025391;1.036133;
582443;-0.020508;0.041016;1.060547;
582593;-0.026367;0.039062;1.061523;
582748;-0.018555;0.021484;1.057617;
582888;-0.018555;0.024414;1.069336;
583028;-0.020508;0.040039;1.088867;
583168;-0.017578;0.023438;1.081055;
583308;-0.017578;0.008789;1.094727;
583458;-0.021484;0.000000;1.080078;
583598;-0.013672;0.015625;1.069336;
583738;-0.017578;0.015625;1.097656;
583878;-0.028320;0.015625;1.096680;
584018;-0.013672;0.024414;1.083984;
584158;-0.020508;0.021484;1.041016;
584298;-0.018555;0.032227;1.027344;
584438;-0.023438;0.015625;1.040039;
584578;-0.026367;0.023438;1.051758;
584718;-0.017578;0.030273;1.074219;
584854;-0.017578;0.028320;1.082031;
585003;-0.021484;0.026367;1.060547;
585153;-0.022461;0.040039;1.001953;
585295;-0.022461;0.044922;0.992188;
585436;-0.024414;0.036133;1.013672;
585574;-0.024414;0.021484;0.989258;
585713;-0.026367;0.019531;0.987305;
585868;-0.016602;-0.000977;1.009766;
586008;-0.023438;0.005859;1.009766;
586148;-0.020508;0.000000;1.019531;
586288;-0.020508;0.020508;1.042969;
586428;-0.021484;0.003906;1.041992;
586578;-0.016602;0.034180;1.056641;
586718;-0.023438;0.014648;1.068359;
586858;-0.018555;0.028320;1.038086;
587008;-0.019531;0.036133;1.054688;
587148;-0.018555;0.041016;1.050781;
587288;-0.023438;0.029297;1.020508;
587438;-0.019531;0.046875;1.031250;
587578;-0.024414;0.035156;1.022461;
587718;-0.021484;0.043945;1.022461;
587854;-0.022461;0.034180;1.016602;
587993;-0.024414;0.035156;0.991211;
588138;-0.020508;0.026367;1.007812;
588274;-0.016602;0.018555;1.027344;
588413;-0.028320;0.022461;1.014648;
588553;-0.017578;0.025391;0.981445;
588694;-0.019531;0.020508;0.973633;
588848;-0.024414;0.020508;0.985352;
588998;-0.025391;0.020508;0.948242;
589138;-0.018555;0.016602;0.950195;
589278;-0.022461;0.023438;0.948242;
589428;-0.018555;0.026367;0.945312;
589568;-0.023438;0.017578;0.937500;
589708;-0.019531;0.021484;0.940430;
589858;-0.026367;0.033203;0.946289;
589998;-0.020508;0.024414;0.970703;
590138;-0.020508;0.028320;0.992188;
590278;-0.021484;0.034180;0.997070;
590418;-0.022461;0.023438;0.968750;
590558;-0.020508;0.017578;0.993164;
590698;-0.022461;0.022461;0.974609;
590840;-0.018555;0.030273;0.982422;
590993;-0.022461;0.000000;1.022461;
591144;-0.015625;0.015625;1.025391;
591283;-0.011719;0.018555;1.034180;
591423;-0.015625;0.026367;1.038086;
591563;-0.009766;0.027344;1.054688;
591694;-0.005859;0.040039;1.048828;
591838;0.004883;0.020508;1.081055;
591978;0.007812;0.010742;1.112305;
592118;0.013672;0.013672;1.094727;
592258;0.014648;0.019531;1.111328;
592408;0.014648;0.011719;1.125000;
592548;0.010742;0.014648;1.122070;
592688;0.014648;0.019531;1.133789;
592828;0.005859;0.013672;1.126953;
592968;0.003906;0.018555;1.135742;
593108;0.006836;0.035156;1.154297;
593248;0.003906;0.022461;1.129883;
593388;0.000977;0.020508;1.090820;
593528;0.002930;0.028320;1.070312;
593668;0.001953;0.025391;1.077148;
593803;0.002930;0.022461;1.065430;
593953;0.000000;0.023438;1.038086;
594084;-0.000977;0.013672;0.983398;
594223;0.001953;0.014648;1.001953;
594363;-0.004883;0.018555;0.988281;
594514;0.001953;0.025391;0.993164;
594653;-0.000977;0.018555;0.985352;
594793;-0.001953;0.018555;0.980469;
594935;-0.001953;0.025391;0.973633;
595088;0.000977;0.020508;0.976562;
595228;-0.001953;0.015625;0.968750;
595368;-0.002930;0.020508;0.986328;
595508;0.000000;0.014648;0.993164;
595648;-0.001953;0.015625;1.014648;
595788;0.000000;0.012695;1.001953;
595928;-0.001953;0.011719;0.998047;
596068;0.000000;0.009766;1.013672;
596208;-0.001953;0.017578;1.017578;
596348;0.000000;0.018555;1.024414;
596488;-0.002930;0.019531;1.001953;
596628;-0.003906;0.027344;1.011719;
596768;-0.002930;0.031250;0.991211;
596908;0.000977;0.030273;1.003906;
597054;-0.002930;0.025391;0.982422;
597184;-0.003906;0.034180;0.992188;
597324;-0.004883;0.024414;0.984375;
597464;-0.000977;0.031250;0.991211;
597614;-0.000977;0.024414;0.986328;
597753;-0.003906;0.031250;0.978516;
597905;-0.001953;0.022461;0.972656;
598043;-0.003906;0.027344;0.969727;
598183;-0.001953;0.026367;0.975586;
598328;-0.002930;0.018555;0.968750;
598468;-0.004883;0.021484;0.972656;
598618;-0.008789;0.020508;0.972656;
598768;0.000977;0.023438;0.985352;
598908;0.001953;0.022461;1.000000;
599048;-0.003906;0.022461;0.984375;
599188;-0.003906;0.017578;0.976562;
599328;-0.003906;0.025391;0.986328;
599468;-0.002930;0.026367;0.992188;
599608;-0.001953;0.025391;0.993164;
599748;-0.001953;0.031250;0.987305;
599888;-0.003906;0.029297;0.987305;
600028;-0.001953;0.032227;0.995117;
600168;0.000000;0.032227;0.998047;
600294;-0.002930;0.040039;0.990234;
600424;-0.002930;0.030273;0.989258;
600564;0.000977;0.030273;0.994141;
600713;-0.001953;0.026367;1.004883;
600853;-0.003906;0.030273;1.008789;
600993;-0.000977;0.018555;0.999023;
601134;0.000000;0.024414;1.025391;
601288;0.002930;0.015625;1.051758;
601428;0.002930;0.027344;1.040039;
601568;0.001953;0.018555;1.046875;
601708;0.000977;0.025391;1.057617;
601848;0.003906;0.019531;1.080078;
601988;0.000977;0.024414;1.071289;
602128;-0.000977;0.018555;1.077148;
602268;0.004883;0.025391;1.098633;
602408;0.004883;0.013672;1.100586;
602548;0.003906;0.025391;1.096680;
602688;-0.000977;0.029297;1.088867;
602838;0.000977;0.028320;1.083984;
602978;0.002930;0.024414;1.090820;
603118;0.007812;0.020508;1.089844;
603263;0.000977;0.024414;1.084961;
603393;-0.000977;0.022461;1.072266;
603533;0.002930;0.032227;1.078125;
603673;0.001953;0.026367;1.062500;
603823;0.002930;0.027344;1.056641;
603954;0.001953;0.022461;1.054688;
604093;0.000977;0.016602;1.070312;
604238;0.005859;0.018555;1.071289;
604373;-0.000977;0.014648;1.064453;
604515;-0.001953;0.021484;1.061523;
604658;0.000000;0.024414;1.079102;
604794;0.006836;0.014648;1.096680;
604923;-0.001953;0.021484;1.080078;
605068;-0.000977;0.017578;1.074219;
605208;0.001953;0.022461;1.082031;
605348;0.000977;0.027344;1.068359;
605498;0.000977;0.026367;1.068359;
605638;0.000000;0.025391;1.040039;
605778;-0.006836;0.024414;1.024414;
605928;0.000977;0.026367;1.033203;
606068;0.000977;0.024414;1.017578;
606208;0.000000;0.030273;1.010742;
606358;-0.006836;0.032227;0.994141;
606498;-0.004883;0.031250;1.003906;
606638;0.000977;0.028320;1.001953;
606778;-0.000977;0.027344;0.979492;
606918;-0.005859;0.032227;0.973633;
607054;-0.003906;0.030273;0.974609;
607193;0.000000;0.026367;0.979492;
607324;-0.001953;0.023438;0.983398;
607463;-0.004883;0.030273;0.982422;
607593;-0.001953;0.030273;0.988281;
607733;0.000977;0.037109;1.008789;
607883;-0.001953;0.032227;0.996094;
608033;-0.003906;0.039062;0.980469;
608168;-0.007812;0.041016;0.994141;
608308;0.000977;0.031250;1.014648;
608448;-0.001953;0.028320;1.025391;
608588;-0.001953;0.033203;1.036133;
608728;-0.002930;0.027344;1.060547;
608868;0.000977;0.023438;1.085938;
609008;0.004883;0.022461;1.100586;
609158;0.006836;0.019531;1.116211;
609298;0.001953;0.019531;1.103516;
609438;0.000977;0.025391;1.103516;
609588;-0.001953;0.018555;1.096680;
609728;0.003906;0.010742;1.094727;
609868;0.000000;0.012695;1.064453;
610018;-0.002930;0.007812;1.048828;
610153;-0.003906;0.013672;1.027344;
610303;-0.005859;0.011719;1.006836;
610453;0.000000;0.003906;1.037109;
610584;-0.004883;-0.001953;1.033203;
610723;0.000977;0.018555;1.054688;
610868;-0.008789;0.020508;1.011719;
611004;0.001953;0.022461;1.031250;
611145;-0.006836;0.024414;0.976562;
611278;-0.004883;0.032227;0.930664;
611418;-0.010742;0.028320;0.877930;
611558;-0.012695;0.034180;0.862305;
611698;-0.009766;0.034180;0.834961;
611838;-0.014648;0.032227;0.796875;
611978;-0.014648;0.032227;0.765625;
612118;-0.013672;0.024414;0.768555;
612258;-0.010742;0.018555;0.766602;
612398;-0.014648;0.011719;0.785156;
612538;-0.011719;0.017578;0.802734;
612678;-0.015625;0.023438;0.819336;
612818;-0.009766;0.021484;0.879883;
612958;-0.010742;0.012695;0.893555;
613098;-0.007812;0.019531;0.929688;
613233;-0.009766;0.026367;0.947266;
613364;-0.008789;0.028320;0.979492;
613514;-0.002930;0.027344;0.997070;
613654;-0.004883;0.024414;1.009766;
613785;-0.007812;0.029297;1.016602;
613913;-0.003906;0.025391;1.031250;
614053;-0.003906;0.021484;1.044922;
614193;-0.001953;0.021484;1.051758;
614333;-0.006836;0.025391;1.088867;
614478;-0.000977;0.024414;1.108398;
614618;-0.002930;0.018555;1.127930;
614758;0.002930;0.020508;1.132812;
614908;0.001953;0.025391;1.131836;
615048;-0.002930;0.024414;1.141602;
615188;-0.000977;0.017578;1.141602;
615328;0.007812;0.020508;1.169922;
615468;-0.000977;0.012695;1.164062;
615608;0.005859;0.016602;1.159180;
615748;0.000977;0.025391;1.149414;
615888;-0.001953;0.030273;1.137695;
616028;-0.002930;0.033203;1.129883;
616168;0.004883;0.033203;1.130859;
616308;0.001953;0.031250;1.133789;
616453;-0.008789;0.024414;1.105469;
616593;0.000977;0.026367;1.107422;
616743;0.000000;0.025391;1.130859;
616893;0.001953;0.026367;1.132812;
617033;0.000977;0.015625;1.123047;
617183;-0.001953;0.016602;1.130859;
617325;0.000977;0.018555;1.131836;
617453;0.004883;0.018555;1.148438;
617598;0.000000;0.016602;1.151367;
617738;0.003906;0.023438;1.134766;
617888;0.000977;0.017578;1.146484;
618028;0.000000;0.024414;1.135742;
618168;0.001953;0.020508;1.116211;
618308;0.003906;0.024414;1.105469;
618448;-0.003906;0.029297;1.110352;
618588;-0.002930;0.034180;1.100586;
618738;-0.002930;0.026367;1.105469;
618878;0.000977;0.023438;1.112305;
619018;0.000000;0.019531;1.083008;
619158;0.000000;0.020508;1.082031;
619298;-0.000977;0.019531;1.084961;
619438;-0.000977;0.020508;1.074219;
619573;0.000000;0.023438;1.072266;
619723;-0.001953;0.022461;1.035156;
619863;-0.003906;0.015625;1.031250;
619998;-0.000977;0.023438;1.038086;
620143;-0.003906;0.016602;1.011719;
620294;-0.004883;0.019531;1.019531;
620444;-0.003906;0.021484;0.996094;
620588;-0.007812;0.025391;0.993164;
620728;-0.005859;0.016602;0.983398;
620868;-0.001953;0.022461;1.003906;
621008;-0.005859;0.021484;0.979492;
621148;-0.005859;0.023438;0.968750;
621288;-0.007812;0.022461;0.970703;
621438;-0.005859;0.032227;0.977539;
621578;-0.007812;0.023438;0.969727;
621718;-0.003906;0.034180;0.975586;
621858;-0.009766;0.029297;0.958984;
621998;-0.008789;0.027344;0.958984;
622138;-0.007812;0.026367;0.974609;
622278;-0.004883;0.027344;0.968750;
622418;-0.008789;0.021484;0.960938;
622553;-0.005859;0.019531;0.974609;
622694;-0.007812;0.026367;0.974609;
622833;-0.004883;0.027344;0.980469;
622983;-0.003906;0.020508;0.985352;
623124;-0.002930;0.014648;1.001953;
623263;-0.005859;0.023438;1.001953;
623403;-0.006836;0.020508;1.012695;
623558;-0.006836;0.023438;1.023438;
623698;-0.006836;0.020508;1.023438;
623838;-0.004883;0.021484;1.046875;
623978;-0.006836;0.023438;1.066406;
624118;-0.003906;0.029297;1.069336;
624258;-0.000977;0.019531;1.080078;
624398;-0.003906;0.016602;1.070312;
624538;-0.003906;0.024414;1.077148;
624678;-0.004883;0.026367;1.087891;
624818;-0.001953;0.015625;1.082031;
624958;0.001953;0.024414;1.098633;
625098;-0.000977;0.022461;1.090820;
625248;-0.003906;0.019531;1.068359;
625388;-0.007812;0.025391;1.063477;
625524;-0.002930;0.024414;1.080078;
625664;-0.002930;0.018555;1.084961;
625815;0.000977;0.021484;1.069336;
625963;-0.003906;0.020508;1.068359;
626103;-0.002930;0.016602;1.089844;
626243;0.003906;0.015625;1.113281;
626388;0.001953;0.022461;1.119141;
626513;-0.000977;0.019531;1.103516;
626653;0.000000;0.021484;1.121094;
626798;-0.001953;0.026367;1.130859;
626938;0.007812;0.023438;1.142578;
627078;0.000000;0.026367;1.144531;
627218;-0.001953;0.031250;1.139648;
627358;0.001953;0.034180;1.139648;
627498;0.000977;0.027344;1.097656;
627648;-0.007812;0.034180;1.085938;
627788;-0.005859;0.027344;1.079102;
627928;-0.008789;0.021484;1.039062;
628068;-0.006836;0.026367;1.022461;
628208;-0.008789;0.048828;1.041992;
628358;-0.010742;0.038086;1.038086;
628498;-0.015625;0.033203;1.022461;
628638;-0.012695;0.023438;0.995117;
628783;-0.008789;0.025391;0.991211;
628913;-0.010742;0.022461;0.991211;
629043;-0.005859;0.027344;1.002930;
629184;-0.010742;0.025391;1.007812;
629315;-0.012695;0.026367;0.998047;
629463;-0.005859;0.024414;1.009766;
629605;-0.006836;0.031250;1.027344;
629758;-0.005859;0.022461;1.021484;
629908;-0.001953;0.023438;1.002930;
630048;-0.013672;0.025391;1.000000;
630188;-0.011719;0.032227;1.013672;
630338;-0.008789;0.022461;1.032227;
630478;-0.016602;0.024414;1.019531;
630618;-0.001953;0.023438;1.050781;
630758;-0.004883;0.018555;1.068359;
630898;-0.008789;0.022461;1.057617;
631038;-0.003906;0.028320;1.063477;
631178;-0.001953;0.026367;1.048828;
631318;-0.003906;0.024414;1.065430;
631458;-0.000977;0.038086;1.073242;
631598;-0.001953;0.038086;1.064453;
631733;-0.001953;0.032227;1.077148;
631874;-0.003906;0.033203;1.059570;
632003;0.003906;0.031250;1.068359;
632133;0.000977;0.018555;1.038086;
632273;-0.001953;0.016602;1.000977;
632414;0.003906;0.020508;0.983398;
632564;-0.003906;0.015625;0.958008;
632708;-0.001953;0.014648;0.917969;
632848;-0.001953;0.016602;0.924805;
632998;-0.002930;0.021484;0.911133;
633138;-0.000977;0.023438;0.910156;
633278;0.000977;0.025391;0.918945;
633418;-0.000977;0.030273;0.932617;
633558;0.002930;0.033203;0.952148;
633698;0.001953;0.033203;0.977539;
633838;0.002930;0.032227;1.003906;
633978;0.007812;0.032227;1.027344;
634118;0.009766;0.033203;1.048828;
634258;0.014648;0.030273;1.079102;
634398;0.013672;0.023438;1.086914;
634548;0.019531;0.022461;1.078125;
634683;0.016602;0.020508;1.091797;
634833;0.021484;0.013672;1.089844;
634974;0.026367;0.012695;1.075195;
635124;0.021484;0.019531;1.070312;
635273;0.021484;0.017578;1.064453;
635413;0.024414;0.018555;1.051758;
635543;0.024414;0.020508;1.044922;
635688;0.020508;0.023438;1.039062;
635828;0.026367;0.019531;1.041016;
635968;0.028320;0.021484;1.034180;
636108;0.030273;0.027344;1.036133;
636248;0.034180;0.024414;1.036133;
636388;0.034180;0.025391;1.033203;
636538;0.035156;0.022461;1.022461;
636678;0.039062;0.021484;1.033203;
636818;0.038086;0.029297;1.019531;
636958;0.041016;0.033203;1.013672;
637098;0.041992;0.033203;1.011719;
637238;0.044922;0.032227;0.995117;
637378;0.044922;0.027344;1.008789;
637518;0.045898;0.023438;0.993164;
637653;0.045898;0.026367;0.989258;
637794;0.045898;0.029297;0.993164;
637933;0.047852;0.018555;0.979492;
638073;0.054688;0.026367;0.992188;
638216;0.054688;0.013672;0.999023;
638358;0.056641;0.021484;1.023438;
638503;0.057617;0.019531;1.012695;
638655;0.059570;0.016602;1.008789;
638798;0.061523;0.023438;1.015625;
638938;0.060547;0.020508;1.023438;
639078;0.064453;0.026367;1.035156;
639218;0.068359;0.029297;1.046875;
639358;0.065430;0.022461;1.047852;
639498;0.070312;0.027344;1.067383;
639638;0.068359;0.013672;1.064453;
639778;0.075195;0.021484;1.090820;
639918;0.073242;0.016602;1.081055;
640058;0.073242;0.022461;1.077148;
640208;0.075195;0.026367;1.079102;
640348;0.078125;0.030273;1.112305;
640488;0.078125;0.026367;1.096680;
640628;0.077148;0.025391;1.102539;
640763;0.082031;0.022461;1.100586;
640906;0.081055;0.026367;1.079102;
641043;0.083008;0.016602;1.077148;
641183;0.079102;0.020508;1.051758;
641313;0.081055;0.022461;1.049805;
641443;0.083008;0.019531;1.024414;
641593;0.084961;0.027344;1.028320;
641743;0.085938;0.034180;1.021484;
641888;0.086914;0.031250;1.037109;
642028;0.087891;0.025391;1.031250;
642168;0.085938;0.029297;1.047852;
642308;0.092773;0.028320;1.048828;
642448;0.088867;0.023438;1.030273;
642588;0.090820;0.026367;1.036133;
642728;0.091797;0.022461;1.016602;
642868;0.093750;0.020508;1.002930;
643008;0.090820;0.021484;0.971680;
643148;0.093750;0.023438;0.947266;
643298;0.088867;0.022461;0.928711;
643438;0.088867;0.027344;0.924805;
643578;0.091797;0.027344;0.893555;
643718;0.086914;0.030273;0.871094;
643853;0.084961;0.026367;0.871094;
643983;0.083984;0.029297;0.874023;
644123;0.084961;0.030273;0.880859;
644253;0.085938;0.031250;0.887695;
644395;0.084961;0.025391;0.885742;
644544;0.085938;0.022461;0.891602;
644693;0.082031;0.024414;0.909180;
644848;0.085938;0.021484;0.925781;
644988;0.085938;0.018555;0.937500;
645128;0.089844;0.033203;0.931641;
645268;0.086914;0.030273;0.936523;
645408;0.086914;0.029297;0.945312;
645548;0.083984;0.030273;0.963867;
645688;0.085938;0.031250;0.979492;
645828;0.088867;0.030273;0.968750;
645968;0.089844;0.025391;0.963867;
646108;0.085938;0.024414;0.981445;
646248;0.085938;0.023438;0.985352;
646388;0.088867;0.013672;0.989258;
646528;0.088867;0.018555;0.994141;
646668;0.084961;0.012695;0.975586;
646803;0.084961;0.017578;0.994141;
646943;0.084961;0.028320;1.011719;
647085;0.087891;0.032227;1.012695;
647214;0.088867;0.031250;1.008789;
647354;0.084961;0.022461;1.017578;
647494;0.083008;0.019531;1.000000;
647633;0.089844;0.031250;1.000977;
647773;0.085938;0.027344;0.990234;
647928;0.086914;0.032227;0.992188;
648068;0.088867;0.021484;1.026367;
648208;0.083984;0.024414;1.050781;
648348;0.087891;0.025391;1.060547;
648488;0.088867;0.025391;1.075195;
648628;0.087891;0.016602;1.078125;
648768;0.088867;0.024414;1.119141;
648908;0.091797;0.020508;1.123047;
649048;0.090820;0.016602;1.138672;
649188;0.091797;0.018555;1.123047;
649328;0.086914;0.017578;1.100586;
649468;0.091797;0.022461;1.085938;
649608;0.086914;0.017578;1.068359;
649748;0.087891;0.020508;1.034180;
649893;0.083984;0.017578;1.001953;
650033;0.083008;0.019531;0.986328;
650183;0.083008;0.023438;0.969727;
650323;0.083984;0.022461;0.958008;
650463;0.084961;0.025391;0.956055;
650603;0.079102;0.027344;0.953125;
650758;0.077148;0.021484;0.950195;
650898;0.078125;0.021484;0.975586;
651038;0.083008;0.026367;0.980469;
651178;0.083008;0.024414;0.999023;
651328;0.080078;0.024414;0.988281;
651468;0.077148;0.025391;1.005859;
651608;0.081055;0.020508;1.039062;
651748;0.083984;0.018555;1.034180;
651888;0.083008;0.025391;1.022461;
652028;0.079102;0.026367;1.031250;
652168;0.083008;0.024414;1.046875;
652308;0.082031;0.023438;1.053711;
652458;0.082031;0.023438;1.069336;
652598;0.080078;0.017578;1.096680;
652733;0.081055;0.021484;1.189453;
652873;0.087891;0.015625;1.267578;
653013;0.091797;0.014648;1.353516;
653153;0.099609;0.021484;1.437500;
653284;0.099609;0.016602;1.530273;
653423;0.105469;0.022461;1.622070;
653558;0.114258;0.022461;1.671875;
653703;0.117188;0.021484;1.722656;
653844;0.118164;0.019531;1.779297;
653978;0.122070;0.022461;1.813477;
654118;0.124023;0.019531;1.834961;
654258;0.124023;0.016602;1.859375;
654398;0.124023;0.011719;1.868164;
654538;0.125977;0.017578;1.898438;
654678;0.127930;0.021484;1.906250;
654818;0.131836;0.011719;1.895508;
654958;0.128906;0.016602;1.890625;
655098;0.127930;0.013672;1.892578;
655238;0.125977;0.014648;1.898438;
655378;0.128906;0.007812;1.891602;
655518;0.125977;0.016602;1.878906;
655658;0.125000;0.009766;1.864258;
655798;0.122070;0.008789;1.860352;
655948;0.124023;0.010742;1.852539;
656088;0.122070;0.008789;1.843750;
656214;0.124023;0.011719;1.836914;
656354;0.125000;0.014648;1.836914;
656504;0.124023;0.019531;1.849609;
656647;0.126953;0.012695;1.848633;
656783;0.127930;0.013672;1.864258;
656914;0.128906;0.018555;1.857422;
657043;0.126953;0.017578;1.865234;
657183;0.127930;0.015625;1.882812;
657334;0.131836;0.012695;1.880859;
657468;0.126953;0.012695;1.893555;
657608;0.130859;0.009766;1.883789;
657748;0.130859;0.016602;1.888672;
657888;0.132812;0.004883;1.904297;
658028;0.133789;0.006836;1.899414;
658168;0.133789;0.006836;1.891602;
658308;0.131836;0.006836;1.895508;
658448;0.131836;0.008789;1.888672;
658588;0.129883;0.014648;1.881836;
658738;0.130859;0.014648;1.882812;
658878;0.132812;0.013672;1.871094;
659018;0.130859;0.016602;1.859375;
659168;0.130859;0.014648;1.846680;
659308;0.133789;0.021484;1.845703;
659443;0.131836;0.024414;1.836914;
659575;0.134766;0.020508;1.842773;
659703;0.129883;0.021484;1.841797;
659833;0.130859;0.023438;1.835938;
659974;0.135742;0.019531;1.833008;
660124;0.137695;0.020508;1.833984;
660274;0.135742;0.024414;1.833984;
660403;0.136719;0.015625;1.823242;
660558;0.135742;0.012695;1.829102;
660698;0.135742;0.020508;1.853516;
660838;0.138672;0.017578;1.833984;
660978;0.140625;0.013672;1.833008;
661118;0.140625;0.016602;1.845703;
661268;0.140625;0.018555;1.838867;
661408;0.143555;0.008789;1.834961;
661548;0.139648;0.009766;1.844727;
661688;0.144531;0.006836;1.833008;
661828;0.147461;0.010742;1.834961;
661968;0.149414;0.007812;1.828125;
662108;0.150391;0.012695;1.829102;
662248;0.149414;0.009766;1.844727;
662388;0.149414;0.010742;1.848633;
662523;0.150391;0.018555;1.887695;
662663;0.153320;0.023438;1.897461;
662804;0.154297;0.026367;1.903320;
662953;0.159180;0.017578;1.914062;
663103;0.152344;0.029297;1.916992;
663253;0.161133;0.019531;1.925781;
663384;0.159180;0.018555;1.922852;
663528;0.155273;0.018555;1.914062;
663668;0.160156;0.023438;1.910156;
663818;0.164062;0.006836;1.912109;
663958;0.160156;0.019531;1.912109;
664098;0.165039;0.009766;1.907227;
664248;0.161133;0.009766;1.900391;
664388;0.165039;0.006836;1.892578;
664528;0.165039;0.009766;1.872070;
664668;0.162109;0.000977;1.875000;
664808;0.167969;0.008789;1.866211;
664948;0.166992;0.003906;1.854492;
665088;0.165039;0.003906;1.858398;
665228;0.165039;0.008789;1.834961;
665378;0.164062;0.011719;1.842773;
665515;0.163086;0.004883;1.843750;
665655;0.164062;0.012695;1.841797;
665804;0.166992;0.014648;1.843750;
665938;0.165039;0.013672;1.828125;
666063;0.165039;0.012695;1.836914;
666215;0.170898;0.016602;1.839844;
666366;0.167969;0.011719;1.833984;
666514;0.169922;0.019531;1.849609;
666658;0.171875;0.024414;1.847656;
666798;0.171875;0.028320;1.854492;
666938;0.170898;0.022461;1.849609;
667078;0.177734;0.035156;1.870117;
667218;0.174805;0.035156;1.863281;
667358;0.173828;0.020508;1.842773;
667498;0.180664;0.027344;1.847656;
667638;0.180664;0.029297;1.844727;
667778;0.184570;0.024414;1.853516;
667918;0.184570;0.022461;1.867188;
668058;0.183594;0.019531;1.861328;
668198;0.185547;0.013672;1.871094;
668338;0.188477;0.007812;1.870117;
668478;0.188477;0.009766;1.873047;
668613;0.189453;0.006836;1.852539;
668753;0.191406;0.005859;1.852539;
668903;0.193359;0.003906;1.862305;
669048;0.192383;0.008789;1.846680;
669188;0.190430;0.007812;1.829102;
669335;0.188477;0.012695;1.805664;
669474;0.193359;0.017578;1.806641;
669623;0.187500;0.019531;1.785156;
669764;0.189453;0.021484;1.774414;
669903;0.188477;0.021484;1.768555;
670048;0.191406;0.023438;1.746094;
670188;0.187500;0.018555;1.726562;
670328;0.190430;0.023438;1.724609;
670468;0.192383;0.018555;1.749023;
670608;0.192383;0.017578;1.756836;
670748;0.196289;0.006836;1.740234;
670898;0.196289;0.005859;1.715820;
671038;0.198242;0.013672;1.733398;
671178;0.194336;0.016602;1.721680;
671328;0.201172;0.019531;1.709961;
671468;0.198242;0.025391;1.702148;
671608;0.199219;0.020508;1.724609;
671748;0.201172;0.027344;1.710938;
671888;0.206055;0.028320;1.705078;
672034;0.199219;0.027344;1.711914;
672173;0.196289;0.030273;1.698242;
672318;0.191406;0.029297;1.686523;
672454;0.188477;0.023438;1.693359;
672603;0.182617;0.016602;1.708984;
672753;0.177734;0.006836;1.691406;
672903;0.174805;0.006836;1.692383;
673053;0.167969;0.011719;1.679688;
673204;0.159180;0.014648;1.675781;
673348;0.152344;0.011719;1.657227;
673488;0.145508;0.015625;1.609375;
673638;0.136719;0.019531;1.574219;
673778;0.123047;0.026367;1.519531;
673918;0.108398;0.028320;1.398438;
674058;0.094727;0.028320;1.316406;
674198;0.078125;0.028320;1.177734;
674348;0.063477;0.031250;1.069336;
674488;0.047852;0.034180;0.937500;
674638;0.037109;0.029297;0.808594;
674778;0.021484;0.042969;0.718750;
674918;0.015625;0.041016;0.581055;
675058;0.010742;0.034180;0.500977;
675198;0.007812;0.037109;0.407227;
675344;0.005859;0.037109;0.338867;
675484;0.000977;0.036133;0.238281;
675633;-0.002930;0.030273;0.186523;
675773;0.000000;0.028320;0.144531;
675923;0.000977;0.031250;0.083984;
676075;0.000977;0.027344;0.052734;
676228;0.000977;0.024414;0.018555;
676368;-0.000977;0.024414;-0.006836;
676508;0.003906;0.022461;-0.006836;
676648;0.000000;0.020508;-0.016602;
676788;0.000000;0.023438;-0.022461;
676928;0.000977;0.019531;-0.035156;
677068;0.000000;0.020508;-0.013672;
677219;-0.006836;0.022461;-0.010742;
677355;-0.000977;0.023438;-0.000977;
677498;-0.004883;0.021484;0.007812;
677638;-0.006836;0.025391;-0.002930;
677778;-0.005859;0.024414;0.011719;
677913;-0.008789;0.025391;0.023438;
678063;-0.006836;0.026367;0.026367;
678214;-0.008789;0.023438;0.041016;
678364;-0.009766;0.026367;0.038086;
678504;-0.012695;0.026367;0.022461;
678634;-0.005859;0.026367;0.035156;
678773;-0.008789;0.025391;0.040039;
678914;-0.010742;0.024414;0.046875;
679048;-0.004883;0.027344;0.049805;
679173;-0.010742;0.025391;0.045898;
679313;-0.015625;0.027344;0.019531;
679453;-0.010742;0.020508;0.037109;
679593;-0.013672;0.023438;0.024414;
679738;-0.008789;0.019531;0.009766;
679878;-0.013672;0.014648;0.014648;
680018;-0.010742;0.018555;0.008789;
680158;-0.011719;0.012695;0.006836;
680298;-0.009766;0.016602;0.010742;
680438;-0.010742;0.015625;0.005859;
680578;-0.010742;0.014648;-0.000977;
680718;-0.013672;0.015625;-0.003906;
680858;-0.015625;0.022461;-0.000977;
680998;-0.010742;0.021484;-0.001953;
681138;-0.013672;0.019531;-0.008789;
681279;-0.014648;0.024414;-0.005859;
681418;-0.014648;0.025391;0.020508;
681553;-0.017578;0.033203;-0.011719;
681693;-0.016602;0.033203;0.013672;
681823;-0.013672;0.032227;0.030273;
681953;-0.018555;0.035156;-0.000977;
682104;-0.015625;0.033203;0.023438;
682245;-0.017578;0.036133;-0.009766;
682394;-0.009766;0.033203;0.038086;
682548;-0.016602;0.031250;0.012695;
682688;-0.011719;0.028320;0.041016;
682828;-0.012695;0.027344;0.018555;
682968;-0.017578;0.032227;0.022461;
683108;-0.013672;0.032227;0.029297;
683248;-0.014648;0.035156;0.043945;
683388;-0.015625;0.033203;0.036133;
683528;-0.015625;0.030273;0.046875;
683668;-0.013672;0.031250;0.041992;
683808;-0.015625;0.033203;0.042969;
683948;-0.015625;0.031250;0.040039;
684088;-0.019531;0.034180;0.038086;
684228;-0.018555;0.031250;0.037109;
684368;-0.013672;0.029297;0.041992;
684503;-0.013672;0.028320;0.032227;
684644;-0.017578;0.030273;0.036133;
684783;-0.016602;0.028320;0.035156;
684934;-0.015625;0.029297;0.038086;
685083;-0.016602;0.030273;0.025391;
685213;-0.016602;0.030273;0.022461;
685343;-0.014648;0.026367;0.030273;
685483;-0.016602;0.028320;0.028320;
685633;-0.017578;0.031250;0.023438;
685778;-0.015625;0.030273;0.027344;
685928;-0.016602;0.030273;0.028320;
686068;-0.016602;0.026367;0.016602;
686203;-0.015625;0.027344;0.012695;
686348;-0.014648;0.030273;0.015625;
686488;-0.016602;0.031250;0.007812;
686628;-0.014648;0.027344;0.012695;
686769;-0.016602;0.033203;0.005859;
686908;-0.016602;0.029297;0.004883;
687048;-0.015625;0.026367;0.014648;
687188;-0.015625;0.031250;0.006836;
687328;-0.016602;0.029297;0.004883;
687468;-0.016602;0.029297;0.000977;
687603;-0.016602;0.030273;0.000977;
687743;-0.013672;0.029297;0.006836;
687884;-0.017578;0.027344;-0.003906;
688023;-0.013672;0.029297;0.019531;
688164;-0.016602;0.031250;0.016602;
688313;-0.020508;0.032227;-0.002930;
688453;-0.017578;0.028320;0.014648;
688594;-0.018555;0.029297;-0.007812;
688748;-0.018555;0.030273;0.000977;
688898;-0.017578;0.026367;0.009766;
689038;-0.018555;0.030273;0.004883;
689178;-0.018555;0.028320;0.009766;
689315;-0.017578;0.031250;0.013672;
689468;-0.018555;0.027344;0.011719;
689608;-0.015625;0.025391;0.032227;
689748;-0.017578;0.030273;0.002930;
689883;-0.016602;0.026367;0.030273;
690028;-0.020508;0.030273;-0.000977;
690168;-0.017578;0.029297;0.023438;
690308;-0.022461;0.029297;0.000977;
690448;-0.020508;0.033203;0.002930;
690588;-0.019531;0.029297;0.025391;
690724;-0.022461;0.032227;0.004883;
690854;-0.017578;0.031250;0.050781;
691003;-0.018555;0.030273;0.020508;
691145;-0.020508;0.031250;0.024414;
691293;-0.022461;0.031250;0.021484;
691444;-0.020508;0.029297;0.028320;
691584;-0.021484;0.035156;0.019531;
691728;-0.028320;0.028320;0.007812;
691868;-0.020508;0.027344;0.044922;
692008;-0.019531;0.025391;0.001953;
692148;-0.022461;0.030273;0.020508;
692288;-0.020508;0.022461;0.011719;
692428;-0.020508;0.030273;0.010742;
692568;-0.025391;0.029297;0.015625;
692708;-0.021484;0.025391;0.013672;
692848;-0.022461;0.028320;0.006836;
692998;-0.026367;0.029297;0.010742;
693139;-0.022461;0.027344;0.011719;
693288;-0.023438;0.027344;0.010742;
693428;-0.025391;0.026367;0.011719;
693568;-0.023438;0.026367;-0.004883;
693703;-0.024414;0.025391;0.012695;
693845;-0.025391;0.023438;0.006836;
693993;-0.023438;0.024414;-0.000977;
694123;-0.024414;0.022461;0.005859;
694264;-0.027344;0.023438;0.005859;
694408;-0.027344;0.025391;0.007812;
694544;-0.023438;0.022461;0.010742;
694673;-0.025391;0.018555;0.007812;
694814;-0.026367;0.023438;0.002930;
694954;-0.026367;0.026367;0.005859;
695093;-0.027344;0.027344;0.005859;
695223;-0.027344;0.034180;0.001953;
695354;-0.029297;0.034180;0.003906;
695508;-0.031250;0.029297;-0.003906;
695648;-0.029297;0.037109;0.002930;
695783;-0.029297;0.040039;-0.003906;
695928;-0.029297;0.039062;0.002930;
696068;-0.030273;0.039062;-0.001953;
696218;-0.029297;0.037109;-0.000977;
696358;-0.030273;0.040039;-0.002930;
696493;-0.031250;0.029297;-0.002930;
696638;-0.032227;0.033203;-0.011719;
696778;-0.032227;0.033203;-0.004883;
696918;-0.036133;0.036133;-0.015625;
697058;-0.030273;0.040039;0.019531;
697194;-0.035156;0.044922;0.010742;
697333;-0.030273;0.041016;0.027344;
697478;-0.035156;0.045898;0.020508;
697613;-0.036133;0.041016;0.009766;
697763;-0.032227;0.038086;0.025391;
697914;-0.037109;0.037109;0.020508;
698063;-0.038086;0.040039;0.001953;
698214;-0.031250;0.034180;0.038086;
698363;-0.037109;0.035156;0.011719;
698504;-0.036133;0.031250;0.043945;
698648;-0.041016;0.032227;-0.004883;
698798;-0.038086;0.031250;0.029297;
698938;-0.046875;0.029297;-0.003906;
699088;-0.037109;0.032227;0.068359;
699228;-0.051758;0.029297;0.053711;
699368;-0.042969;0.032227;0.169922;
699508;-0.047852;0.038086;0.194336;
699648;-0.048828;0.029297;0.281250;
699788;-0.043945;0.027344;0.366211;
699928;-0.039062;0.027344;0.446289;
700068;-0.026367;0.025391;0.546875;
700208;-0.024414;0.020508;0.661133;
700348;-0.015625;0.025391;0.764648;
700488;-0.008789;0.028320;0.863281;
700623;-0.004883;0.025391;0.937500;
700763;-0.002930;0.030273;1.038086;
700914;0.005859;0.025391;1.139648;
701065;0.004883;0.023438;1.190430;
701203;0.012695;0.026367;1.242188;
701345;0.022461;0.029297;1.289062;
701476;0.026367;0.021484;1.336914;
701613;0.033203;0.021484;1.373047;
701743;0.038086;0.022461;1.405273;
701878;0.043945;0.022461;1.449219;
702028;0.046875;0.019531;1.494141;
702168;0.047852;0.021484;1.506836;
702308;0.051758;0.019531;1.551758;
702448;0.049805;0.018555;1.551758;
702588;0.047852;0.020508;1.594727;
702728;0.043945;0.022461;1.605469;
702868;0.048828;0.016602;1.638672;
703008;0.048828;0.027344;1.666016;
703148;0.049805;0.024414;1.673828;
703298;0.049805;0.024414;1.695312;
703438;0.051758;0.023438;1.708008;
703578;0.052734;0.028320;1.745117;
703728;0.050781;0.025391;1.759766;
703863;0.052734;0.030273;1.790039;
704028;0.052734;0.037109;1.824219;
704163;0.050781;0.039062;1.842773;
704304;0.054688;0.041016;1.879883;
704433;0.053711;0.035156;1.885742;
704573;0.048828;0.035156;1.916016;
704723;0.054688;0.031250;1.913086;
704864;0.056641;0.028320;1.929688;
705003;0.063477;0.022461;1.967773;
705148;0.050781;0.025391;1.988281;
705288;0.051758;0.009766;1.970703;
705438;0.065430;0.008789;1.968750;
705578;0.057617;0.013672;1.957031;
705718;0.055664;0.017578;1.958008;
705858;0.046875;0.026367;1.929688;
705998;0.045898;0.022461;1.909180;
706138;0.043945;0.023438;1.902344;
706278;0.040039;0.032227;1.877930;
706418;0.035156;0.022461;1.844727;
706568;0.029297;0.027344;1.817383;
706708;0.024414;0.022461;1.802734;
706848;0.019531;0.020508;1.768555;
706998;0.020508;0.020508;1.765625;
707133;0.016602;0.016602;1.753906;
707265;0.018555;0.018555;1.752930;
707405;0.015625;0.016602;1.749023;
707554;0.009766;0.022461;1.747070;
707703;0.012695;0.017578;1.766602;
707843;0.010742;0.021484;1.766602;
707988;0.009766;0.019531;1.768555;
708128;0.009766;0.019531;1.790039;
708278;0.008789;0.014648;1.794922;
708418;0.010742;0.022461;1.806641;
708558;0.011719;0.023438;1.820312;
708708;0.011719;0.026367;1.848633;
708848;0.015625;0.024414;1.861328;
708988;0.014648;0.022461;1.880859;
709138;0.017578;0.019531;1.888672;
709278;0.016602;0.015625;1.893555;
709418;0.015625;0.011719;1.895508;
709558;0.015625;0.006836;1.883789;
709698;0.009766;0.002930;1.875000;
709838;0.010742;0.007812;1.867188;
709983;0.010742;0.000977;1.865234;
710133;0.007812;0.008789;1.855469;
710273;0.003906;0.004883;1.848633;
710423;0.000977;0.006836;1.823242;
710573;0.000977;0.009766;1.816406;
710728;-0.000977;0.016602;1.807617;
710868;-0.004883;0.014648;1.793945;
711003;-0.006836;0.023438;1.781250;
711143;-0.008789;0.023438;1.768555;
711293;-0.012695;0.026367;1.748047;
711448;-0.016602;0.023438;1.722656;
711588;-0.014648;0.026367;1.722656;
711728;-0.019531;0.028320;1.711914;
711868;-0.019531;0.028320;1.699219;
712008;-0.022461;0.030273;1.698242;
712148;-0.023438;0.028320;1.697266;
712288;-0.025391;0.027344;1.694336;
712438;-0.026367;0.026367;1.699219;
712578;-0.024414;0.023438;1.713867;
712718;-0.026367;0.025391;1.728516;
712858;-0.024414;0.021484;1.727539;
712998;-0.025391;0.022461;1.744141;
713138;-0.023438;0.020508;1.768555;
713288;-0.023438;0.021484;1.782227;
713423;-0.021484;0.022461;1.801758;
713563;-0.020508;0.024414;1.815430;
713713;-0.021484;0.020508;1.826172;
713843;-0.016602;0.022461;1.838867;
713983;-0.019531;0.020508;1.847656;
714123;-0.017578;0.018555;1.859375;
714263;-0.016602;0.018555;1.863281;
714393;-0.017578;0.016602;1.863281;
714548;-0.018555;0.015625;1.867188;
714688;-0.019531;0.012695;1.873047;
714828;-0.016602;0.016602;1.873047;
714978;-0.018555;0.018555;1.863281;
715118;-0.018555;0.019531;1.868164;
715258;-0.018555;0.021484;1.865234;
715398;-0.020508;0.017578;1.870117;
715538;-0.023438;0.022461;1.864258;
715678;-0.022461;0.018555;1.853516;
715818;-0.022461;0.019531;1.845703;
715958;-0.026367;0.020508;1.846680;
716108;-0.024414;0.028320;1.843750;
716248;-0.023438;0.023438;1.838867;
716388;-0.029297;0.019531;1.817383;
716513;-0.027344;0.023438;1.811523;
716663;-0.031250;0.013672;1.803711;
716815;-0.026367;0.015625;1.802734;
716965;-0.029297;0.013672;1.788086;
717115;-0.031250;0.019531;1.786133;
717263;-0.033203;0.020508;1.769531;
717418;-0.034180;0.021484;1.755859;
717558;-0.033203;0.015625;1.757812;
717698;-0.041016;0.022461;1.726562;
717838;-0.039062;0.030273;1.693359;
717978;-0.039062;0.026367;1.688477;
718128;-0.044922;0.027344;1.684570;
718268;-0.043945;0.023438;1.658203;
718408;-0.047852;0.013672;1.620117;
718558;-0.046875;0.018555;1.610352;
718698;-0.051758;0.014648;1.595703;
718848;-0.050781;0.015625;1.579102;
718988;-0.051758;0.017578;1.559570;
719128;-0.049805;0.016602;1.547852;
719278;-0.054688;0.020508;1.548828;
719403;-0.056641;0.023438;1.536133;
719543;-0.055664;0.022461;1.528320;
719684;-0.060547;0.022461;1.533203;
719823;-0.056641;0.028320;1.524414;
719958;-0.055664;0.022461;1.516602;
720095;-0.055664;0.023438;1.516602;
720223;-0.055664;0.026367;1.519531;
720373;-0.055664;0.024414;1.525391;
720514;-0.055664;0.015625;1.513672;
720668;-0.055664;0.017578;1.517578;
720808;-0.053711;0.022461;1.523438;
720948;-0.057617;0.024414;1.520508;
721088;-0.054688;0.019531;1.531250;
721228;-0.049805;0.022461;1.518555;
721368;-0.051758;0.013672;1.528320;
721508;-0.055664;0.017578;1.521484;
721648;-0.054688;0.019531;1.523438;
721788;-0.055664;0.018555;1.521484;
721928;-0.058594;0.025391;1.525391;
722068;-0.048828;0.019531;1.517578;
722208;-0.053711;0.024414;1.517578;
722348;-0.054688;0.019531;1.515625;
722488;-0.049805;0.017578;1.520508;
722623;-0.054688;0.017578;1.500000;
722763;-0.053711;0.023438;1.507812;
722898;-0.050781;0.022461;1.507812;
723028;-0.053711;0.023438;1.494141;
723163;-0.052734;0.016602;1.503906;
723304;-0.052734;0.023438;1.502930;
723455;-0.049805;0.024414;1.498047;
723596;-0.050781;0.022461;1.495117;
723743;-0.054688;0.018555;1.492188;
723893;-0.051758;0.028320;1.500000;
724048;-0.051758;0.023438;1.494141;
724188;-0.055664;0.021484;1.478516;
724328;-0.050781;0.027344;1.468750;
724468;-0.054688;0.022461;1.454102;
724608;-0.053711;0.020508;1.466797;
724748;-0.052734;0.023438;1.456055;
724888;-0.053711;0.020508;1.446289;
725028;-0.052734;0.020508;1.440430;
725168;-0.054688;0.021484;1.426758;
725308;-0.052734;0.018555;1.416016;
725448;-0.052734;0.024414;1.426758;
725588;-0.053711;0.029297;1.427734;
725728;-0.051758;0.024414;1.426758;
725868;-0.053711;0.025391;1.422852;
726003;-0.052734;0.026367;1.422852;
726154;-0.048828;0.020508;1.438477;
726304;-0.052734;0.022461;1.435547;
726443;-0.047852;0.021484;1.432617;
726593;-0.049805;0.020508;1.429688;
726733;-0.048828;0.026367;1.424805;
726873;-0.047852;0.024414;1.428711;
727018;-0.047852;0.019531;1.427734;
727168;-0.050781;0.020508;1.416992;
727308;-0.047852;0.022461;1.429688;
727448;-0.047852;0.022461;1.424805;
727598;-0.047852;0.023438;1.409180;
727738;-0.050781;0.024414;1.403320;
727878;-0.049805;0.025391;1.378906;
728018;-0.048828;0.022461;1.375977;
728158;-0.053711;0.027344;1.366211;
728298;-0.048828;0.026367;1.367188;
728438;-0.053711;0.028320;1.352539;
728578;-0.048828;0.028320;1.352539;
728718;-0.049805;0.029297;1.346680;
728868;-0.049805;0.026367;1.334961;
729013;-0.050781;0.029297;1.335938;
729155;-0.050781;0.027344;1.332031;
729304;-0.051758;0.021484;1.326172;
729444;-0.049805;0.026367;1.323242;
729573;-0.050781;0.023438;1.324219;
729704;-0.052734;0.022461;1.329102;
729843;-0.048828;0.021484;1.321289;
729988;-0.048828;0.022461;1.320312;
730128;-0.047852;0.021484;1.314453;
730268;-0.047852;0.020508;1.314453;
730408;-0.047852;0.021484;1.317383;
730548;-0.045898;0.023438;1.312500;
730698;-0.047852;0.019531;1.301758;
730838;-0.046875;0.024414;1.296875;
730978;-0.046875;0.020508;1.292969;
731118;-0.043945;0.027344;1.297852;
731258;-0.043945;0.021484;1.293945;
731408;-0.043945;0.024414;1.292969;
731548;-0.045898;0.020508;1.291992;
731688;-0.043945;0.019531;1.290039;
731828;-0.043945;0.024414;1.287109;
731963;-0.044922;0.016602;1.282227;
732094;-0.043945;0.020508;1.284180;
732234;-0.042969;0.018555;1.278320;
732363;-0.043945;0.019531;1.278320;
732505;-0.040039;0.021484;1.275391;
732644;-0.040039;0.019531;1.255859;
732783;-0.042969;0.023438;1.273438;
732923;-0.041992;0.025391;1.266602;
733074;-0.043945;0.026367;1.252930;
733218;-0.043945;0.023438;1.239258;
733368;-0.041992;0.018555;1.229492;
733508;-0.037109;0.023438;1.224609;
733648;-0.043945;0.021484;1.204102;
733798;-0.043945;0.022461;1.192383;
733938;-0.043945;0.027344;1.184570;
734078;-0.043945;0.025391;1.156250;
734228;-0.043945;0.023438;1.142578;
734368;-0.043945;0.026367;1.140625;
734508;-0.045898;0.025391;1.134766;
734648;-0.043945;0.023438;1.126953;
734783;-0.043945;0.024414;1.124023;
734938;-0.044922;0.028320;1.110352;
735078;-0.041992;0.023438;1.119141;
735214;-0.043945;0.026367;1.111328;
735353;-0.041992;0.024414;1.107422;
735503;-0.042969;0.027344;1.098633;
735654;-0.043945;0.025391;1.101562;
735794;-0.042969;0.024414;1.095703;
735936;-0.043945;0.022461;1.090820;
736074;-0.041992;0.025391;1.087891;
736223;-0.041016;0.023438;1.081055;
736373;-0.044922;0.023438;1.078125;
736515;-0.041992;0.025391;1.072266;
736663;-0.045898;0.024414;1.051758;
736804;-0.042969;0.021484;1.051758;
736948;-0.044922;0.019531;1.043945;
737088;-0.044922;0.023438;1.021484;
737228;-0.045898;0.025391;1.015625;
737378;-0.045898;0.026367;1.003906;
737513;-0.045898;0.028320;0.989258;
737648;-0.041992;0.031250;0.989258;
737788;-0.047852;0.029297;0.978516;
737928;-0.048828;0.036133;0.965820;
738078;-0.047852;0.028320;0.952148;
738214;-0.049805;0.027344;0.953125;
738353;-0.049805;0.031250;0.933594;
738498;-0.047852;0.031250;0.923828;
738638;-0.048828;0.029297;0.938477;
738778;-0.049805;0.029297;0.941406;
738913;-0.045898;0.038086;0.926758;
739053;-0.047852;0.032227;0.926758;
739203;-0.048828;0.038086;0.937500;
739356;-0.044922;0.029297;0.928711;
739495;-0.043945;0.031250;0.930664;
739633;-0.046875;0.032227;0.935547;
739773;-0.044922;0.026367;0.933594;
739914;-0.042969;0.019531;0.916016;
740053;-0.041992;0.023438;0.927734;
740193;-0.041992;0.024414;0.942383;
740333;-0.036133;0.023438;0.949219;
740483;-0.038086;0.026367;0.951172;
740628;-0.041992;0.032227;0.938477;
740768;-0.039062;0.025391;0.930664;
740908;-0.035156;0.027344;0.945312;
741048;-0.039062;0.026367;0.940430;
741183;-0.035156;0.024414;0.947266;
741328;-0.033203;0.019531;0.944336;
741468;-0.036133;0.026367;0.930664;
741608;-0.033203;0.018555;0.932617;
741748;-0.031250;0.027344;0.935547;
741888;-0.034180;0.018555;0.916992;
742028;-0.032227;0.023438;0.901367;
742168;-0.034180;0.024414;0.882812;
742303;-0.035156;0.033203;0.866211;
742443;-0.033203;0.023438;0.844727;
742583;-0.035156;0.029297;0.803711;
742733;-0.034180;0.034180;0.775391;
742864;-0.034180;0.033203;0.750000;
743014;-0.036133;0.027344;0.727539;
743143;-0.030273;0.032227;0.701172;
743294;-0.031250;0.026367;0.690430;
743438;-0.027344;0.026367;0.694336;
743588;-0.023438;0.026367;0.702148;
743728;-0.016602;0.027344;0.708984;
743868;-0.011719;0.024414;0.733398;
744018;-0.008789;0.027344;0.755859;
744158;-0.002930;0.026367;0.767578;
744298;0.002930;0.026367;0.792969;
744438;0.010742;0.029297;0.802734;
744578;0.012695;0.028320;0.831055;
744718;0.022461;0.025391;0.858398;
744858;0.030273;0.026367;0.877930;
744998;0.035156;0.026367;0.900391;
745138;0.041016;0.023438;0.895508;
745278;0.045898;0.029297;0.881836;
745414;0.046875;0.033203;0.874023;
745564;0.049805;0.031250;0.850586;
745714;0.052734;0.026367;0.823242;
745853;0.047852;0.029297;0.790039;
745988;0.048828;0.021484;0.758789;
746128;0.046875;0.025391;0.744141;
746268;0.047852;0.021484;0.736328;
746413;0.047852;0.024414;0.700195;
746554;0.045898;0.023438;0.681641;
746683;0.045898;0.021484;0.657227;
746823;0.043945;0.020508;0.660156;
746964;0.043945;0.018555;0.647461;
747118;0.043945;0.017578;0.659180;
747258;0.045898;0.020508;0.651367;
747398;0.042969;0.018555;0.668945;
747534;0.040039;0.015625;0.683594;
747668;0.036133;0.021484;0.696289;
747808;0.035156;0.017578;0.720703;
747948;0.029297;0.016602;0.740234;
748093;0.030273;0.021484;0.761719;
748233;0.031250;0.019531;0.787109;
748378;0.031250;0.020508;0.791992;
748518;0.034180;0.022461;0.797852;
748658;0.036133;0.025391;0.803711;
748798;0.035156;0.026367;0.812500;
748924;0.036133;0.021484;0.801758;
749053;0.039062;0.025391;0.780273;
749193;0.037109;0.023438;0.774414;
749343;0.035156;0.026367;0.778320;
749494;0.034180;0.023438;0.767578;
749623;0.035156;0.026367;0.775391;
749774;0.033203;0.025391;0.757812;
749914;0.032227;0.025391;0.771484;
750063;0.031250;0.027344;0.767578;
750203;0.032227;0.025391;0.779297;
750333;0.032227;0.021484;0.780273;
750484;0.031250;0.029297;0.783203;
750623;0.028320;0.025391;0.773438;
750776;0.029297;0.028320;0.780273;
750928;0.028320;0.025391;0.781250;
751058;0.026367;0.022461;0.777344;
751208;0.025391;0.028320;0.781250;
751348;0.028320;0.023438;0.785156;
751489;0.027344;0.022461;0.782227;
751623;0.027344;0.026367;0.775391;
751758;0.023438;0.031250;0.765625;
751898;0.025391;0.028320;0.765625;
752038;0.024414;0.032227;0.768555;
752178;0.026367;0.031250;0.765625;
752313;0.027344;0.029297;0.776367;
752443;0.028320;0.028320;0.773438;
752578;0.027344;0.026367;0.774414;
752713;0.027344;0.030273;0.783203;
752864;0.028320;0.028320;0.796875;
753003;0.029297;0.028320;0.814453;
753153;0.031250;0.023438;0.827148;
753293;0.032227;0.024414;0.845703;
753433;0.032227;0.023438;0.850586;
753573;0.034180;0.028320;0.860352;
753718;0.035156;0.025391;0.882812;
753846;0.034180;0.026367;0.894531;
753988;0.037109;0.021484;0.920898;
754124;0.041992;0.024414;0.954102;
754263;0.044922;0.024414;0.977539;
754415;0.045898;0.024414;1.003906;
754563;0.046875;0.022461;1.033203;
754703;0.050781;0.023438;1.030273;
754844;0.049805;0.024414;1.024414;
754984;0.047852;0.024414;1.024414;
755138;0.045898;0.027344;1.009766;
755273;0.045898;0.021484;0.990234;
755428;0.042969;0.024414;0.977539;
755568;0.041992;0.025391;0.977539;
755708;0.043945;0.026367;0.952148;
755850;0.038086;0.027344;0.927734;
755996;0.036133;0.030273;0.911133;
756133;0.037109;0.030273;0.907227;
756263;0.035156;0.030273;0.891602;
756418;0.036133;0.030273;0.894531;
756558;0.034180;0.026367;0.891602;
756698;0.033203;0.032227;0.896484;
756834;0.036133;0.027344;0.901367;
756988;0.039062;0.031250;0.915039;
757123;0.036133;0.029297;0.933594;
757256;0.039062;0.036133;0.972656;
757403;0.041992;0.031250;0.982422;
757534;0.045898;0.028320;1.012695;
757683;0.048828;0.027344;1.029297;
757825;0.050781;0.026367;1.065430;
757974;0.051758;0.019531;1.089844;
758113;0.055664;0.028320;1.115234;
758253;0.058594;0.023438;1.130859;
758403;0.058594;0.022461;1.153320;
758543;0.063477;0.021484;1.160156;
758693;0.066406;0.025391;1.166016;
758844;0.064453;0.023438;1.171875;
758998;0.062500;0.024414;1.159180;
759138;0.060547;0.023438;1.146484;
759288;0.056641;0.022461;1.120117;
759423;0.054688;0.022461;1.092773;
759568;0.050781;0.024414;1.072266;
759708;0.052734;0.018555;1.049805;
759848;0.048828;0.025391;1.023438;
759988;0.044922;0.025391;1.006836;
760123;0.044922;0.030273;0.977539;
760278;0.041016;0.029297;0.949219;
760418;0.037109;0.028320;0.947266;
760568;0.038086;0.028320;0.941406;
760704;0.038086;0.028320;0.946289;
760843;0.040039;0.029297;0.947266;
760983;0.038086;0.030273;0.941406;
761113;0.038086;0.033203;0.955078;
761263;0.037109;0.030273;0.965820;
761393;0.040039;0.029297;0.988281;
761543;0.043945;0.028320;1.011719;
761684;0.045898;0.029297;1.034180;
761838;0.050781;0.026367;1.058594;
761974;0.050781;0.025391;1.068359;
762104;0.052734;0.022461;1.089844;
762248;0.050781;0.027344;1.097656;
762385;0.053711;0.028320;1.114258;
762523;0.056641;0.026367;1.130859;
762663;0.057617;0.025391;1.140625;
762804;0.057617;0.021484;1.143555;
762948;0.059570;0.025391;1.153320;
763088;0.059570;0.024414;1.142578;
763223;0.059570;0.024414;1.142578;
763374;0.058594;0.029297;1.137695;
763518;0.053711;0.028320;1.128906;
763658;0.054688;0.030273;1.121094;
763798;0.056641;0.029297;1.115234;
763936;0.057617;0.032227;1.112305;
764074;0.051758;0.031250;1.090820;
764208;0.050781;0.031250;1.079102;
764354;0.049805;0.032227;1.063477;
764508;0.047852;0.027344;1.059570;
764648;0.047852;0.031250;1.049805;
764788;0.047852;0.026367;1.051758;
764924;0.049805;0.028320;1.042969;
765063;0.047852;0.029297;1.032227;
765214;0.044922;0.029297;1.017578;
765363;0.044922;0.026367;1.006836;
765515;0.042969;0.028320;1.000000;
765654;0.039062;0.030273;0.983398;
765808;0.039062;0.025391;0.971680;
765945;0.041016;0.024414;0.969727;
766078;0.041992;0.026367;0.963867;
766224;0.039062;0.026367;0.957031;
766373;0.037109;0.021484;0.943359;
766524;0.038086;0.026367;0.930664;
766675;0.037109;0.023438;0.938477;
766814;0.036133;0.025391;0.936523;
766968;0.035156;0.022461;0.938477;
767108;0.037109;0.024414;0.942383;
767248;0.040039;0.025391;0.943359;
767384;0.037109;0.023438;0.937500;
767513;0.037109;0.027344;0.934570;
767648;0.034180;0.029297;0.926758;
767788;0.038086;0.025391;0.949219;
767928;0.041016;0.027344;0.942383;
768068;0.034180;0.028320;0.934570;
768214;0.037109;0.029297;0.943359;
768354;0.035156;0.024414;0.937500;
768508;0.038086;0.022461;0.944336;
768644;0.035156;0.028320;0.947266;
768778;0.035156;0.033203;0.943359;
768913;0.033203;0.030273;0.946289;
769064;0.038086;0.029297;0.952148;
769214;0.037109;0.024414;0.942383;
769343;0.037109;0.030273;0.938477;
769483;0.033203;0.028320;0.933594;
769613;0.033203;0.029297;0.954102;
769753;0.037109;0.031250;0.958008;
769895;0.040039;0.022461;0.980469;
770024;0.038086;0.027344;0.992188;
770163;0.041016;0.025391;1.000977;
770293;0.043945;0.031250;1.029297;
770444;0.040039;0.025391;1.032227;
770583;0.043945;0.024414;1.048828;
770728;0.046875;0.025391;1.073242;
770868;0.049805;0.028320;1.088867;
771008;0.049805;0.025391;1.090820;
771144;0.052734;0.029297;1.098633;
771283;0.047852;0.026367;1.096680;
771428;0.050781;0.029297;1.104492;
771578;0.050781;0.025391;1.105469;
771718;0.047852;0.030273;1.111328;
771853;0.048828;0.030273;1.103516;
772004;0.049805;0.024414;1.106445;
772158;0.050781;0.028320;1.107422;
772298;0.048828;0.026367;1.101562;
772438;0.049805;0.030273;1.107422;
772574;0.050781;0.025391;1.115234;
772713;0.051758;0.028320;1.120117;
772853;0.051758;0.022461;1.116211;
772993;0.053711;0.023438;1.130859;
773133;0.053711;0.027344;1.128906;
773283;0.052734;0.026367;1.126953;
773434;0.053711;0.024414;1.123047;
773583;0.049805;0.027344;1.113281;
773723;0.047852;0.027344;1.123047;
773875;0.049805;0.024414;1.124023;
774013;0.047852;0.029297;1.118164;
774144;0.052734;0.030273;1.130859;
774273;0.050781;0.029297;1.119141;
774428;0.050781;0.027344;1.110352;
774563;0.048828;0.026367;1.099609;
774718;0.048828;0.027344;1.104492;
774858;0.046875;0.031250;1.109375;
774998;0.049805;0.030273;1.108398;
775138;0.048828;0.026367;1.110352;
775273;0.049805;0.033203;1.109375;
775428;0.046875;0.033203;1.088867;
775568;0.044922;0.028320;1.071289;
775708;0.041992;0.030273;1.049805;
775849;0.041992;0.030273;1.034180;
775995;0.037109;0.030273;1.017578;
776148;0.036133;0.026367;1.000977;
776288;0.038086;0.032227;0.996094;
776423;0.038086;0.028320;0.982422;
776574;0.036133;0.027344;0.976562;
776713;0.035156;0.026367;0.966797;
776864;0.033203;0.027344;0.963867;
777013;0.035156;0.024414;0.966797;
777164;0.037109;0.028320;0.970703;
777303;0.035156;0.034180;0.972656;
777454;0.036133;0.029297;0.984375;
777594;0.035156;0.032227;1.001953;
777734;0.040039;0.028320;1.019531;
777874;0.037109;0.030273;1.040039;
778023;0.040039;0.023438;1.064453;
778178;0.041992;0.030273;1.080078;
778318;0.046875;0.026367;1.096680;
778458;0.044922;0.030273;1.111328;
778603;0.048828;0.023438;1.128906;
778744;0.049805;0.026367;1.129883;
778888;0.049805;0.027344;1.140625;
779028;0.053711;0.025391;1.151367;
779168;0.050781;0.031250;1.150391;
779303;0.052734;0.028320;1.144531;
779458;0.053711;0.027344;1.133789;
779598;0.049805;0.028320;1.127930;
779748;0.046875;0.031250;1.122070;
779884;0.046875;0.030273;1.118164;
780023;0.044922;0.028320;1.108398;
780164;0.045898;0.023438;1.108398;
780303;0.049805;0.027344;1.110352;
780444;0.047852;0.027344;1.105469;
780593;0.046875;0.028320;1.102539;
780744;0.046875;0.022461;1.098633;
780883;0.046875;0.027344;1.089844;
781033;0.046875;0.028320;1.089844;
781176;0.043945;0.028320;1.091797;
781303;0.045898;0.026367;1.097656;
781443;0.045898;0.028320;1.093750;
781573;0.044922;0.026367;1.083008;
781713;0.044922;0.025391;1.074219;
781868;0.044922;0.029297;1.069336;
782008;0.042969;0.028320;1.060547;
782148;0.040039;0.024414;1.062500;
782288;0.041992;0.027344;1.050781;
782433;0.044922;0.030273;1.048828;
782584;0.041016;0.026367;1.041016;
782717;0.038086;0.026367;1.036133;
782858;0.040039;0.025391;1.023438;
783008;0.038086;0.029297;1.032227;
783148;0.039062;0.027344;1.033203;
783293;0.037109;0.032227;1.027344;
783428;0.039062;0.032227;1.030273;
783568;0.039062;0.027344;1.038086;
783703;0.039062;0.028320;1.041992;
783863;0.040039;0.029297;1.034180;
784003;0.041992;0.029297;1.028320;
784134;0.037109;0.029297;1.030273;
784274;0.039062;0.030273;1.029297;
784418;0.040039;0.029297;1.038086;
784564;0.040039;0.030273;1.043945;
784703;0.040039;0.023438;1.043945;
784853;0.041992;0.025391;1.050781;
784983;0.041992;0.028320;1.040039;
785123;0.042969;0.024414;1.037109;
785283;0.043945;0.025391;1.041992;
785434;0.037109;0.022461;1.024414;
785568;0.038086;0.028320;1.044922;
785708;0.041992;0.027344;1.037109;
785848;0.041992;0.028320;1.041992;
785988;0.040039;0.027344;1.029297;
786124;0.039062;0.026367;1.027344;
786264;0.039062;0.026367;1.025391;
786418;0.039062;0.029297;1.021484;
786558;0.039062;0.024414;1.015625;
786698;0.040039;0.026367;1.028320;
786838;0.039062;0.027344;1.030273;
786984;0.038086;0.026367;1.020508;
787124;0.041016;0.029297;1.024414;
787268;0.035156;0.029297;1.009766;
787413;0.039062;0.030273;1.014648;
787543;0.036133;0.025391;1.007812;
787684;0.036133;0.028320;1.020508;
787833;0.037109;0.029297;1.018555;
787984;0.040039;0.030273;1.023438;
788123;0.039062;0.031250;1.016602;
788274;0.040039;0.029297;1.019531;
788414;0.039062;0.026367;1.013672;
788563;0.037109;0.025391;1.013672;
788708;0.037109;0.026367;1.018555;
788848;0.038086;0.027344;1.023438;
788988;0.038086;0.030273;1.029297;
789128;0.038086;0.023438;1.036133;
789268;0.038086;0.024414;1.034180;
789408;0.040039;0.028320;1.019531;
789548;0.040039;0.029297;1.029297;
789688;0.036133;0.025391;1.016602;
789828;0.040039;0.027344;1.026367;
789973;0.041992;0.027344;1.037109;
790118;0.040039;0.033203;1.027344;
790268;0.041992;0.030273;1.032227;
790408;0.038086;0.028320;1.033203;
790549;0.038086;0.026367;1.023438;
790695;0.041016;0.027344;1.027344;
790844;0.036133;0.022461;1.018555;
790974;0.037109;0.023438;1.017578;
791113;0.039062;0.024414;1.018555;
791253;0.038086;0.023438;1.019531;
791403;0.039062;0.025391;1.020508;
791543;0.041016;0.025391;1.021484;
791673;0.038086;0.020508;1.010742;
791813;0.037109;0.024414;1.009766;
791963;0.039062;0.024414;1.006836;
792114;0.038086;0.023438;1.010742;
792263;0.036133;0.023438;1.011719;
792414;0.038086;0.026367;1.015625;
792568;0.038086;0.027344;1.018555;
792718;0.036133;0.030273;1.013672;
792858;0.036133;0.027344;1.011719;
792994;0.039062;0.027344;1.008789;
793137;0.036133;0.028320;1.004883;
793278;0.037109;0.025391;1.005859;
793428;0.035156;0.026367;1.002930;
793568;0.036133;0.026367;1.009766;
793718;0.037109;0.030273;1.013672;
793843;0.038086;0.031250;1.027344;
793973;0.037109;0.030273;1.027344;
794118;0.038086;0.027344;1.032227;
794258;0.039062;0.025391;1.048828;
794383;0.041016;0.031250;1.055664;
794514;0.041992;0.026367;1.069336;
794664;0.043945;0.024414;1.070312;
794803;0.044922;0.027344;1.081055;
794953;0.045898;0.028320;1.084961;
795095;0.044922;0.024414;1.087891;
795233;0.046875;0.025391;1.097656;
795373;0.046875;0.025391;1.098633;
795503;0.046875;0.028320;1.101562;
795644;0.046875;0.027344;1.102539;
795783;0.047852;0.029297;1.110352;
795933;0.045898;0.027344;1.100586;
796078;0.045898;0.026367;1.095703;
796218;0.047852;0.031250;1.090820;
796358;0.042969;0.028320;1.079102;
796499;0.044922;0.027344;1.084961;
796643;0.042969;0.027344;1.079102;
796798;0.044922;0.025391;1.071289;
796938;0.042969;0.027344;1.070312;
797078;0.043945;0.031250;1.063477;
797218;0.044922;0.028320;1.057617;
797354;0.041992;0.026367;1.069336;
797498;0.042969;0.032227;1.059570;
797635;0.042969;0.029297;1.058594;
797763;0.040039;0.025391;1.048828;
797893;0.040039;0.027344;1.040039;
798043;0.039062;0.028320;1.043945;
798184;0.041016;0.024414;1.042969;
798314;0.041992;0.028320;1.047852;
798453;0.042969;0.026367;1.054688;
798594;0.041016;0.025391;1.047852;
798734;0.042969;0.026367;1.055664;
798883;0.042969;0.028320;1.053711;
799023;0.041992;0.026367;1.052734;
799174;0.040039;0.030273;1.051758;
799328;0.041016;0.023438;1.044922;
799468;0.041992;0.030273;1.055664;
799608;0.043945;0.028320;1.060547;
799743;0.040039;0.028320;1.050781;
799888;0.041016;0.030273;1.049805;
800028;0.043945;0.026367;1.050781;
800168;0.043945;0.029297;1.046875;
800308;0.040039;0.031250;1.061523;
800443;0.041992;0.027344;1.055664;
800598;0.041992;0.029297;1.054688;
800748;0.042969;0.027344;1.060547;
800888;0.042969;0.027344;1.060547;
801023;0.041016;0.029297;1.052734;
801173;0.041016;0.027344;1.051758;
801324;0.037109;0.025391;1.041016;
801464;0.043945;0.029297;1.038086;
801593;0.041992;0.030273;1.042969;
801745;0.041016;0.028320;1.029297;
801883;0.043945;0.025391;1.035156;
802014;0.041992;0.024414;1.025391;
802143;0.041992;0.022461;1.031250;
802293;0.038086;0.023438;1.017578;
802433;0.038086;0.025391;1.016602;
802583;0.039062;0.026367;1.022461;
802735;0.041016;0.026367;1.021484;
802873;0.040039;0.024414;1.018555;
803023;0.039062;0.027344;1.017578;
803164;0.036133;0.024414;1.002930;
803293;0.038086;0.026367;0.995117;
803438;0.038086;0.024414;1.001953;
803573;0.041992;0.024414;1.004883;
803718;0.038086;0.026367;1.008789;
803868;0.040039;0.027344;1.009766;
804008;0.041016;0.027344;1.014648;
804144;0.038086;0.026367;1.004883;
804283;0.036133;0.020508;1.004883;
804418;0.036133;0.024414;0.998047;
804558;0.038086;0.026367;1.002930;
804698;0.040039;0.026367;1.004883;
804838;0.039062;0.028320;1.005859;
804978;0.036133;0.027344;0.998047;
805114;0.038086;0.028320;1.006836;
805254;0.036133;0.031250;1.004883;
805403;0.039062;0.032227;1.006836;
805544;0.038086;0.030273;1.016602;
805683;0.038086;0.029297;1.021484;
805823;0.037109;0.026367;1.010742;
805953;0.040039;0.028320;1.006836;
806083;0.037109;0.028320;1.004883;
806213;0.039062;0.028320;1.005859;
806364;0.040039;0.030273;1.007812;
806514;0.036133;0.031250;1.010742;
806664;0.037109;0.029297;1.007812;
806814;0.039062;0.025391;1.007812;
806963;0.037109;0.027344;1.011719;
807108;0.040039;0.029297;1.000977;
807244;0.039062;0.029297;1.003906;
807388;0.039062;0.028320;1.012695;
807528;0.039062;0.026367;1.010742;
807668;0.040039;0.026367;1.014648;
807803;0.038086;0.026367;1.010742;
807953;0.040039;0.026367;1.008789;
808108;0.037109;0.025391;1.010742;
808248;0.037109;0.026367;1.006836;
808388;0.036133;0.025391;1.000000;
808533;0.039062;0.029297;1.005859;
808663;0.038086;0.028320;1.009766;
808795;0.040039;0.027344;1.017578;
808938;0.039062;0.029297;1.001953;
809074;0.037109;0.027344;0.999023;
809223;0.037109;0.028320;0.999023;
809373;0.037109;0.023438;0.989258;
809503;0.038086;0.028320;0.996094;
809643;0.035156;0.031250;0.996094;
809784;0.039062;0.028320;0.996094;
809923;0.037109;0.030273;1.004883;
810073;0.038086;0.028320;1.000977;
810224;0.036133;0.026367;0.993164;
810363;0.037109;0.022461;0.990234;
810508;0.035156;0.027344;1.002930;
810643;0.037109;0.028320;1.004883;
810784;0.038086;0.030273;1.000977;
810934;0.038086;0.030273;1.001953;
811083;0.036133;0.025391;1.002930;
811218;0.039062;0.031250;0.998047;
811358;0.037109;0.031250;1.006836;
811498;0.037109;0.026367;1.011719;
811643;0.037109;0.028320;1.011719;
811788;0.040039;0.032227;1.012695;
811924;0.038086;0.028320;1.009766;
812064;0.034180;0.031250;0.997070;
812193;0.036133;0.026367;0.998047;
812328;0.036133;0.027344;1.004883;
812468;0.038086;0.026367;1.013672;
812608;0.037109;0.027344;1.012695;
812753;0.037109;0.028320;1.012695;
812893;0.035156;0.028320;1.011719;
813043;0.038086;0.025391;1.012695;
813183;0.038086;0.029297;1.008789;
813323;0.035156;0.032227;1.012695;
813474;0.039062;0.027344;1.014648;
813614;0.037109;0.031250;1.019531;
813764;0.038086;0.027344;1.017578;
813915;0.036133;0.029297;1.023438;
814063;0.038086;0.027344;1.012695;
814203;0.035156;0.028320;1.012695;
814354;0.036133;0.026367;1.014648;
814503;0.039062;0.024414;1.014648;
814654;0.038086;0.025391;1.016602;
814798;0.039062;0.026367;1.016602;
814938;0.040039;0.031250;1.029297;
815078;0.039062;0.025391;1.022461;
815228;0.040039;0.027344;1.025391;
815358;0.038086;0.026367;1.019531;
815494;0.039062;0.027344;1.021484;
815625;0.037109;0.028320;1.020508;
815778;0.035156;0.026367;1.033203;
815918;0.040039;0.026367;1.034180;
816068;0.040039;0.026367;1.052734;
816208;0.041016;0.027344;1.057617;
816344;0.041016;0.026367;1.059570;
816498;0.041016;0.023438;1.071289;
816634;0.041992;0.023438;1.073242;
816768;0.046875;0.028320;1.089844;
816903;0.046875;0.026367;1.101562;
817054;0.045898;0.026367;1.105469;
817193;0.046875;0.025391;1.109375;
817333;0.044922;0.026367;1.117188;
817484;0.043945;0.025391;1.096680;
817623;0.047852;0.025391;1.111328;
817777;0.045898;0.025391;1.110352;
817925;0.046875;0.028320;1.103516;
818064;0.045898;0.023438;1.103516;
818214;0.046875;0.022461;1.095703;
818364;0.043945;0.024414;1.089844;
818503;0.043945;0.027344;1.082031;
818658;0.044922;0.026367;1.075195;
818798;0.044922;0.027344;1.072266;
818938;0.041016;0.023438;1.058594;
819078;0.040039;0.028320;1.063477;
819213;0.042969;0.024414;1.058594;
819358;0.041016;0.025391;1.047852;
819483;0.040039;0.025391;1.042969;
819638;0.039062;0.029297;1.036133;
819778;0.041016;0.030273;1.019531;
819918;0.039062;0.030273;1.018555;
820058;0.038086;0.029297;1.025391;
820204;0.039062;0.028320;1.017578;
820343;0.039062;0.027344;1.016602;
820484;0.040039;0.029297;1.019531;
820624;0.037109;0.028320;1.015625;
820763;0.037109;0.028320;1.010742;
820913;0.037109;0.027344;1.016602;
821063;0.037109;0.028320;1.017578;
821204;0.038086;0.029297;1.017578;
821354;0.038086;0.023438;1.028320;
821503;0.040039;0.028320;1.035156;
821654;0.039062;0.026367;1.030273;
821793;0.041016;0.025391;1.033203;
821935;0.040039;0.021484;1.027344;
822064;0.037109;0.025391;1.027344;
822194;0.040039;0.024414;1.037109;
822328;0.038086;0.022461;1.034180;
822463;0.040039;0.025391;1.030273;
822608;0.040039;0.026367;1.024414;
822748;0.039062;0.022461;1.023438;
822888;0.038086;0.027344;1.025391;
823028;0.041992;0.027344;1.027344;
823173;0.041016;0.027344;1.028320;
823303;0.038086;0.027344;1.027344;
823437;0.041016;0.024414;1.024414;
823564;0.036133;0.027344;1.029297;
823708;0.037109;0.023438;1.021484;
823848;0.038086;0.026367;1.019531;
823988;0.040039;0.026367;1.024414;
824125;0.040039;0.029297;1.019531;
824264;0.038086;0.028320;1.019531;
824403;0.038086;0.023438;1.022461;
824543;0.038086;0.025391;1.023438;
824673;0.037109;0.024414;1.027344;
824803;0.040039;0.027344;1.027344;
824953;0.038086;0.024414;1.020508;
825093;0.038086;0.025391;1.018555;
825243;0.040039;0.029297;1.017578;
825388;0.040039;0.024414;1.011719;
825533;0.039062;0.027344;1.016602;
825683;0.039062;0.026367;1.022461;
825833;0.040039;0.029297;1.033203;
825978;0.041016;0.028320;1.035156;
826118;0.038086;0.024414;1.033203;
826258;0.037109;0.028320;1.035156;
826405;0.038086;0.024414;1.032227;
826546;0.041992;0.025391;1.031250;
826688;0.040039;0.025391;1.030273;
826828;0.040039;0.030273;1.033203;
826958;0.038086;0.029297;1.027344;
827098;0.039062;0.031250;1.028320;
827238;0.039062;0.025391;1.024414;
827378;0.039062;0.026367;1.021484;
827514;0.040039;0.028320;1.024414;
827668;0.038086;0.029297;1.026367;
827803;0.039062;0.025391;1.030273;
827964;0.038086;0.025391;1.031250;
828093;0.041992;0.025391;1.031250;
828243;0.040039;0.025391;1.034180;
828383;0.038086;0.024414;1.022461;
828523;0.036133;0.025391;1.020508;
828663;0.036133;0.023438;1.016602;
828804;0.037109;0.030273;1.018555;
828943;0.038086;0.030273;1.020508;
829083;0.040039;0.026367;1.020508;
829213;0.037109;0.027344;1.019531;
829344;0.039062;0.027344;1.018555;
829498;0.037109;0.024414;1.022461;
829638;0.036133;0.025391;1.013672;
829778;0.037109;0.028320;1.010742;
829928;0.036133;0.027344;1.017578;
830063;0.037109;0.029297;1.018555;
830204;0.038086;0.025391;1.005859;
830334;0.039062;0.026367;1.006836;
830476;0.037109;0.025391;1.004883;
830618;0.038086;0.025391;1.014648;
830768;0.036133;0.027344;1.022461;
830908;0.037109;0.029297;1.022461;
831043;0.037109;0.027344;1.014648;
831183;0.037109;0.026367;1.020508;
831323;0.038086;0.025391;1.014648;
831468;0.039062;0.024414;1.009766;
831593;0.038086;0.026367;1.012695;
831734;0.037109;0.028320;1.017578;
831883;0.037109;0.021484;1.016602;
832023;0.038086;0.029297;1.024414;
832174;0.037109;0.025391;1.016602;
832323;0.040039;0.026367;1.018555;
832473;0.039062;0.026367;1.022461;
832615;0.039062;0.025391;1.028320;
832765;0.037109;0.026367;1.028320;
832913;0.037109;0.027344;1.031250;
833063;0.035156;0.026367;1.032227;
833213;0.036133;0.026367;1.029297;
833368;0.039062;0.032227;1.029297;
833508;0.038086;0.026367;1.030273;
833648;0.038086;0.025391;1.022461;
833788;0.039062;0.025391;1.021484;
833924;0.038086;0.029297;1.021484;
834078;0.039062;0.031250;1.018555;
834228;0.038086;0.027344;1.031250;
834368;0.039062;0.027344;1.024414;
834508;0.037109;0.025391;1.027344;
834643;0.038086;0.026367;1.023438;
834788;0.041016;0.027344;1.024414;
834928;0.037109;0.026367;1.022461;
835068;0.037109;0.029297;1.027344;
835214;0.039062;0.025391;1.033203;
835343;0.037109;0.028320;1.034180;
835483;0.040039;0.028320;1.016602;
835614;0.037109;0.025391;1.015625;
835743;0.038086;0.028320;1.020508;
835883;0.036133;0.028320;1.027344;
836036;0.039062;0.031250;1.030273;
836184;0.037109;0.031250;1.025391;
836325;0.035156;0.030273;1.029297;
836454;0.035156;0.026367;1.018555;
836583;0.035156;0.027344;1.020508;
836733;0.038086;0.029297;1.025391;
836873;0.037109;0.024414;1.025391;
837028;0.039062;0.028320;1.029297;
837168;0.039062;0.031250;1.027344;
837308;0.041016;0.028320;1.035156;
837448;0.040039;0.025391;1.028320;
837583;0.036133;0.027344;1.030273;
837725;0.039062;0.030273;1.029297;
837853;0.038086;0.028320;1.032227;
837998;0.037109;0.026367;1.036133;
838138;0.036133;0.027344;1.039062;
838278;0.039062;0.027344;1.032227;
838413;0.037109;0.027344;1.033203;
838563;0.036133;0.022461;1.029297;
838708;0.039062;0.025391;1.033203;
838844;0.036133;0.027344;1.040039;
838998;0.037109;0.025391;1.031250;
839143;0.040039;0.030273;1.041992;
839293;0.038086;0.029297;1.041016;
839443;0.040039;0.026367;1.043945;
839593;0.037109;0.023438;1.034180;
839724;0.038086;0.025391;1.045898;
839878;0.038086;0.027344;1.036133;
840024;0.037109;0.029297;1.037109;
840164;0.036133;0.031250;1.041016;
840304;0.038086;0.026367;1.045898;
840443;0.039062;0.030273;1.049805;
840584;0.038086;0.029297;1.043945;
840738;0.038086;0.023438;1.036133;
840878;0.038086;0.027344;1.036133;
841028;0.040039;0.024414;1.038086;
841163;0.039062;0.024414;1.042969;
841294;0.039062;0.029297;1.045898;
841438;0.036133;0.027344;1.050781;
841578;0.038086;0.026367;1.036133;
841718;0.040039;0.026367;1.036133;
841853;0.036133;0.026367;1.034180;
841983;0.037109;0.025391;1.034180;
842138;0.040039;0.031250;1.037109;
842278;0.040039;0.032227;1.042969;
842428;0.040039;0.031250;1.039062;
842553;0.040039;0.028320;1.037109;
842683;0.038086;0.027344;1.036133;
842833;0.041016;0.029297;1.045898;
842984;0.038086;0.028320;1.040039;
843123;0.040039;0.030273;1.049805;
843253;0.037109;0.029297;1.038086;
843393;0.040039;0.026367;1.042969;
843533;0.040039;0.028320;1.053711;
843688;0.038086;0.024414;1.035156;
843823;0.039062;0.022461;1.029297;
843973;0.038086;0.028320;1.043945;
844123;0.040039;0.022461;1.047852;
844275;0.041016;0.024414;1.046875;
844428;0.040039;0.026367;1.044922;
844553;0.036133;0.024414;1.044922;
844683;0.039062;0.026367;1.027344;
844823;0.037109;0.020508;1.030273;
844968;0.036133;0.024414;1.037109;
845108;0.039062;0.025391;1.032227;
845248;0.038086;0.023438;1.032227;
845388;0.038086;0.023438;1.039062;
845528;0.039062;0.019531;1.036133;
845668;0.037109;0.025391;1.038086;
845808;0.037109;0.024414;1.031250;
845948;0.037109;0.029297;1.040039;
846083;0.039062;0.025391;1.040039;
846223;0.037109;0.027344;1.037109;
846368;0.034180;0.025391;1.042969;
846508;0.040039;0.029297;1.032227;
846648;0.037109;0.024414;1.026367;
846793;0.036133;0.026367;1.030273;
846924;0.037109;0.023438;1.028320;
847075;0.036133;0.029297;1.027344;
847224;0.037109;0.024414;1.038086;
847363;0.039062;0.025391;1.036133;
847514;0.038086;0.023438;1.038086;
847664;0.038086;0.031250;1.034180;
847803;0.036133;0.027344;1.038086;
847938;0.038086;0.028320;1.040039;
848073;0.039062;0.029297;1.035156;
848204;0.037109;0.031250;1.041016;
848343;0.038086;0.026367;1.036133;
848484;0.041016;0.030273;1.041992;
848623;0.041016;0.032227;1.045898;
848763;0.037109;0.032227;1.037109;
848908;0.034180;0.032227;1.036133;
849048;0.040039;0.029297;1.042969;
849188;0.039062;0.031250;1.048828;
849324;0.036133;0.031250;1.041016;
849464;0.036133;0.032227;1.041992;
849618;0.037109;0.032227;1.041016;
849758;0.039062;0.028320;1.034180;
849898;0.039062;0.033203;1.039062;
850033;0.038086;0.022461;1.039062;
850173;0.039062;0.031250;1.045898;
850318;0.038086;0.027344;1.042969;
850458;0.038086;0.028320;1.052734;
850598;0.039062;0.029297;1.053711;
850733;0.040039;0.033203;1.056641;
850874;0.040039;0.025391;1.061523;
851003;0.038086;0.021484;1.061523;
851143;0.040039;0.027344;1.060547;
851288;0.039062;0.023438;1.053711;
851427;0.040039;0.022461;1.055664;
851563;0.038086;0.022461;1.056641;
851694;0.041016;0.026367;1.051758;
851833;0.038086;0.020508;1.053711;
851973;0.039062;0.024414;1.050781;
852113;0.040039;0.028320;1.041016;
852247;0.037109;0.026367;1.034180;
852385;0.039062;0.022461;1.041992;
852524;0.037109;0.026367;1.048828;
852673;0.039062;0.024414;1.048828;
852813;0.040039;0.027344;1.053711;
852943;0.037109;0.024414;1.035156;
853073;0.038086;0.030273;1.035156;
853204;0.038086;0.023438;1.030273;
853345;0.038086;0.028320;1.024414;
853483;0.037109;0.025391;1.008789;
853638;0.033203;0.026367;0.983398;
853778;0.031250;0.021484;0.971680;
853918;0.030273;0.030273;0.949219;
854053;0.028320;0.031250;0.928711;
854183;0.027344;0.030273;0.922852;
854338;0.028320;0.031250;0.925781;
854478;0.024414;0.033203;0.905273;
