Time;acc_x;acc_y;acc_z;

2043;-0.036133;0.038086;1.029297;
2193;-0.037109;0.037109;1.028320;
2333;-0.036133;0.036133;1.032227;
2473;-0.036133;0.037109;1.028320;
2613;-0.036133;0.035156;1.026367;
2753;-0.034180;0.036133;1.029297;
2894;-0.036133;0.035156;1.027344;
3034;-0.035156;0.036133;1.030273;
3174;-0.036133;0.036133;1.026367;
3313;-0.036133;0.036133;1.028320;
3453;-0.036133;0.036133;1.027344;
3593;-0.036133;0.036133;1.030273;
3733;-0.036133;0.036133;1.028320;
3874;-0.035156;0.036133;1.029297;
4013;-0.036133;0.036133;1.028320;
4154;-0.036133;0.036133;1.032227;
4294;-0.036133;0.037109;1.029297;
4433;-0.035156;0.037109;1.029297;
4575;-0.037109;0.037109;1.030273;
4721;-0.035156;0.036133;1.031250;
4870;-0.037109;0.036133;1.029297;
5009;-0.036133;0.035156;1.030273;
5159;-0.037109;0.035156;1.029297;
5309;-0.036133;0.036133;1.028320;
5464;-0.036133;0.035156;1.028320;
5604;-0.035156;0.035156;1.027344;
5742;-0.035156;0.037109;1.029297;
5889;-0.037109;0.037109;1.029297;
6029;-0.035156;0.036133;1.029297;
6159;-0.037109;0.036133;1.031250;
6289;-0.035156;0.036133;1.028320;
6419;-0.035156;0.036133;1.028320;
6569;-0.036133;0.036133;1.026367;
6720;-0.036133;0.037109;1.029297;
6859;-0.037109;0.036133;1.029297;
7004;-0.036133;0.036133;1.028320;
7144;-0.036133;0.036133;1.029297;
7284;-0.036133;0.036133;1.028320;
7424;-0.035156;0.036133;1.031250;
7559;-0.037109;0.035156;1.028320;
7704;-0.036133;0.036133;1.031250;
7844;-0.036133;0.035156;1.028320;
7984;-0.036133;0.035156;1.029297;
8124;-0.036133;0.037109;1.030273;
8274;-0.037109;0.037109;1.029297;
8414;-0.037109;0.035156;1.029297;
8554;-0.036133;0.035156;1.028320;
8694;-0.037109;0.036133;1.029297;
8829;-0.036133;0.036133;1.030273;
8959;-0.035156;0.036133;1.030273;
9099;-0.036133;0.036133;1.028320;
9239;-0.037109;0.038086;1.031250;
9379;-0.036133;0.036133;1.028320;
9529;-0.036133;0.037109;1.027344;
9669;-0.036133;0.037109;1.029297;
9819;-0.035156;0.035156;1.028320;
9961;-0.036133;0.035156;1.027344;
10109;-0.034180;0.037109;1.032227;
10261;-0.035156;0.038086;1.029297;
10404;-0.036133;0.037109;1.030273;
10549;-0.036133;0.035156;1.027344;
10704;-0.037109;0.035156;1.029297;
10839;-0.037109;0.036133;1.030273;
10969;-0.036133;0.037109;1.026367;
11114;-0.036133;0.036133;1.028320;
11254;-0.036133;0.037109;1.028320;
11394;-0.035156;0.037109;1.030273;
11529;-0.036133;0.035156;1.028320;
11659;-0.037109;0.037109;1.030273;
11814;-0.035156;0.037109;1.028320;
11954;-0.035156;0.036133;1.027344;
12094;-0.035156;0.036133;1.029297;
12229;-0.036133;0.035156;1.028320;
12370;-0.036133;0.034180;1.029297;
12514;-0.035156;0.037109;1.029297;
12649;-0.036133;0.038086;1.030273;
12789;-0.037109;0.036133;1.030273;
12929;-0.036133;0.038086;1.029297;
13069;-0.035156;0.036133;1.031250;
13199;-0.036133;0.036133;1.030273;
13339;-0.036133;0.035156;1.028320;
13479;-0.037109;0.037109;1.030273;
13611;-0.036133;0.036133;1.029297;
13739;-0.036133;0.037109;1.030273;
13872;-0.035156;0.040039;1.028320;
14000;-0.034180;0.037109;1.029297;
14149;-0.035156;0.038086;1.030273;
14289;-0.035156;0.037109;1.029297;
14444;-0.035156;0.037109;1.030273;
14584;-0.035156;0.037109;1.030273;
14724;-0.036133;0.036133;1.029297;
14864;-0.037109;0.035156;1.026367;
14999;-0.036133;0.036133;1.027344;
15144;-0.036133;0.035156;1.031250;
15279;-0.036133;0.036133;1.029297;
15419;-0.036133;0.037109;1.027344;
15564;-0.036133;0.036133;1.028320;
15704;-0.036133;0.036133;1.028320;
15844;-0.036133;0.037109;1.030273;
15984;-0.037109;0.035156;1.028320;
16119;-0.035156;0.037109;1.030273;
16270;-0.035156;0.037109;1.031250;
16420;-0.037109;0.037109;1.029297;
16561;-0.036133;0.036133;1.028320;
16709;-0.036133;0.036133;1.029297;
16859;-0.035156;0.037109;1.029297;
16999;-0.036133;0.035156;1.029297;
17149;-0.035156;0.037109;1.029297;
17290;-0.036133;0.037109;1.028320;
17419;-0.036133;0.036133;1.028320;
17564;-0.036133;0.038086;1.029297;
17699;-0.035156;0.036133;1.029297;
17849;-0.036133;0.036133;1.030273;
17990;-0.036133;0.037109;1.029297;
18129;-0.036133;0.037109;1.029297;
18274;-0.034180;0.036133;1.028320;
18414;-0.035156;0.036133;1.029297;
18564;-0.035156;0.037109;1.029297;
18699;-0.036133;0.036133;1.029297;
18854;-0.037109;0.037109;1.030273;
18994;-0.036133;0.035156;1.030273;
19134;-0.035156;0.036133;1.029297;
19274;-0.035156;0.036133;1.027344;
19409;-0.036133;0.036133;1.029297;
19549;-0.036133;0.035156;1.029297;
19689;-0.036133;0.037109;1.029297;
19834;-0.037109;0.035156;1.029297;
19974;-0.036133;0.035156;1.028320;
20114;-0.036133;0.037109;1.027344;
20249;-0.034180;0.038086;1.030273;
20399;-0.035156;0.036133;1.030273;
20539;-0.036133;0.036133;1.029297;
20680;-0.035156;0.037109;1.028320;
20830;-0.036133;0.036133;1.030273;
20970;-0.036133;0.037109;1.029297;
21119;-0.035156;0.038086;1.030273;
21250;-0.035156;0.037109;1.029297;
21389;-0.035156;0.037109;1.029297;
21529;-0.036133;0.035156;1.029297;
21659;-0.035156;0.037109;1.030273;
21799;-0.035156;0.036133;1.029297;
21931;-0.035156;0.035156;1.028320;
22059;-0.036133;0.036133;1.028320;
22194;-0.035156;0.036133;1.030273;
22334;-0.036133;0.035156;1.028320;
22474;-0.035156;0.036133;1.029297;
22614;-0.036133;0.036133;1.028320;
22740;-0.036133;0.035156;1.030273;
22869;-0.035156;0.036133;1.027344;
23024;-0.036133;0.035156;1.030273;
23164;-0.037109;0.036133;1.028320;
23299;-0.035156;0.036133;1.028320;
23449;-0.036133;0.036133;1.029297;
23589;-0.035156;0.035156;1.028320;
23740;-0.035156;0.036133;1.028320;
23881;-0.035156;0.037109;1.028320;
24009;-0.036133;0.038086;1.028320;
24149;-0.036133;0.037109;1.029297;
24299;-0.036133;0.037109;1.028320;
24449;-0.036133;0.036133;1.030273;
24579;-0.036133;0.036133;1.029297;
24719;-0.035156;0.037109;1.029297;
24859;-0.035156;0.036133;1.030273;
25009;-0.035156;0.037109;1.029297;
25164;-0.036133;0.036133;1.029297;
25314;-0.036133;0.035156;1.029297;
25454;-0.035156;0.037109;1.030273;
25595;-0.036133;0.037109;1.030273;
25739;-0.036133;0.035156;1.030273;
25884;-0.035156;0.036133;1.028320;
26024;-0.036133;0.036133;1.029297;
26163;-0.035156;0.036133;1.030273;
26304;-0.035156;0.037109;1.031250;
26444;-0.036133;0.036133;1.029297;
26579;-0.036133;0.035156;1.029297;
26724;-0.037109;0.037109;1.029297;
26864;-0.035156;0.035156;1.028320;
27004;-0.035156;0.035156;1.029297;
27139;-0.035156;0.034180;1.030273;
27279;-0.035156;0.036133;1.030273;
27429;-0.036133;0.034180;1.028320;
27569;-0.035156;0.037109;1.029297;
27719;-0.035156;0.037109;1.029297;
27859;-0.035156;0.036133;1.029297;
27989;-0.037109;0.037109;1.029297;
28129;-0.036133;0.036133;1.029297;
28269;-0.034180;0.037109;1.031250;
28419;-0.036133;0.035156;1.029297;
28569;-0.034180;0.038086;1.031250;
28719;-0.035156;0.035156;1.029297;
28864;-0.036133;0.036133;1.029297;
29004;-0.035156;0.034180;1.029297;
29139;-0.035156;0.036133;1.027344;
29284;-0.036133;0.036133;1.029297;
29424;-0.035156;0.035156;1.028320;
29564;-0.036133;0.036133;1.030273;
29704;-0.036133;0.036133;1.028320;
29849;-0.035156;0.033203;1.029297;
29989;-0.034180;0.036133;1.030273;
30144;-0.036133;0.036133;1.028320;
30284;-0.035156;0.037109;1.031250;
30424;-0.036133;0.037109;1.031250;
30559;-0.035156;0.038086;1.029297;
30690;-0.035156;0.037109;1.029297;
30840;-0.036133;0.036133;1.030273;
30980;-0.036133;0.036133;1.029297;
31119;-0.036133;0.035156;1.030273;
31259;-0.035156;0.036133;1.029297;
31409;-0.035156;0.036133;1.030273;
31559;-0.035156;0.038086;1.029297;
31699;-0.036133;0.036133;1.029297;
31849;-0.035156;0.036133;1.029297;
31999;-0.036133;0.036133;1.031250;
32144;-0.037109;0.036133;1.030273;
32279;-0.036133;0.036133;1.030273;
32429;-0.033203;0.037109;1.030273;
32559;-0.036133;0.036133;1.029297;
32699;-0.035156;0.035156;1.029297;
32834;-0.036133;0.035156;1.028320;
32974;-0.036133;0.037109;1.030273;
33114;-0.035156;0.036133;1.029297;
33265;-0.035156;0.036133;1.030273;
33409;-0.035156;0.037109;1.029297;
33554;-0.036133;0.035156;1.029297;
33694;-0.036133;0.037109;1.029297;
33834;-0.035156;0.037109;1.029297;
33974;-0.037109;0.036133;1.029297;
34114;-0.036133;0.036133;1.029297;
34249;-0.036133;0.035156;1.029297;
34404;-0.036133;0.035156;1.030273;
34539;-0.035156;0.037109;1.029297;
34679;-0.036133;0.035156;1.029297;
34829;-0.036133;0.037109;1.030273;
34979;-0.037109;0.036133;1.028320;
35120;-0.035156;0.036133;1.030273;
35269;-0.036133;0.036133;1.030273;
35419;-0.036133;0.036133;1.029297;
35560;-0.035156;0.036133;1.029297;
35700;-0.036133;0.036133;1.030273;
35849;-0.035156;0.036133;1.030273;
35999;-0.035156;0.036133;1.029297;
36139;-0.036133;0.036133;1.029297;
36289;-0.035156;0.036133;1.028320;
36434;-0.035156;0.037109;1.029297;
36574;-0.035156;0.036133;1.029297;
36714;-0.035156;0.038086;1.029297;
36850;-0.035156;0.037109;1.029297;
36999;-0.036133;0.039062;1.029297;
37154;-0.036133;0.037109;1.029297;
37294;-0.036133;0.036133;1.029297;
37434;-0.035156;0.037109;1.029297;
37569;-0.035156;0.037109;1.029297;
37709;-0.036133;0.035156;1.029297;
37854;-0.036133;0.037109;1.030273;
37994;-0.036133;0.034180;1.030273;
38134;-0.035156;0.036133;1.030273;
38269;-0.034180;0.036133;1.029297;
38409;-0.034180;0.037109;1.029297;
38559;-0.035156;0.037109;1.028320;
38699;-0.035156;0.037109;1.028320;
38839;-0.037109;0.036133;1.030273;
38989;-0.035156;0.036133;1.028320;
39129;-0.037109;0.035156;1.029297;
39279;-0.035156;0.037109;1.029297;
39419;-0.035156;0.038086;1.030273;
39559;-0.037109;0.037109;1.028320;
39689;-0.037109;0.037109;1.029297;
39819;-0.036133;0.039062;1.031250;
39949;-0.035156;0.038086;1.028320;
40090;-0.035156;0.036133;1.031250;
40229;-0.036133;0.036133;1.029297;
40370;-0.036133;0.035156;1.031250;
40514;-0.035156;0.036133;1.029297;
40654;-0.036133;0.036133;1.031250;
40794;-0.036133;0.036133;1.029297;
40934;-0.036133;0.036133;1.028320;
41063;-0.036133;0.036133;1.030273;
41199;-0.035156;0.037109;1.030273;
41344;-0.036133;0.036133;1.029297;
41484;-0.036133;0.036133;1.029297;
41624;-0.036133;0.035156;1.030273;
41771;-0.035156;0.037109;1.030273;
41910;-0.035156;0.035156;1.031250;
42064;-0.037109;0.036133;1.030273;
42204;-0.035156;0.036133;1.030273;
42339;-0.035156;0.037109;1.028320;
42489;-0.035156;0.038086;1.028320;
42629;-0.035156;0.036133;1.031250;
42779;-0.036133;0.037109;1.030273;
42919;-0.036133;0.036133;1.029297;
43069;-0.036133;0.036133;1.031250;
43219;-0.035156;0.036133;1.029297;
43369;-0.036133;0.035156;1.031250;
43514;-0.035156;0.037109;1.031250;
43651;-0.034180;0.037109;1.029297;
43779;-0.035156;0.036133;1.029297;
43929;-0.036133;0.036133;1.029297;
44069;-0.035156;0.035156;1.030273;
44219;-0.036133;0.038086;1.030273;
44369;-0.035156;0.036133;1.029297;
44519;-0.035156;0.036133;1.030273;
44674;-0.036133;0.036133;1.029297;
44814;-0.035156;0.036133;1.030273;
44954;-0.035156;0.037109;1.031250;
45089;-0.034180;0.036133;1.029297;
45244;-0.036133;0.035156;1.030273;
45394;-0.035156;0.036133;1.029297;
45534;-0.035156;0.034180;1.030273;
45674;-0.035156;0.038086;1.029297;
45814;-0.034180;0.036133;1.029297;
45960;-0.036133;0.036133;1.029297;
46089;-0.036133;0.037109;1.029297;
46223;-0.034180;0.036133;1.029297;
46359;-0.036133;0.037109;1.029297;
46499;-0.035156;0.037109;1.030273;
46639;-0.036133;0.037109;1.031250;
46779;-0.035156;0.039062;1.031250;
46909;-0.035156;0.035156;1.029297;
47049;-0.037109;0.037109;1.029297;
47199;-0.034180;0.037109;1.029297;
47340;-0.035156;0.036133;1.030273;
47479;-0.035156;0.036133;1.029297;
47619;-0.036133;0.034180;1.030273;
47759;-0.035156;0.037109;1.029297;
47900;-0.035156;0.036133;1.029297;
48039;-0.034180;0.037109;1.029297;
48179;-0.036133;0.036133;1.030273;
48324;-0.035156;0.037109;1.029297;
48471;-0.035156;0.037109;1.031250;
48614;-0.036133;0.036133;1.029297;
48749;-0.034180;0.035156;1.029297;
48892;-0.035156;0.037109;1.032227;
49039;-0.035156;0.035156;1.030273;
49184;-0.036133;0.037109;1.030273;
49334;-0.036133;0.036133;1.029297;
49473;-0.036133;0.036133;1.030273;
49609;-0.036133;0.034180;1.029297;
49764;-0.036133;0.037109;1.030273;
49913;-0.036133;0.036133;1.029297;
50054;-0.037109;0.035156;1.029297;
50194;-0.035156;0.037109;1.029297;
50320;-0.035156;0.036133;1.029297;
50459;-0.035156;0.038086;1.031250;
50599;-0.035156;0.038086;1.030273;
50749;-0.036133;0.034180;1.030273;
50900;-0.036133;0.036133;1.029297;
51030;-0.035156;0.036133;1.030273;
51169;-0.035156;0.036133;1.030273;
51299;-0.036133;0.036133;1.030273;
51429;-0.036133;0.038086;1.031250;
51569;-0.037109;0.038086;1.030273;
51709;-0.036133;0.037109;1.028320;
51839;-0.036133;0.037109;1.029297;
51979;-0.037109;0.037109;1.030273;
52121;-0.036133;0.036133;1.031250;
52259;-0.035156;0.035156;1.029297;
52409;-0.035156;0.036133;1.028320;
52549;-0.035156;0.035156;1.029297;
52699;-0.036133;0.038086;1.030273;
52844;-0.034180;0.036133;1.030273;
52994;-0.035156;0.036133;1.029297;
53134;-0.036133;0.035156;1.029297;
53274;-0.035156;0.036133;1.029297;
53413;-0.036133;0.036133;1.030273;
53539;-0.035156;0.037109;1.030273;
53689;-0.035156;0.035156;1.030273;
53819;-0.036133;0.037109;1.031250;
53949;-0.035156;0.036133;1.028320;
54094;-0.034180;0.035156;1.030273;
54234;-0.035156;0.035156;1.029297;
54374;-0.035156;0.036133;1.030273;
54515;-0.034180;0.037109;1.030273;
54659;-0.034180;0.037109;1.029297;
54809;-0.035156;0.037109;1.030273;
54940;-0.035156;0.038086;1.029297;
55069;-0.035156;0.037109;1.030273;
55224;-0.035156;0.035156;1.029297;
55359;-0.036133;0.037109;1.031250;
55499;-0.036133;0.036133;1.030273;
55640;-0.037109;0.037109;1.029297;
55769;-0.035156;0.037109;1.030273;
55914;-0.036133;0.036133;1.030273;
56049;-0.035156;0.036133;1.029297;
56199;-0.036133;0.038086;1.030273;
56339;-0.035156;0.037109;1.029297;
56479;-0.035156;0.038086;1.031250;
56629;-0.035156;0.036133;1.028320;
56779;-0.037109;0.035156;1.030273;
56919;-0.036133;0.035156;1.029297;
57059;-0.036133;0.036133;1.029297;
57199;-0.036133;0.037109;1.031250;
57339;-0.036133;0.035156;1.030273;
57469;-0.034180;0.036133;1.030273;
57619;-0.036133;0.037109;1.029297;
57754;-0.035156;0.038086;1.031250;
57891;-0.036133;0.037109;1.031250;
58029;-0.036133;0.035156;1.030273;
58181;-0.036133;0.037109;1.030273;
58324;-0.035156;0.037109;1.030273;
58464;-0.036133;0.035156;1.029297;
58604;-0.036133;0.039062;1.030273;
58744;-0.036133;0.036133;1.031250;
58879;-0.036133;0.035156;1.029297;
59034;-0.034180;0.038086;1.030273;
59174;-0.035156;0.037109;1.031250;
59314;-0.036133;0.037109;1.029297;
59454;-0.035156;0.037109;1.031250;
59579;-0.036133;0.036133;1.031250;
59719;-0.036133;0.037109;1.031250;
59850;-0.034180;0.037109;1.031250;
59980;-0.036133;0.036133;1.029297;
60119;-0.035156;0.037109;1.029297;
60263;-0.037109;0.036133;1.028320;
60409;-0.036133;0.035156;1.029297;
60560;-0.036133;0.036133;1.029297;
60699;-0.035156;0.035156;1.031250;
60839;-0.037109;0.036133;1.030273;
60979;-0.035156;0.037109;1.031250;
61130;-0.036133;0.035156;1.029297;
61280;-0.036133;0.037109;1.030273;
61419;-0.035156;0.037109;1.029297;
61569;-0.036133;0.036133;1.029297;
61719;-0.035156;0.038086;1.030273;
61849;-0.035156;0.036133;1.029297;
61993;-0.035156;0.036133;1.030273;
62134;-0.035156;0.036133;1.029297;
62279;-0.036133;0.036133;1.030273;
62424;-0.035156;0.036133;1.028320;
62574;-0.035156;0.036133;1.030273;
62714;-0.035156;0.037109;1.031250;
62850;-0.036133;0.037109;1.029297;
62999;-0.036133;0.035156;1.029297;
63154;-0.036133;0.036133;1.030273;
63294;-0.035156;0.036133;1.028320;
63444;-0.035156;0.037109;1.030273;
63584;-0.036133;0.034180;1.029297;
63719;-0.035156;0.036133;1.030273;
63859;-0.037109;0.035156;1.030273;
63989;-0.034180;0.038086;1.030273;
64129;-0.037109;0.037109;1.030273;
64270;-0.036133;0.036133;1.030273;
64423;-0.035156;0.039062;1.029297;
64549;-0.035156;0.037109;1.028320;
64693;-0.035156;0.039062;1.031250;
64839;-0.035156;0.037109;1.031250;
64990;-0.036133;0.037109;1.029297;
65139;-0.034180;0.037109;1.030273;
65269;-0.034180;0.036133;1.031250;
65409;-0.036133;0.034180;1.029297;
65559;-0.035156;0.036133;1.029297;
65699;-0.035156;0.036133;1.029297;
65849;-0.037109;0.035156;1.030273;
65989;-0.036133;0.037109;1.030273;
66139;-0.035156;0.037109;1.030273;
66280;-0.035156;0.039062;1.030273;
66409;-0.037109;0.036133;1.031250;
66549;-0.036133;0.036133;1.030273;
66689;-0.035156;0.038086;1.030273;
66842;-0.035156;0.037109;1.029297;
66984;-0.037109;0.038086;1.031250;
67134;-0.035156;0.037109;1.030273;
67274;-0.035156;0.036133;1.030273;
67415;-0.035156;0.037109;1.031250;
67559;-0.037109;0.035156;1.031250;
67700;-0.036133;0.036133;1.030273;
67854;-0.035156;0.038086;1.031250;
67994;-0.036133;0.036133;1.030273;
68133;-0.035156;0.037109;1.031250;
68270;-0.035156;0.036133;1.028320;
68404;-0.036133;0.037109;1.029297;
68539;-0.035156;0.037109;1.031250;
68669;-0.035156;0.038086;1.030273;
68800;-0.035156;0.037109;1.031250;
68949;-0.036133;0.035156;1.029297;
69079;-0.036133;0.035156;1.030273;
69230;-0.036133;0.036133;1.029297;
69379;-0.036133;0.036133;1.030273;
69519;-0.035156;0.037109;1.030273;
69669;-0.036133;0.036133;1.030273;
69809;-0.036133;0.037109;1.030273;
69959;-0.035156;0.037109;1.030273;
70110;-0.037109;0.035156;1.029297;
70249;-0.037109;0.037109;1.031250;
70401;-0.035156;0.037109;1.031250;
70529;-0.035156;0.035156;1.029297;
70664;-0.034180;0.039062;1.030273;
70804;-0.036133;0.037109;1.031250;
70929;-0.037109;0.036133;1.030273;
71059;-0.035156;0.037109;1.029297;
71204;-0.036133;0.035156;1.030273;
71344;-0.034180;0.036133;1.029297;
71484;-0.036133;0.037109;1.031250;
71619;-0.035156;0.036133;1.030273;
71764;-0.035156;0.036133;1.030273;
71904;-0.034180;0.037109;1.030273;
72044;-0.035156;0.034180;1.029297;
72184;-0.035156;0.035156;1.030273;
72319;-0.035156;0.036133;1.030273;
72454;-0.035156;0.037109;1.030273;
72589;-0.037109;0.035156;1.030273;
72729;-0.035156;0.035156;1.030273;
72869;-0.037109;0.035156;1.030273;
73019;-0.035156;0.035156;1.030273;
73159;-0.034180;0.038086;1.030273;
73299;-0.035156;0.038086;1.029297;
73449;-0.036133;0.037109;1.031250;
73589;-0.036133;0.035156;1.031250;
73729;-0.035156;0.037109;1.031250;
73859;-0.037109;0.035156;1.029297;
73999;-0.035156;0.038086;1.029297;
74139;-0.036133;0.035156;1.029297;
74289;-0.036133;0.036133;1.029297;
74444;-0.035156;0.036133;1.030273;
74579;-0.035156;0.038086;1.030273;
74709;-0.035156;0.036133;1.031250;
74854;-0.035156;0.037109;1.031250;
74994;-0.034180;0.038086;1.029297;
75134;-0.035156;0.037109;1.030273;
75270;-0.036133;0.036133;1.030273;
75399;-0.036133;0.037109;1.030273;
75554;-0.035156;0.036133;1.031250;
75694;-0.036133;0.037109;1.030273;
75834;-0.035156;0.037109;1.032227;
75974;-0.034180;0.038086;1.030273;
76104;-0.036133;0.036133;1.029297;
76239;-0.035156;0.038086;1.032227;
76379;-0.035156;0.037109;1.030273;
76519;-0.036133;0.036133;1.029297;
76659;-0.036133;0.040039;1.031250;
76799;-0.035156;0.037109;1.032227;
76949;-0.034180;0.037109;1.031250;
77100;-0.037109;0.036133;1.031250;
77239;-0.036133;0.035156;1.031250;
77379;-0.036133;0.037109;1.030273;
77519;-0.035156;0.037109;1.031250;
77669;-0.035156;0.036133;1.029297;
77819;-0.036133;0.037109;1.031250;
77959;-0.037109;0.036133;1.031250;
78109;-0.036133;0.037109;1.030273;
78250;-0.034180;0.038086;1.029297;
78389;-0.036133;0.036133;1.031250;
78539;-0.035156;0.037109;1.030273;
78684;-0.037109;0.036133;1.030273;
78824;-0.036133;0.037109;1.030273;
78974;-0.035156;0.036133;1.030273;
79114;-0.035156;0.037109;1.030273;
79249;-0.035156;0.035156;1.031250;
79390;-0.036133;0.034180;1.031250;
79544;-0.035156;0.037109;1.032227;
79694;-0.036133;0.037109;1.031250;
79834;-0.035156;0.037109;1.031250;
79969;-0.036133;0.038086;1.031250;
80110;-0.033203;0.037109;1.030273;
80243;-0.035156;0.038086;1.031250;
80374;-0.036133;0.036133;1.031250;
80524;-0.035156;0.035156;1.030273;
80660;-0.035156;0.037109;1.030273;
80809;-0.035156;0.036133;1.032227;
80959;-0.034180;0.038086;1.033203;
81109;-0.035156;0.039062;1.030273;
81260;-0.035156;0.038086;1.031250;
81409;-0.033203;0.037109;1.031250;
81541;-0.036133;0.036133;1.029297;
81679;-0.035156;0.036133;1.032227;
81822;-0.036133;0.036133;1.031250;
81949;-0.037109;0.037109;1.031250;
82079;-0.037109;0.035156;1.031250;
82229;-0.034180;0.038086;1.030273;
82379;-0.034180;0.039062;1.030273;
82519;-0.034180;0.037109;1.029297;
82669;-0.037109;0.037109;1.030273;
82810;-0.036133;0.038086;1.031250;
82949;-0.035156;0.037109;1.032227;
83101;-0.036133;0.036133;1.030273;
83244;-0.036133;0.036133;1.030273;
83394;-0.036133;0.036133;1.031250;
83534;-0.035156;0.036133;1.030273;
83675;-0.035156;0.036133;1.030273;
83824;-0.035156;0.036133;1.030273;
83964;-0.036133;0.037109;1.031250;
84104;-0.034180;0.037109;1.032227;
84244;-0.035156;0.036133;1.030273;
84379;-0.035156;0.037109;1.032227;
84519;-0.038086;0.035156;1.029297;
84664;-0.036133;0.036133;1.028320;
84814;-0.036133;0.037109;1.032227;
84954;-0.034180;0.038086;1.030273;
85091;-0.034180;0.036133;1.030273;
85219;-0.035156;0.036133;1.030273;
85369;-0.033203;0.036133;1.032227;
85511;-0.035156;0.037109;1.032227;
85659;-0.036133;0.036133;1.031250;
85814;-0.035156;0.035156;1.031250;
85959;-0.034180;0.036133;1.030273;
86099;-0.035156;0.036133;1.031250;
86250;-0.035156;0.035156;1.031250;
86389;-0.035156;0.038086;1.031250;
86532;-0.035156;0.034180;1.030273;
86670;-0.034180;0.036133;1.030273;
86799;-0.035156;0.035156;1.029297;
86939;-0.035156;0.035156;1.032227;
87089;-0.035156;0.037109;1.029297;
87229;-0.035156;0.037109;1.031250;
87379;-0.035156;0.036133;1.032227;
87529;-0.035156;0.036133;1.032227;
87681;-0.035156;0.038086;1.031250;
87820;-0.035156;0.038086;1.029297;
87964;-0.035156;0.035156;1.029297;
88104;-0.035156;0.037109;1.032227;
88244;-0.034180;0.036133;1.032227;
88384;-0.034180;0.035156;1.029297;
88520;-0.035156;0.037109;1.030273;
88664;-0.036133;0.037109;1.030273;
88804;-0.036133;0.036133;1.033203;
88944;-0.035156;0.034180;1.030273;
89079;-0.035156;0.035156;1.029297;
89219;-0.035156;0.037109;1.031250;
89364;-0.036133;0.037109;1.032227;
89514;-0.035156;0.037109;1.031250;
89654;-0.035156;0.036133;1.031250;
89789;-0.034180;0.037109;1.030273;
89939;-0.035156;0.037109;1.031250;
90089;-0.035156;0.037109;1.033203;
90239;-0.035156;0.037109;1.031250;
90389;-0.036133;0.035156;1.030273;
90539;-0.035156;0.035156;1.030273;
90680;-0.036133;0.037109;1.030273;
90829;-0.035156;0.035156;1.029297;
90979;-0.035156;0.036133;1.029297;
91119;-0.036133;0.038086;1.030273;
91249;-0.035156;0.038086;1.030273;
91394;-0.036133;0.037109;1.031250;
91529;-0.036133;0.036133;1.030273;
91669;-0.035156;0.035156;1.030273;
91811;-0.036133;0.036133;1.031250;
91939;-0.036133;0.035156;1.030273;
92089;-0.035156;0.036133;1.031250;
92239;-0.037109;0.035156;1.032227;
92389;-0.035156;0.037109;1.030273;
92539;-0.035156;0.039062;1.031250;
92679;-0.036133;0.036133;1.031250;
92824;-0.035156;0.036133;1.032227;
92964;-0.034180;0.037109;1.032227;
93104;-0.035156;0.036133;1.030273;
93239;-0.034180;0.036133;1.032227;
93370;-0.036133;0.037109;1.033203;
93524;-0.036133;0.037109;1.032227;
93664;-0.036133;0.035156;1.030273;
93804;-0.035156;0.039062;1.030273;
93939;-0.035156;0.035156;1.028320;
94069;-0.036133;0.035156;1.030273;
94199;-0.036133;0.036133;1.032227;
94329;-0.035156;0.038086;1.031250;
94469;-0.037109;0.036133;1.029297;
94599;-0.035156;0.035156;1.028320;
94749;-0.036133;0.036133;1.032227;
94900;-0.035156;0.036133;1.031250;
95049;-0.037109;0.037109;1.031250;
95189;-0.036133;0.035156;1.030273;
95329;-0.035156;0.036133;1.031250;
95459;-0.034180;0.037109;1.030273;
95589;-0.034180;0.038086;1.031250;
95719;-0.036133;0.035156;1.030273;
95859;-0.033203;0.037109;1.030273;
95991;-0.035156;0.036133;1.031250;
96139;-0.035156;0.037109;1.032227;
96289;-0.034180;0.038086;1.031250;
96429;-0.034180;0.037109;1.029297;
96584;-0.035156;0.035156;1.030273;
96724;-0.036133;0.036133;1.032227;
96860;-0.034180;0.036133;1.032227;
97009;-0.035156;0.035156;1.031250;
97154;-0.035156;0.036133;1.028320;
97304;-0.034180;0.037109;1.030273;
97444;-0.036133;0.036133;1.032227;
97579;-0.034180;0.036133;1.033203;
97720;-0.034180;0.037109;1.029297;
97854;-0.036133;0.035156;1.029297;
97994;-0.035156;0.037109;1.032227;
98134;-0.037109;0.035156;1.033203;
98274;-0.035156;0.036133;1.031250;
98409;-0.035156;0.036133;1.030273;
98550;-0.034180;0.037109;1.031250;
98679;-0.035156;0.035156;1.030273;
98829;-0.035156;0.035156;1.031250;
98969;-0.035156;0.035156;1.032227;
99109;-0.035156;0.037109;1.030273;
99249;-0.036133;0.036133;1.030273;
99399;-0.035156;0.037109;1.031250;
99529;-0.036133;0.035156;1.031250;
99669;-0.034180;0.038086;1.032227;
99809;-0.035156;0.037109;1.029297;
99960;-0.035156;0.036133;1.030273;
100093;-0.036133;0.036133;1.031250;
100234;-0.035156;0.036133;1.030273;
100374;-0.035156;0.035156;1.030273;
100514;-0.035156;0.036133;1.030273;
100654;-0.035156;0.037109;1.029297;
100794;-0.034180;0.036133;1.029297;
100934;-0.035156;0.037109;1.033203;
101074;-0.035156;0.037109;1.032227;
101214;-0.035156;0.039062;1.029297;
101354;-0.035156;0.038086;1.030273;
101494;-0.036133;0.036133;1.032227;
101634;-0.036133;0.036133;1.031250;
101784;-0.034180;0.037109;1.031250;
101924;-0.034180;0.039062;1.031250;
102069;-0.035156;0.036133;1.032227;
102209;-0.034180;0.038086;1.031250;
102351;-0.035156;0.037109;1.030273;
102491;-0.036133;0.038086;1.032227;
102620;-0.035156;0.036133;1.030273;
102749;-0.036133;0.037109;1.030273;
102899;-0.034180;0.036133;1.031250;
103044;-0.035156;0.036133;1.030273;
103179;-0.035156;0.034180;1.029297;
103319;-0.036133;0.037109;1.029297;
103459;-0.036133;0.035156;1.031250;
103614;-0.034180;0.037109;1.034180;
103754;-0.035156;0.036133;1.031250;
103904;-0.036133;0.036133;1.031250;
104044;-0.034180;0.037109;1.032227;
104184;-0.036133;0.038086;1.032227;
104324;-0.036133;0.037109;1.031250;
104464;-0.034180;0.038086;1.029297;
104604;-0.035156;0.035156;1.032227;
104744;-0.035156;0.038086;1.031250;
104879;-0.036133;0.036133;1.031250;
105024;-0.036133;0.035156;1.033203;
105164;-0.036133;0.036133;1.030273;
105304;-0.034180;0.036133;1.030273;
105443;-0.035156;0.036133;1.030273;
105579;-0.036133;0.038086;1.032227;
105709;-0.035156;0.035156;1.030273;
105841;-0.035156;0.037109;1.031250;
105990;-0.035156;0.036133;1.030273;
106119;-0.037109;0.038086;1.031250;
106259;-0.035156;0.037109;1.032227;
106409;-0.035156;0.036133;1.030273;
106561;-0.035156;0.037109;1.030273;
106709;-0.036133;0.036133;1.031250;
106854;-0.035156;0.037109;1.031250;
106994;-0.036133;0.037109;1.031250;
107134;-0.035156;0.038086;1.032227;
107275;-0.035156;0.037109;1.029297;
107424;-0.036133;0.037109;1.033203;
107564;-0.036133;0.036133;1.032227;
107714;-0.035156;0.038086;1.029297;
107849;-0.037109;0.035156;1.031250;
107994;-0.037109;0.035156;1.031250;
108134;-0.035156;0.037109;1.030273;
108274;-0.036133;0.036133;1.030273;
108424;-0.035156;0.039062;1.031250;
108564;-0.036133;0.037109;1.029297;
108704;-0.035156;0.037109;1.030273;
108849;-0.036133;0.035156;1.030273;
108979;-0.035156;0.040039;1.033203;
109109;-0.036133;0.036133;1.031250;
109240;-0.034180;0.038086;1.031250;
109370;-0.035156;0.036133;1.030273;
109509;-0.035156;0.038086;1.031250;
109654;-0.036133;0.036133;1.031250;
109790;-0.036133;0.035156;1.031250;
109920;-0.033203;0.038086;1.030273;
110064;-0.036133;0.035156;1.030273;
110204;-0.036133;0.037109;1.029297;
110344;-0.034180;0.038086;1.030273;
110484;-0.035156;0.036133;1.029297;
110624;-0.035156;0.038086;1.031250;
110774;-0.036133;0.036133;1.032227;
110914;-0.035156;0.038086;1.031250;
111054;-0.035156;0.037109;1.030273;
111194;-0.033203;0.038086;1.030273;
111333;-0.036133;0.036133;1.030273;
111484;-0.035156;0.038086;1.032227;
111624;-0.035156;0.036133;1.031250;
111764;-0.035156;0.037109;1.029297;
111904;-0.035156;0.037109;1.032227;
112039;-0.034180;0.037109;1.031250;
112169;-0.034180;0.037109;1.031250;
112309;-0.036133;0.036133;1.030273;
112450;-0.036133;0.036133;1.030273;
112594;-0.035156;0.038086;1.031250;
112733;-0.035156;0.037109;1.031250;
112879;-0.036133;0.036133;1.031250;
113009;-0.035156;0.038086;1.030273;
113149;-0.036133;0.038086;1.030273;
113290;-0.036133;0.038086;1.031250;
113429;-0.035156;0.037109;1.031250;
113559;-0.034180;0.037109;1.031250;
113714;-0.036133;0.035156;1.030273;
113854;-0.036133;0.036133;1.031250;
113994;-0.034180;0.036133;1.032227;
114134;-0.035156;0.036133;1.030273;
114346;-0.037109;0.036133;1.030273;
114494;-0.034180;0.038086;1.031250;
114634;-0.036133;0.035156;1.010742;
114774;-0.038086;0.037109;1.033203;
114915;-0.037109;0.037109;1.029297;
115064;-0.036133;0.036133;1.028320;
115203;-0.038086;0.035156;1.028320;
115344;-0.038086;0.036133;1.023438;
115484;-0.041016;0.038086;1.026367;
115624;-0.039062;0.037109;1.022461;
115769;-0.039062;0.039062;1.030273;
115899;-0.040039;0.037109;1.022461;
116040;-0.059570;0.052734;0.965820;
116179;-0.036133;0.038086;1.032227;
116329;-0.036133;0.035156;1.028320;
116469;-0.034180;0.038086;1.028320;
116600;-0.035156;0.035156;1.031250;
116729;-0.035156;0.035156;1.034180;
116869;-0.036133;0.037109;1.032227;
117014;-0.037109;0.036133;1.033203;
117153;-0.034180;0.038086;1.038086;
117294;-0.036133;0.036133;1.033203;
117434;-0.034180;0.036133;1.035156;
117573;-0.034180;0.037109;1.041992;
117714;-0.033203;0.038086;1.034180;
117854;-0.036133;0.036133;1.033203;
117994;-0.036133;0.037109;1.031250;
118134;-0.034180;0.036133;1.033203;
118284;-0.035156;0.036133;1.028320;
118424;-0.035156;0.036133;1.033203;
118564;-0.034180;0.036133;1.029297;
118713;-0.037109;0.035156;1.031250;
118854;-0.036133;0.037109;1.031250;
119000;-0.034180;0.037109;1.030273;
119139;-0.036133;0.036133;1.033203;
119289;-0.035156;0.036133;1.031250;
119439;-0.036133;0.036133;1.030273;
119589;-0.034180;0.037109;1.031250;
119719;-0.035156;0.037109;1.031250;
119859;-0.037109;0.036133;1.031250;
119990;-0.035156;0.037109;1.032227;
120119;-0.034180;0.039062;1.031250;
120274;-0.034180;0.037109;1.032227;
120414;-0.036133;0.036133;1.032227;
120554;-0.036133;0.036133;1.032227;
120694;-0.036133;0.036133;1.029297;
120834;-0.035156;0.037109;1.031250;
120974;-0.034180;0.037109;1.031250;
121113;-0.035156;0.035156;1.031250;
121264;-0.035156;0.037109;1.032227;
121404;-0.035156;0.037109;1.030273;
121544;-0.034180;0.036133;1.031250;
121684;-0.037109;0.035156;1.031250;
121824;-0.036133;0.036133;1.031250;
121964;-0.033203;0.037109;1.031250;
122104;-0.035156;0.037109;1.031250;
122239;-0.035156;0.039062;1.031250;
122370;-0.035156;0.037109;1.029297;
122500;-0.035156;0.037109;1.032227;
122649;-0.035156;0.037109;1.029297;
122779;-0.035156;0.036133;1.030273;
122910;-0.037109;0.036133;1.032227;
123040;-0.034180;0.038086;1.031250;
123179;-0.035156;0.038086;1.032227;
123329;-0.036133;0.036133;1.028320;
123460;-0.035156;0.037109;1.028320;
123604;-0.034180;0.037109;1.033203;
123743;-0.036133;0.036133;1.032227;
123894;-0.035156;0.035156;1.031250;
124034;-0.035156;0.037109;1.030273;
124173;-0.035156;0.036133;1.031250;
124314;-0.036133;0.036133;1.029297;
124454;-0.034180;0.037109;1.030273;
124594;-0.035156;0.036133;1.032227;
124734;-0.036133;0.036133;1.031250;
124874;-0.034180;0.038086;1.031250;
125014;-0.035156;0.037109;1.030273;
125154;-0.036133;0.038086;1.030273;
125294;-0.034180;0.038086;1.030273;
125434;-0.037109;0.036133;1.031250;
125569;-0.036133;0.036133;1.031250;
125709;-0.034180;0.036133;1.030273;
125839;-0.035156;0.037109;1.030273;
125969;-0.036133;0.037109;1.032227;
126109;-0.035156;0.036133;1.030273;
126239;-0.034180;0.037109;1.031250;
126369;-0.036133;0.037109;1.032227;
126510;-0.035156;0.037109;1.031250;
126659;-0.034180;0.039062;1.033203;
126814;-0.036133;0.036133;1.032227;
126954;-0.037109;0.037109;1.031250;
127094;-0.034180;0.037109;1.030273;
127234;-0.035156;0.039062;1.032227;
127374;-0.036133;0.036133;1.032227;
127515;-0.034180;0.036133;1.034180;
127664;-0.033203;0.038086;1.027344;
127804;-0.037109;0.037109;1.021484;
127943;-0.035156;0.037109;1.021484;
128084;-0.038086;0.038086;1.022461;
128224;-0.037109;0.034180;1.023438;
128364;-0.040039;0.037109;1.024414;
128504;-0.038086;0.035156;1.019531;
128644;-0.041016;0.037109;1.021484;
128779;-0.040039;0.035156;1.020508;
128929;-0.039062;0.039062;1.016602;
129069;-0.034180;0.036133;1.036133;
129219;-0.034180;0.037109;1.032227;
129359;-0.035156;0.036133;1.035156;
129489;-0.035156;0.037109;1.031250;
129629;-0.035156;0.037109;1.052734;
129759;-0.028320;0.030273;1.056641;
129899;-0.038086;0.034180;1.037109;
130044;-0.029297;0.038086;1.077148;
130184;-0.032227;0.039062;1.069336;
130334;-0.028320;0.047852;1.023438;
130474;-0.025391;0.044922;1.013672;
130614;-0.033203;0.030273;1.070312;
130763;-0.041016;0.041016;1.023438;
130904;-0.054688;0.030273;1.021484;
131044;-0.041016;0.033203;1.019531;
131184;-0.039062;0.032227;1.027344;
131324;-0.033203;0.037109;1.030273;
131464;-0.034180;0.038086;1.038086;
131604;-0.036133;0.037109;1.034180;
131754;-0.036133;0.037109;1.028320;
131894;-0.035156;0.037109;1.033203;
132039;-0.034180;0.037109;1.031250;
132179;-0.036133;0.036133;1.024414;
132319;-0.034180;0.037109;1.035156;
132449;-0.040039;0.035156;1.018555;
132589;-0.036133;0.035156;1.016602;
132719;-0.036133;0.037109;1.030273;
132869;-0.036133;0.037109;1.033203;
132999;-0.036133;0.035156;1.030273;
133139;-0.037109;0.037109;1.031250;
133289;-0.036133;0.036133;1.032227;
133444;-0.035156;0.038086;1.030273;
133594;-0.031250;0.038086;1.051758;
133734;-0.041016;0.041016;1.006836;
133874;-0.034180;0.040039;1.035156;
134024;-0.036133;0.037109;1.032227;
134164;-0.035156;0.036133;1.029297;
134304;-0.035156;0.037109;1.031250;
134444;-0.035156;0.037109;1.030273;
134584;-0.035156;0.038086;1.032227;
134724;-0.034180;0.038086;1.029297;
134864;-0.034180;0.037109;1.030273;
135004;-0.036133;0.035156;1.031250;
135144;-0.035156;0.035156;1.031250;
135294;-0.036133;0.038086;1.031250;
135419;-0.036133;0.037109;1.031250;
135559;-0.036133;0.036133;1.030273;
135689;-0.036133;0.035156;1.028320;
135829;-0.035156;0.037109;1.038086;
135979;-0.035156;0.035156;1.032227;
136120;-0.034180;0.040039;1.029297;
136249;-0.034180;0.039062;1.031250;
136400;-0.038086;0.037109;1.026367;
136539;-0.037109;0.038086;1.029297;
136694;-0.034180;0.039062;1.031250;
136843;-0.036133;0.035156;1.028320;
136984;-0.036133;0.037109;1.030273;
137124;-0.034180;0.038086;1.031250;
137264;-0.035156;0.037109;1.028320;
137404;-0.037109;0.036133;1.025391;
137544;-0.034180;0.040039;1.035156;
137684;-0.036133;0.037109;1.032227;
137824;-0.036133;0.037109;1.029297;
137964;-0.035156;0.036133;1.032227;
138104;-0.035156;0.038086;1.026367;
138244;-0.032227;0.037109;1.038086;
138384;-0.036133;0.037109;1.035156;
138514;-0.036133;0.037109;1.032227;
138649;-0.038086;0.037109;1.028320;
138789;-0.037109;0.040039;1.031250;
138929;-0.037109;0.037109;1.030273;
139072;-0.038086;0.037109;1.030273;
139209;-0.037109;0.040039;1.035156;
139349;-0.035156;0.035156;1.027344;
139499;-0.040039;0.036133;1.028320;
139629;-0.037109;0.035156;1.026367;
139769;-0.041016;0.039062;1.026367;
139904;-0.040039;0.041016;1.037109;
140044;-0.035156;0.038086;1.041992;
140184;-0.035156;0.036133;1.035156;
140324;-0.034180;0.037109;1.030273;
140464;-0.035156;0.038086;1.032227;
140614;-0.035156;0.036133;1.031250;
140753;-0.035156;0.038086;1.030273;
140894;-0.035156;0.037109;1.032227;
141034;-0.035156;0.037109;1.031250;
141174;-0.035156;0.037109;1.031250;
141314;-0.034180;0.037109;1.031250;
141454;-0.035156;0.037109;1.030273;
141594;-0.036133;0.038086;1.033203;
141734;-0.037109;0.037109;1.028320;
141880;-0.036133;0.036133;1.034180;
142014;-0.037109;0.037109;1.026367;
142149;-0.037109;0.038086;1.032227;
142299;-0.038086;0.037109;1.030273;
142449;-0.036133;0.039062;1.036133;
142579;-0.038086;0.036133;1.029297;
142719;-0.035156;0.036133;1.036133;
142859;-0.035156;0.039062;1.035156;
143004;-0.035156;0.037109;1.034180;
143150;-0.034180;0.039062;1.032227;
143294;-0.035156;0.036133;1.027344;
143430;-0.034180;0.038086;1.031250;
143571;-0.035156;0.037109;1.033203;
143724;-0.036133;0.037109;1.031250;
143874;-0.035156;0.036133;1.031250;
144014;-0.036133;0.037109;1.031250;
144153;-0.035156;0.040039;1.030273;
144293;-0.037109;0.037109;1.034180;
144434;-0.035156;0.037109;1.028320;
144574;-0.037109;0.036133;1.032227;
144714;-0.038086;0.039062;1.030273;
144854;-0.040039;0.036133;1.034180;
144994;-0.036133;0.033203;1.029297;
145134;-0.036133;0.035156;1.030273;
145273;-0.031250;0.034180;1.033203;
145414;-0.037109;0.034180;1.026367;
145554;-0.032227;0.033203;1.033203;
145689;-0.040039;0.035156;1.025391;
145820;-0.040039;0.039062;1.025391;
145959;-0.032227;0.043945;1.042969;
146092;-0.035156;0.036133;1.039062;
146229;-0.034180;0.036133;1.026367;
146369;-0.035156;0.037109;1.031250;
146500;-0.036133;0.036133;1.032227;
146639;-0.034180;0.038086;1.030273;
146779;-0.036133;0.038086;1.034180;
146924;-0.035156;0.036133;1.032227;
147064;-0.033203;0.036133;1.030273;
147204;-0.036133;0.035156;1.031250;
147344;-0.034180;0.039062;1.034180;
147484;-0.035156;0.039062;1.032227;
147624;-0.036133;0.038086;1.030273;
147773;-0.037109;0.038086;1.029297;
147914;-0.036133;0.037109;1.029297;
148054;-0.037109;0.037109;1.029297;
148194;-0.036133;0.037109;1.028320;
148334;-0.035156;0.037109;1.027344;
148474;-0.038086;0.037109;1.026367;
148614;-0.034180;0.038086;1.030273;
148754;-0.035156;0.038086;1.033203;
148891;-0.035156;0.037109;1.034180;
149039;-0.034180;0.037109;1.032227;
149189;-0.036133;0.036133;1.032227;
149330;-0.036133;0.036133;1.032227;
149470;-0.034180;0.037109;1.031250;
149600;-0.035156;0.037109;1.031250;
149729;-0.034180;0.038086;1.031250;
149879;-0.036133;0.035156;1.032227;
150024;-0.035156;0.036133;1.031250;
150173;-0.035156;0.037109;1.032227;
150314;-0.035156;0.038086;1.032227;
150454;-0.035156;0.037109;1.031250;
150594;-0.034180;0.037109;1.030273;
150733;-0.035156;0.036133;1.030273;
150883;-0.036133;0.037109;1.031250;
151024;-0.035156;0.036133;1.032227;
151164;-0.036133;0.034180;1.029297;
151313;-0.034180;0.037109;1.032227;
151454;-0.034180;0.036133;1.031250;
151594;-0.034180;0.038086;1.032227;
151734;-0.035156;0.036133;1.033203;
151874;-0.034180;0.037109;1.031250;
152019;-0.035156;0.038086;1.034180;
152161;-0.035156;0.038086;1.031250;
152309;-0.035156;0.038086;1.031250;
152459;-0.036133;0.037109;1.033203;
152599;-0.035156;0.037109;1.032227;
152739;-0.035156;0.037109;1.031250;
152874;-0.035156;0.036133;1.032227;
153009;-0.034180;0.039062;1.031250;
153149;-0.034180;0.038086;1.031250;
153289;-0.036133;0.036133;1.032227;
153434;-0.035156;0.037109;1.030273;
153584;-0.034180;0.037109;1.031250;
153734;-0.035156;0.037109;1.032227;
153873;-0.035156;0.039062;1.033203;
154013;-0.035156;0.036133;1.030273;
154154;-0.035156;0.036133;1.030273;
154294;-0.035156;0.040039;1.032227;
154434;-0.035156;0.037109;1.031250;
154574;-0.036133;0.034180;1.031250;
154714;-0.035156;0.038086;1.032227;
154854;-0.036133;0.036133;1.032227;
155003;-0.035156;0.037109;1.033203;
155144;-0.035156;0.038086;1.032227;
155284;-0.034180;0.038086;1.031250;
155409;-0.034180;0.037109;1.032227;
155559;-0.035156;0.038086;1.033203;
155689;-0.035156;0.037109;1.032227;
155829;-0.036133;0.036133;1.033203;
155969;-0.035156;0.039062;1.033203;
156124;-0.035156;0.036133;1.031250;
156259;-0.034180;0.037109;1.032227;
156394;-0.036133;0.036133;1.031250;
156533;-0.034180;0.038086;1.031250;
156669;-0.036133;0.038086;1.033203;
156809;-0.035156;0.036133;1.030273;
156949;-0.034180;0.038086;1.032227;
157094;-0.036133;0.037109;1.032227;
157234;-0.035156;0.038086;1.032227;
157373;-0.036133;0.035156;1.030273;
157514;-0.035156;0.038086;1.032227;
157653;-0.035156;0.037109;1.030273;
157794;-0.035156;0.036133;1.031250;
157944;-0.035156;0.038086;1.030273;
158084;-0.034180;0.037109;1.032227;
158224;-0.035156;0.037109;1.031250;
158363;-0.033203;0.038086;1.031250;
158503;-0.035156;0.038086;1.033203;
158644;-0.035156;0.038086;1.032227;
158794;-0.035156;0.035156;1.030273;
158934;-0.036133;0.037109;1.032227;
159073;-0.036133;0.037109;1.031250;
159210;-0.035156;0.037109;1.032227;
159344;-0.034180;0.037109;1.031250;
159479;-0.036133;0.036133;1.031250;
159619;-0.035156;0.037109;1.031250;
159769;-0.036133;0.037109;1.032227;
159910;-0.035156;0.036133;1.032227;
160060;-0.034180;0.037109;1.033203;
160199;-0.035156;0.038086;1.032227;
160329;-0.035156;0.038086;1.031250;
160474;-0.035156;0.037109;1.031250;
160614;-0.034180;0.038086;1.033203;
160754;-0.035156;0.037109;1.031250;
160904;-0.036133;0.037109;1.031250;
161044;-0.035156;0.037109;1.030273;
161184;-0.036133;0.036133;1.030273;
161324;-0.035156;0.037109;1.033203;
161464;-0.036133;0.038086;1.030273;
161604;-0.034180;0.038086;1.033203;
161743;-0.035156;0.037109;1.033203;
161884;-0.035156;0.037109;1.033203;
162024;-0.033203;0.039062;1.032227;
162164;-0.036133;0.035156;1.031250;
162304;-0.035156;0.037109;1.030273;
162439;-0.036133;0.036133;1.032227;
162569;-0.036133;0.036133;1.033203;
162710;-0.035156;0.036133;1.031250;
162849;-0.035156;0.036133;1.030273;
162999;-0.034180;0.039062;1.033203;
163139;-0.034180;0.038086;1.031250;
163274;-0.035156;0.037109;1.033203;
163414;-0.036133;0.037109;1.033203;
163549;-0.035156;0.038086;1.033203;
163694;-0.036133;0.036133;1.033203;
163829;-0.034180;0.039062;1.033203;
163969;-0.036133;0.036133;1.033203;
164120;-0.035156;0.036133;1.033203;
164274;-0.035156;0.037109;1.032227;
164414;-0.034180;0.037109;1.033203;
164554;-0.035156;0.037109;1.032227;
164694;-0.035156;0.037109;1.031250;
164834;-0.037109;0.035156;1.033203;
164984;-0.035156;0.038086;1.033203;
165124;-0.036133;0.036133;1.032227;
165264;-0.034180;0.037109;1.032227;
165404;-0.036133;0.036133;1.032227;
165544;-0.034180;0.038086;1.031250;
165684;-0.035156;0.036133;1.031250;
165823;-0.035156;0.038086;1.031250;
165964;-0.036133;0.038086;1.032227;
166104;-0.034180;0.037109;1.031250;
166244;-0.036133;0.036133;1.031250;
166379;-0.035156;0.037109;1.031250;
166509;-0.036133;0.034180;1.032227;
166649;-0.034180;0.037109;1.032227;
166789;-0.036133;0.036133;1.030273;
166939;-0.036133;0.036133;1.031250;
167079;-0.035156;0.037109;1.030273;
167209;-0.035156;0.036133;1.033203;
167339;-0.035156;0.038086;1.031250;
167484;-0.035156;0.036133;1.033203;
167624;-0.036133;0.036133;1.032227;
167774;-0.035156;0.038086;1.032227;
167914;-0.036133;0.038086;1.033203;
168054;-0.035156;0.037109;1.031250;
168203;-0.035156;0.038086;1.032227;
168344;-0.035156;0.036133;1.029297;
168484;-0.036133;0.035156;1.033203;
168624;-0.035156;0.037109;1.032227;
168764;-0.033203;0.038086;1.032227;
168904;-0.035156;0.038086;1.032227;
169044;-0.034180;0.036133;1.031250;
169184;-0.035156;0.040039;1.035156;
169323;-0.035156;0.038086;1.032227;
169460;-0.035156;0.038086;1.033203;
169589;-0.035156;0.036133;1.032227;
169731;-0.035156;0.037109;1.032227;
169869;-0.035156;0.036133;1.032227;
170009;-0.033203;0.039062;1.034180;
170149;-0.036133;0.037109;1.033203;
170289;-0.035156;0.037109;1.030273;
170429;-0.036133;0.036133;1.031250;
170569;-0.035156;0.036133;1.032227;
170719;-0.035156;0.037109;1.032227;
170864;-0.035156;0.036133;1.031250;
171003;-0.035156;0.037109;1.032227;
171154;-0.035156;0.039062;1.033203;
171294;-0.035156;0.038086;1.030273;
171433;-0.034180;0.039062;1.032227;
171584;-0.035156;0.036133;1.030273;
171724;-0.035156;0.037109;1.031250;
171864;-0.037109;0.035156;1.033203;
172004;-0.035156;0.037109;1.031250;
172143;-0.035156;0.037109;1.032227;
172283;-0.035156;0.037109;1.031250;
172424;-0.035156;0.038086;1.032227;
172563;-0.035156;0.037109;1.033203;
172704;-0.035156;0.036133;1.032227;
172829;-0.034180;0.038086;1.032227;
172960;-0.035156;0.037109;1.031250;
173100;-0.035156;0.037109;1.032227;
173239;-0.035156;0.038086;1.031250;
173370;-0.035156;0.037109;1.033203;
173504;-0.035156;0.038086;1.032227;
173644;-0.034180;0.038086;1.033203;
173779;-0.036133;0.036133;1.033203;
173929;-0.034180;0.036133;1.032227;
174060;-0.035156;0.036133;1.033203;
174199;-0.034180;0.037109;1.031250;
174329;-0.036133;0.036133;1.032227;
174469;-0.036133;0.036133;1.031250;
174614;-0.036133;0.036133;1.031250;
174754;-0.035156;0.036133;1.032227;
174894;-0.033203;0.038086;1.031250;
175034;-0.035156;0.037109;1.033203;
175174;-0.034180;0.038086;1.032227;
175314;-0.035156;0.037109;1.032227;
175454;-0.035156;0.036133;1.031250;
175604;-0.035156;0.036133;1.031250;
175744;-0.035156;0.037109;1.032227;
175884;-0.034180;0.038086;1.032227;
176033;-0.035156;0.036133;1.032227;
176174;-0.036133;0.037109;1.031250;
176314;-0.035156;0.037109;1.032227;
176454;-0.034180;0.036133;1.031250;
176589;-0.035156;0.036133;1.034180;
176729;-0.035156;0.038086;1.033203;
176879;-0.035156;0.037109;1.031250;
177029;-0.036133;0.037109;1.032227;
177169;-0.037109;0.035156;1.033203;
177299;-0.034180;0.037109;1.033203;
177449;-0.036133;0.036133;1.031250;
177604;-0.034180;0.037109;1.032227;
177744;-0.035156;0.036133;1.032227;
177884;-0.035156;0.038086;1.033203;
178024;-0.033203;0.038086;1.033203;
178164;-0.035156;0.035156;1.033203;
178304;-0.034180;0.038086;1.032227;
178444;-0.036133;0.037109;1.032227;
178594;-0.035156;0.039062;1.032227;
178734;-0.035156;0.036133;1.032227;
178874;-0.034180;0.036133;1.032227;
179014;-0.034180;0.038086;1.033203;
179154;-0.037109;0.036133;1.033203;
179294;-0.036133;0.038086;1.032227;
179433;-0.034180;0.037109;1.032227;
179569;-0.035156;0.036133;1.031250;
179699;-0.035156;0.037109;1.033203;
179839;-0.034180;0.039062;1.034180;
179980;-0.036133;0.036133;1.031250;
180119;-0.035156;0.037109;1.034180;
180259;-0.036133;0.036133;1.032227;
180403;-0.034180;0.037109;1.032227;
180539;-0.035156;0.036133;1.032227;
180679;-0.034180;0.036133;1.031250;
180809;-0.035156;0.034180;1.033203;
180969;-0.035156;0.037109;1.033203;
181124;-0.035156;0.038086;1.030273;
181264;-0.034180;0.038086;1.032227;
181414;-0.034180;0.038086;1.034180;
181554;-0.035156;0.037109;1.031250;
181694;-0.034180;0.037109;1.034180;
181834;-0.033203;0.038086;1.034180;
181974;-0.034180;0.038086;1.033203;
182114;-0.035156;0.037109;1.031250;
182254;-0.036133;0.039062;1.033203;
182394;-0.033203;0.037109;1.034180;
182534;-0.035156;0.036133;1.033203;
182674;-0.035156;0.037109;1.033203;
182814;-0.035156;0.037109;1.031250;
182954;-0.035156;0.036133;1.032227;
183094;-0.036133;0.036133;1.033203;
183229;-0.036133;0.038086;1.031250;
183369;-0.036133;0.036133;1.032227;
183519;-0.033203;0.037109;1.034180;
183669;-0.035156;0.037109;1.030273;
183809;-0.034180;0.037109;1.032227;
183949;-0.034180;0.038086;1.034180;
184090;-0.035156;0.036133;1.032227;
184219;-0.037109;0.036133;1.031250;
184349;-0.035156;0.037109;1.032227;
184493;-0.035156;0.036133;1.033203;
184634;-0.035156;0.039062;1.033203;
184774;-0.035156;0.035156;1.030273;
184914;-0.035156;0.037109;1.032227;
185054;-0.034180;0.038086;1.032227;
185194;-0.035156;0.037109;1.033203;
185334;-0.035156;0.039062;1.032227;
185473;-0.034180;0.037109;1.031250;
185614;-0.035156;0.038086;1.031250;
185754;-0.036133;0.037109;1.033203;
185904;-0.034180;0.038086;1.032227;
186044;-0.034180;0.037109;1.032227;
186184;-0.035156;0.038086;1.034180;
186334;-0.035156;0.037109;1.032227;
186469;-0.035156;0.037109;1.033203;
186599;-0.034180;0.037109;1.033203;
186739;-0.036133;0.035156;1.033203;
186880;-0.034180;0.038086;1.032227;
187009;-0.035156;0.037109;1.032227;
187140;-0.034180;0.036133;1.032227;
187289;-0.034180;0.037109;1.031250;
187419;-0.033203;0.038086;1.030273;
187549;-0.035156;0.037109;1.032227;
187684;-0.035156;0.038086;1.033203;
187824;-0.036133;0.037109;1.031250;
187963;-0.036133;0.037109;1.031250;
188104;-0.035156;0.039062;1.035156;
188243;-0.034180;0.038086;1.031250;
188384;-0.036133;0.037109;1.032227;
188524;-0.034180;0.038086;1.033203;
188664;-0.035156;0.036133;1.033203;
188804;-0.035156;0.037109;1.031250;
188954;-0.035156;0.037109;1.033203;
189094;-0.035156;0.036133;1.032227;
189234;-0.036133;0.035156;1.031250;
189374;-0.035156;0.036133;1.032227;
189513;-0.035156;0.038086;1.031250;
189649;-0.035156;0.039062;1.032227;
189789;-0.035156;0.037109;1.032227;
189920;-0.034180;0.037109;1.032227;
190059;-0.035156;0.037109;1.032227;
190189;-0.034180;0.038086;1.033203;
190329;-0.037109;0.036133;1.032227;
190469;-0.035156;0.039062;1.032227;
190614;-0.037109;0.036133;1.034180;
190760;-0.035156;0.038086;1.033203;
190909;-0.034180;0.036133;1.030273;
191064;-0.036133;0.036133;1.032227;
191203;-0.034180;0.038086;1.031250;
191354;-0.035156;0.036133;1.029297;
191494;-0.035156;0.037109;1.031250;
191634;-0.035156;0.037109;1.031250;
191774;-0.035156;0.037109;1.029297;
191914;-0.035156;0.035156;1.033203;
192054;-0.035156;0.037109;1.032227;
192194;-0.034180;0.037109;1.030273;
192334;-0.035156;0.039062;1.031250;
192473;-0.034180;0.037109;1.031250;
192613;-0.035156;0.037109;1.032227;
192754;-0.034180;0.039062;1.032227;
192894;-0.035156;0.036133;1.034180;
193029;-0.034180;0.037109;1.030273;
193159;-0.036133;0.038086;1.031250;
193289;-0.035156;0.037109;1.032227;
193429;-0.034180;0.037109;1.033203;
193574;-0.034180;0.037109;1.033203;
193714;-0.033203;0.036133;1.031250;
193850;-0.036133;0.034180;1.032227;
193989;-0.035156;0.037109;1.031250;
194129;-0.033203;0.037109;1.031250;
194269;-0.034180;0.037109;1.030273;
194409;-0.035156;0.037109;1.033203;
194549;-0.034180;0.036133;1.033203;
194694;-0.036133;0.036133;1.031250;
194834;-0.035156;0.037109;1.031250;
194974;-0.035156;0.037109;1.034180;
195114;-0.035156;0.038086;1.033203;
195254;-0.036133;0.035156;1.033203;
195394;-0.036133;0.036133;1.033203;
195534;-0.035156;0.036133;1.032227;
195674;-0.035156;0.037109;1.032227;
195814;-0.036133;0.039062;1.034180;
195954;-0.034180;0.038086;1.031250;
196094;-0.036133;0.036133;1.033203;
196233;-0.036133;0.037109;1.033203;
196374;-0.035156;0.036133;1.031250;
196514;-0.035156;0.037109;1.033203;
196650;-0.034180;0.038086;1.032227;
196794;-0.035156;0.036133;1.033203;
196944;-0.034180;0.038086;1.033203;
197079;-0.035156;0.036133;1.033203;
197229;-0.035156;0.035156;1.033203;
197369;-0.036133;0.036133;1.031250;
197509;-0.035156;0.036133;1.033203;
197659;-0.035156;0.035156;1.031250;
197799;-0.035156;0.037109;1.034180;
197944;-0.036133;0.037109;1.034180;
198093;-0.035156;0.037109;1.033203;
198234;-0.035156;0.037109;1.033203;
198373;-0.034180;0.036133;1.032227;
198514;-0.036133;0.037109;1.032227;
198654;-0.036133;0.037109;1.031250;
198794;-0.035156;0.037109;1.032227;
198934;-0.034180;0.036133;1.032227;
199074;-0.036133;0.036133;1.033203;
199223;-0.034180;0.038086;1.033203;
199364;-0.036133;0.035156;1.032227;
199504;-0.035156;0.038086;1.034180;
199654;-0.034180;0.038086;1.031250;
199794;-0.037109;0.035156;1.032227;
199929;-0.034180;0.037109;1.032227;
200074;-0.034180;0.040039;1.033203;
200214;-0.034180;0.038086;1.032227;
200349;-0.034180;0.037109;1.031250;
200489;-0.035156;0.037109;1.032227;
200629;-0.034180;0.039062;1.033203;
200759;-0.033203;0.037109;1.032227;
200889;-0.035156;0.036133;1.032227;
201039;-0.035156;0.037109;1.031250;
201170;-0.036133;0.037109;1.033203;
201310;-0.035156;0.037109;1.033203;
201439;-0.035156;0.036133;1.032227;
201584;-0.035156;0.035156;1.031250;
201724;-0.034180;0.037109;1.034180;
201874;-0.034180;0.037109;1.032227;
202014;-0.036133;0.036133;1.033203;
202224;-0.035156;0.036133;1.033203;
202444;-0.035156;0.037109;1.033203;
202664;-0.035156;0.037109;1.033203;
202884;-0.035156;0.037109;1.033203;
203104;-0.035156;0.036133;1.033203;
203324;-0.036133;0.037109;1.033203;
203544;-0.035156;0.035156;1.031250;
203764;-0.035156;0.037109;1.032227;
203983;-0.035156;0.037109;1.031250;
204204;-0.035156;0.039062;1.033203;
204419;-0.035156;0.038086;1.032227;
204629;-0.034180;0.036133;1.033203;
204859;-0.036133;0.037109;1.032227;
205074;-0.034180;0.036133;1.032227;
205293;-0.035156;0.036133;1.034180;
205514;-0.035156;0.036133;1.032227;
205729;-0.035156;0.036133;1.033203;
205964;-0.034180;0.037109;1.031250;
206184;-0.034180;0.037109;1.033203;
206404;-0.035156;0.037109;1.032227;
206624;-0.035156;0.037109;1.032227;
206843;-0.034180;0.036133;1.032227;
207064;-0.036133;0.036133;1.033203;
207284;-0.035156;0.038086;1.031250;
207504;-0.036133;0.037109;1.032227;
207724;-0.034180;0.038086;1.031250;
207944;-0.035156;0.038086;1.032227;
208164;-0.034180;0.036133;1.031250;
208384;-0.035156;0.035156;1.032227;
208604;-0.035156;0.038086;1.032227;
208823;-0.036133;0.037109;1.031250;
209030;-0.036133;0.038086;1.034180;
209239;-0.036133;0.038086;1.032227;
209469;-0.035156;0.036133;1.034180;
209684;-0.034180;0.037109;1.032227;
209909;-0.035156;0.038086;1.032227;
210124;-0.034180;0.039062;1.034180;
210344;-0.035156;0.038086;1.034180;
210564;-0.035156;0.036133;1.031250;
210784;-0.035156;0.037109;1.033203;
211004;-0.035156;0.037109;1.033203;
211223;-0.035156;0.037109;1.033203;
211444;-0.035156;0.038086;1.034180;
211654;-0.035156;0.036133;1.032227;
211874;-0.035156;0.037109;1.032227;
212094;-0.036133;0.037109;1.033203;
212309;-0.034180;0.037109;1.033203;
212533;-0.035156;0.037109;1.033203;
212754;-0.035156;0.038086;1.033203;
212969;-0.035156;0.037109;1.032227;
213189;-0.036133;0.036133;1.032227;
213399;-0.035156;0.037109;1.032227;
213619;-0.035156;0.037109;1.031250;
213850;-0.035156;0.036133;1.033203;
214080;-0.035156;0.036133;1.031250;
214304;-0.036133;0.037109;1.031250;
214514;-0.035156;0.037109;1.031250;
214729;-0.035156;0.038086;1.034180;
214964;-0.035156;0.037109;1.031250;
215184;-0.035156;0.038086;1.034180;
215400;-0.035156;0.037109;1.032227;
215624;-0.035156;0.035156;1.033203;
215844;-0.034180;0.038086;1.032227;
216060;-0.036133;0.037109;1.034180;
216269;-0.035156;0.037109;1.032227;
216504;-0.035156;0.037109;1.032227;
216724;-0.035156;0.036133;1.033203;
216939;-0.034180;0.036133;1.033203;
217139;-0.034180;0.037109;1.030273;
217354;-0.035156;0.038086;1.033203;
217569;-0.034180;0.038086;1.034180;
217779;-0.035156;0.036133;1.032227;
218009;-0.036133;0.036133;1.034180;
218229;-0.035156;0.039062;1.033203;
218449;-0.035156;0.038086;1.033203;
218669;-0.035156;0.038086;1.033203;
218904;-0.034180;0.037109;1.033203;
219125;-0.036133;0.035156;1.033203;
219354;-0.034180;0.037109;1.033203;
219574;-0.035156;0.038086;1.031250;
219794;-0.034180;0.039062;1.033203;
219999;-0.035156;0.035156;1.033203;
220224;-0.035156;0.037109;1.033203;
220444;-0.034180;0.037109;1.031250;
220664;-0.034180;0.038086;1.033203;
220884;-0.034180;0.037109;1.035156;
221104;-0.036133;0.038086;1.033203;
221323;-0.033203;0.038086;1.032227;
221544;-0.035156;0.036133;1.032227;
221763;-0.036133;0.037109;1.031250;
221969;-0.035156;0.037109;1.033203;
222179;-0.035156;0.036133;1.031250;
222400;-0.036133;0.037109;1.032227;
222619;-0.035156;0.038086;1.033203;
222844;-0.034180;0.038086;1.033203;
223064;-0.035156;0.036133;1.032227;
223284;-0.035156;0.038086;1.031250;
223504;-0.036133;0.036133;1.034180;
223724;-0.034180;0.037109;1.033203;
223944;-0.035156;0.037109;1.032227;
224164;-0.035156;0.037109;1.032227;
224383;-0.036133;0.037109;1.031250;
224604;-0.033203;0.038086;1.033203;
224824;-0.035156;0.037109;1.033203;
225044;-0.035156;0.038086;1.034180;
225264;-0.033203;0.037109;1.032227;
225484;-0.035156;0.038086;1.034180;
225705;-0.035156;0.039062;1.034180;
225929;-0.035156;0.037109;1.034180;
226149;-0.034180;0.037109;1.031250;
226359;-0.034180;0.037109;1.031250;
226569;-0.035156;0.037109;1.033203;
226793;-0.036133;0.038086;1.034180;
227014;-0.034180;0.038086;1.034180;
227234;-0.035156;0.036133;1.033203;
227454;-0.034180;0.035156;1.041992;
227674;-0.036133;0.035156;1.032227;
227884;-0.035156;0.037109;1.033203;
228104;-0.034180;0.036133;1.033203;
228319;-0.035156;0.038086;1.034180;
228554;-0.034180;0.037109;1.034180;
228774;-0.033203;0.040039;1.035156;
228994;-0.034180;0.037109;1.034180;
229214;-0.035156;0.038086;1.033203;
229433;-0.035156;0.037109;1.033203;
229654;-0.035156;0.038086;1.034180;
229869;-0.035156;0.037109;1.032227;
230099;-0.034180;0.036133;1.032227;
230309;-0.036133;0.036133;1.032227;
230529;-0.034180;0.036133;1.032227;
230741;-0.036133;0.036133;1.033203;
230964;-0.036133;0.036133;1.032227;
231183;-0.034180;0.037109;1.033203;
231404;-0.035156;0.036133;1.032227;
231624;-0.035156;0.039062;1.033203;
231844;-0.036133;0.036133;1.034180;
232064;-0.035156;0.037109;1.032227;
232284;-0.035156;0.037109;1.033203;
232504;-0.036133;0.036133;1.033203;
232724;-0.035156;0.038086;1.033203;
232944;-0.034180;0.038086;1.032227;
233164;-0.034180;0.039062;1.033203;
233384;-0.033203;0.038086;1.033203;
233604;-0.034180;0.037109;1.032227;
233824;-0.035156;0.038086;1.034180;
234031;-0.035156;0.036133;1.034180;
234239;-0.034180;0.037109;1.033203;
234472;-0.033203;0.037109;1.032227;
234679;-0.035156;0.036133;1.033203;
234889;-0.034180;0.038086;1.032227;
235114;-0.035156;0.037109;1.033203;
235334;-0.034180;0.037109;1.033203;
235554;-0.034180;0.036133;1.031250;
235774;-0.035156;0.037109;1.031250;
235994;-0.035156;0.036133;1.033203;
236214;-0.035156;0.037109;1.033203;
236434;-0.035156;0.038086;1.033203;
236654;-0.035156;0.036133;1.033203;
236874;-0.035156;0.037109;1.033203;
237094;-0.035156;0.037109;1.032227;
237314;-0.036133;0.037109;1.033203;
237534;-0.035156;0.037109;1.033203;
237754;-0.036133;0.037109;1.032227;
237970;-0.034180;0.037109;1.033203;
238179;-0.035156;0.039062;1.034180;
238404;-0.035156;0.037109;1.033203;
238610;-0.035156;0.037109;1.033203;
238819;-0.034180;0.036133;1.032227;
239044;-0.035156;0.037109;1.031250;
239264;-0.035156;0.035156;1.033203;
239484;-0.035156;0.038086;1.034180;
239704;-0.035156;0.036133;1.033203;
239924;-0.034180;0.038086;1.033203;
240144;-0.034180;0.038086;1.033203;
240364;-0.035156;0.037109;1.033203;
240584;-0.035156;0.039062;1.033203;
240804;-0.035156;0.036133;1.034180;
241024;-0.034180;0.037109;1.033203;
241243;-0.034180;0.037109;1.034180;
241464;-0.036133;0.038086;1.034180;
241684;-0.035156;0.037109;1.031250;
241904;-0.034180;0.038086;1.033203;
242109;-0.035156;0.037109;1.033203;
242329;-0.034180;0.040039;1.034180;
242539;-0.035156;0.039062;1.034180;
242749;-0.034180;0.037109;1.032227;
242959;-0.034180;0.036133;1.033203;
243174;-0.035156;0.037109;1.033203;
243394;-0.035156;0.037109;1.033203;
243614;-0.035156;0.038086;1.033203;
243834;-0.034180;0.038086;1.032227;
244054;-0.034180;0.036133;1.032227;
244274;-0.035156;0.036133;1.034180;
244494;-0.036133;0.037109;1.034180;
244714;-0.035156;0.039062;1.032227;
244934;-0.034180;0.038086;1.034180;
245154;-0.035156;0.037109;1.033203;
245374;-0.033203;0.039062;1.034180;
245594;-0.034180;0.037109;1.034180;
245814;-0.033203;0.037109;1.033203;
246035;-0.035156;0.039062;1.032227;
246251;-0.035156;0.037109;1.032227;
246480;-0.035156;0.038086;1.034180;
246689;-0.035156;0.036133;1.032227;
246899;-0.036133;0.037109;1.033203;
247114;-0.034180;0.037109;1.036133;
247334;-0.034180;0.038086;1.031250;
247554;-0.035156;0.036133;1.033203;
247774;-0.035156;0.038086;1.032227;
247994;-0.034180;0.037109;1.030273;
248214;-0.034180;0.038086;1.032227;
248434;-0.035156;0.037109;1.032227;
248654;-0.035156;0.037109;1.034180;
248874;-0.035156;0.037109;1.032227;
249093;-0.034180;0.036133;1.032227;
249314;-0.035156;0.037109;1.033203;
249534;-0.036133;0.037109;1.034180;
249754;-0.035156;0.036133;1.032227;
249974;-0.036133;0.037109;1.032227;
250180;-0.036133;0.038086;1.034180;
250389;-0.035156;0.038086;1.033203;
250599;-0.035156;0.036133;1.032227;
250809;-0.034180;0.038086;1.032227;
251029;-0.035156;0.037109;1.033203;
251254;-0.034180;0.038086;1.032227;
251474;-0.034180;0.037109;1.033203;
251694;-0.034180;0.038086;1.033203;
251914;-0.035156;0.036133;1.034180;
252134;-0.034180;0.038086;1.034180;
252354;-0.034180;0.039062;1.032227;
252574;-0.034180;0.038086;1.034180;
252794;-0.034180;0.039062;1.034180;
253014;-0.034180;0.037109;1.032227;
253234;-0.034180;0.037109;1.033203;
253453;-0.034180;0.037109;1.033203;
253674;-0.033203;0.038086;1.034180;
253894;-0.034180;0.039062;1.032227;
254114;-0.035156;0.035156;1.032227;
254329;-0.035156;0.037109;1.034180;
254560;-0.035156;0.035156;1.032227;
254789;-0.034180;0.037109;1.033203;
254999;-0.033203;0.038086;1.033203;
255209;-0.035156;0.037109;1.031250;
255429;-0.036133;0.036133;1.034180;
255664;-0.036133;0.038086;1.033203;
255884;-0.035156;0.036133;1.034180;
256104;-0.035156;0.037109;1.031250;
256324;-0.036133;0.036133;1.033203;
256544;-0.034180;0.038086;1.033203;
256764;-0.034180;0.037109;1.032227;
256983;-0.036133;0.036133;1.033203;
257204;-0.034180;0.036133;1.033203;
257424;-0.035156;0.037109;1.034180;
257644;-0.035156;0.037109;1.034180;
257864;-0.034180;0.039062;1.032227;
258084;-0.034180;0.038086;1.033203;
258304;-0.035156;0.039062;1.034180;
258520;-0.035156;0.037109;1.034180;
258729;-0.034180;0.037109;1.032227;
258940;-0.034180;0.038086;1.032227;
259154;-0.033203;0.039062;1.034180;
259359;-0.035156;0.035156;1.032227;
259569;-0.035156;0.038086;1.033203;
259784;-0.035156;0.036133;1.034180;
260004;-0.034180;0.039062;1.032227;
260224;-0.035156;0.038086;1.032227;
260444;-0.034180;0.037109;1.033203;
260664;-0.034180;0.038086;1.034180;
260884;-0.034180;0.037109;1.034180;
261104;-0.035156;0.037109;1.033203;
261323;-0.034180;0.036133;1.035156;
261544;-0.034180;0.037109;1.033203;
261764;-0.035156;0.036133;1.032227;
261984;-0.036133;0.037109;1.032227;
262204;-0.035156;0.036133;1.032227;
262424;-0.034180;0.037109;1.032227;
262644;-0.035156;0.038086;1.033203;
262850;-0.035156;0.038086;1.033203;
263059;-0.035156;0.035156;1.032227;
263269;-0.034180;0.037109;1.034180;
263494;-0.035156;0.037109;1.034180;
263714;-0.034180;0.037109;1.033203;
263934;-0.034180;0.039062;1.032227;
264154;-0.034180;0.035156;1.034180;
264373;-0.035156;0.037109;1.033203;
264594;-0.034180;0.037109;1.033203;
264814;-0.033203;0.038086;1.033203;
265034;-0.035156;0.037109;1.034180;
265254;-0.034180;0.038086;1.032227;
265474;-0.035156;0.037109;1.032227;
265694;-0.036133;0.035156;1.032227;
265914;-0.036133;0.035156;1.032227;
266134;-0.034180;0.038086;1.034180;
266354;-0.034180;0.036133;1.033203;
266574;-0.036133;0.036133;1.033203;
266794;-0.033203;0.037109;1.033203;
266999;-0.034180;0.037109;1.034180;
267231;-0.036133;0.036133;1.032227;
267459;-0.035156;0.037109;1.033203;
267689;-0.034180;0.036133;1.032227;
267914;-0.034180;0.036133;1.033203;
268134;-0.035156;0.038086;1.034180;
268354;-0.035156;0.038086;1.034180;
268574;-0.035156;0.036133;1.033203;
268794;-0.034180;0.037109;1.032227;
269014;-0.034180;0.038086;1.033203;
269234;-0.034180;0.039062;1.034180;
269454;-0.034180;0.035156;1.033203;
269674;-0.034180;0.036133;1.033203;
269894;-0.034180;0.038086;1.034180;
270114;-0.033203;0.036133;1.033203;
270334;-0.034180;0.038086;1.033203;
270553;-0.034180;0.038086;1.033203;
270774;-0.035156;0.036133;1.034180;
270989;-0.033203;0.037109;1.033203;
271211;-0.035156;0.036133;1.032227;
271439;-0.035156;0.037109;1.034180;
271650;-0.034180;0.037109;1.033203;
271864;-0.033203;0.037109;1.034180;
272084;-0.034180;0.036133;1.032227;
272304;-0.036133;0.036133;1.032227;
272523;-0.035156;0.037109;1.034180;
272744;-0.035156;0.034180;1.033203;
272963;-0.035156;0.036133;1.034180;
273184;-0.035156;0.038086;1.032227;
273404;-0.034180;0.038086;1.035156;
273624;-0.035156;0.035156;1.034180;
273844;-0.034180;0.039062;1.035156;
274064;-0.035156;0.038086;1.033203;
274284;-0.035156;0.036133;1.033203;
274504;-0.034180;0.038086;1.033203;
274724;-0.035156;0.038086;1.033203;
274940;-0.034180;0.038086;1.032227;
275149;-0.034180;0.038086;1.034180;
275380;-0.034180;0.037109;1.033203;
275589;-0.034180;0.037109;1.035156;
275814;-0.033203;0.037109;1.033203;
276034;-0.034180;0.036133;1.035156;
276254;-0.036133;0.036133;1.033203;
276473;-0.033203;0.039062;1.034180;
276694;-0.035156;0.037109;1.034180;
276914;-0.034180;0.037109;1.033203;
277134;-0.034180;0.038086;1.031250;
277354;-0.035156;0.037109;1.035156;
277574;-0.034180;0.037109;1.034180;
277794;-0.034180;0.036133;1.035156;
278014;-0.034180;0.037109;1.032227;
278234;-0.034180;0.039062;1.033203;
278454;-0.033203;0.037109;1.033203;
278674;-0.035156;0.037109;1.032227;
278880;-0.034180;0.038086;1.033203;
279101;-0.034180;0.039062;1.035156;
279329;-0.033203;0.037109;1.033203;
279560;-0.034180;0.038086;1.034180;
279794;-0.035156;0.037109;1.033203;
280014;-0.035156;0.038086;1.035156;
280233;-0.034180;0.037109;1.032227;
280454;-0.035156;0.037109;1.034180;
280674;-0.034180;0.037109;1.033203;
280894;-0.033203;0.040039;1.033203;
281114;-0.034180;0.038086;1.034180;
281334;-0.033203;0.039062;1.034180;
281553;-0.034180;0.038086;1.033203;
281774;-0.034180;0.036133;1.032227;
281994;-0.036133;0.035156;1.034180;
282214;-0.035156;0.037109;1.033203;
282434;-0.033203;0.038086;1.034180;
282650;-0.036133;0.038086;1.033203;
282859;-0.035156;0.038086;1.035156;
283079;-0.035156;0.038086;1.035156;
283299;-0.034180;0.036133;1.033203;
283519;-0.034180;0.037109;1.033203;
283744;-0.035156;0.037109;1.034180;
283964;-0.035156;0.037109;1.033203;
284184;-0.035156;0.037109;1.033203;
284404;-0.035156;0.036133;1.032227;
284624;-0.034180;0.037109;1.035156;
284844;-0.034180;0.038086;1.034180;
285064;-0.035156;0.036133;1.034180;
285284;-0.034180;0.039062;1.034180;
285503;-0.033203;0.038086;1.034180;
285724;-0.034180;0.036133;1.033203;
285944;-0.034180;0.037109;1.032227;
286164;-0.034180;0.037109;1.035156;
286384;-0.035156;0.037109;1.032227;
286604;-0.035156;0.035156;1.034180;
286809;-0.035156;0.038086;1.034180;
287029;-0.034180;0.037109;1.033203;
287249;-0.034180;0.038086;1.034180;
287469;-0.035156;0.037109;1.034180;
287679;-0.034180;0.037109;1.033203;
287904;-0.034180;0.038086;1.036133;
288124;-0.034180;0.037109;1.033203;
288344;-0.033203;0.037109;1.032227;
288564;-0.035156;0.036133;1.034180;
288784;-0.036133;0.037109;1.033203;
289004;-0.034180;0.036133;1.033203;
289224;-0.034180;0.036133;1.034180;
289444;-0.035156;0.037109;1.034180;
289663;-0.034180;0.037109;1.034180;
289884;-0.035156;0.037109;1.034180;
290104;-0.034180;0.037109;1.032227;
290324;-0.034180;0.037109;1.033203;
290544;-0.032227;0.039062;1.034180;
290759;-0.034180;0.039062;1.032227;
290969;-0.033203;0.039062;1.033203;
291199;-0.035156;0.036133;1.033203;
291429;-0.036133;0.037109;1.033203;
291654;-0.035156;0.037109;1.033203;
291874;-0.035156;0.037109;1.035156;
292094;-0.034180;0.038086;1.032227;
292314;-0.034180;0.038086;1.033203;
292534;-0.035156;0.038086;1.034180;
292753;-0.034180;0.037109;1.033203;
292974;-0.035156;0.038086;1.034180;
293194;-0.034180;0.037109;1.034180;
293414;-0.035156;0.036133;1.034180;
293634;-0.034180;0.036133;1.033203;
293854;-0.035156;0.038086;1.034180;
294074;-0.034180;0.039062;1.033203;
294294;-0.035156;0.036133;1.035156;
294514;-0.035156;0.037109;1.033203;
294730;-0.035156;0.037109;1.032227;
294939;-0.034180;0.036133;1.033203;
295160;-0.035156;0.037109;1.034180;
295379;-0.034180;0.037109;1.034180;
295604;-0.033203;0.036133;1.033203;
295824;-0.035156;0.037109;1.035156;
296044;-0.035156;0.037109;1.033203;
296264;-0.035156;0.037109;1.034180;
296484;-0.034180;0.038086;1.034180;
296704;-0.033203;0.037109;1.033203;
296924;-0.035156;0.036133;1.033203;
297144;-0.036133;0.036133;1.034180;
297364;-0.034180;0.037109;1.034180;
297584;-0.033203;0.038086;1.034180;
297804;-0.034180;0.037109;1.034180;
298024;-0.034180;0.037109;1.032227;
298244;-0.034180;0.036133;1.031250;
298459;-0.035156;0.038086;1.034180;
298669;-0.035156;0.038086;1.035156;
298879;-0.035156;0.038086;1.034180;
299109;-0.035156;0.038086;1.034180;
299334;-0.034180;0.037109;1.034180;
299554;-0.035156;0.036133;1.033203;
299774;-0.034180;0.036133;1.034180;
299994;-0.034180;0.036133;1.034180;
300214;-0.034180;0.037109;1.033203;
300434;-0.034180;0.038086;1.034180;
300654;-0.033203;0.037109;1.033203;
300874;-0.035156;0.037109;1.034180;
301094;-0.034180;0.037109;1.033203;
301313;-0.034180;0.038086;1.034180;
301534;-0.034180;0.038086;1.033203;
301754;-0.035156;0.035156;1.034180;
301974;-0.034180;0.038086;1.034180;
302194;-0.035156;0.036133;1.035156;
302409;-0.035156;0.037109;1.033203;
302629;-0.035156;0.037109;1.033203;
302849;-0.034180;0.038086;1.034180;
303069;-0.035156;0.036133;1.033203;
303289;-0.034180;0.037109;1.033203;
303514;-0.034180;0.036133;1.034180;
303734;-0.034180;0.036133;1.033203;
303954;-0.034180;0.037109;1.033203;
304174;-0.035156;0.037109;1.034180;
304394;-0.035156;0.036133;1.034180;
304614;-0.033203;0.037109;1.036133;
304834;-0.035156;0.036133;1.034180;
305054;-0.035156;0.037109;1.033203;
305274;-0.035156;0.037109;1.033203;
305494;-0.033203;0.038086;1.034180;
305714;-0.034180;0.037109;1.034180;
305934;-0.035156;0.037109;1.034180;
306154;-0.034180;0.037109;1.034180;
306369;-0.033203;0.036133;1.033203;
306584;-0.033203;0.038086;1.033203;
306799;-0.034180;0.037109;1.035156;
307019;-0.036133;0.036133;1.034180;
307239;-0.034180;0.037109;1.034180;
307464;-0.034180;0.038086;1.032227;
307684;-0.035156;0.037109;1.034180;
307904;-0.035156;0.037109;1.034180;
308123;-0.034180;0.038086;1.033203;
308343;-0.034180;0.038086;1.034180;
308563;-0.035156;0.038086;1.035156;
