Time;acc_x;acc_y;acc_z;

398067;-0.081055;0.019531;1.331055;
398285;-0.081055;0.017578;1.317383;
398435;-0.079102;0.028320;1.320312;
398575;-0.081055;0.024414;1.330078;
398715;-0.080078;0.025391;1.328125;
398855;-0.078125;0.024414;1.333984;
398995;-0.078125;0.030273;1.331055;
399135;-0.076172;0.024414;1.339844;
399275;-0.079102;0.025391;1.348633;
399415;-0.079102;0.022461;1.338867;
399555;-0.080078;0.023438;1.320312;
399695;-0.078125;0.022461;1.328125;
399835;-0.083984;0.025391;1.317383;
399975;-0.078125;0.015625;1.312500;
400115;-0.079102;0.017578;1.295898;
400255;-0.081055;0.013672;1.274414;
400395;-0.083008;0.016602;1.281250;
400535;-0.084961;0.022461;1.281250;
400670;-0.083008;0.023438;1.289062;
400820;-0.078125;0.022461;1.290039;
400960;-0.083008;0.027344;1.288086;
401100;-0.080078;0.030273;1.282227;
401240;-0.080078;0.033203;1.283203;
401390;-0.082031;0.031250;1.264648;
401540;-0.083984;0.027344;1.246094;
401685;-0.083984;0.033203;1.236328;
401820;-0.084961;0.032227;1.209961;
401975;-0.085938;0.031250;1.205078;
402115;-0.084961;0.027344;1.180664;
402255;-0.087891;0.030273;1.161133;
402395;-0.088867;0.024414;1.133789;
402535;-0.087891;0.023438;1.116211;
402675;-0.089844;0.021484;1.092773;
402815;-0.089844;0.021484;1.091797;
402955;-0.090820;0.022461;1.080078;
403095;-0.090820;0.021484;1.070312;
403235;-0.090820;0.019531;1.068359;
403375;-0.091797;0.017578;1.049805;
403515;-0.092773;0.025391;1.046875;
403650;-0.093750;0.029297;1.036133;
403800;-0.094727;0.026367;1.017578;
403930;-0.095703;0.029297;1.027344;
404080;-0.093750;0.031250;1.052734;
404211;-0.094727;0.031250;1.066406;
404360;-0.090820;0.032227;1.083008;
404490;-0.090820;0.026367;1.096680;
404645;-0.088867;0.026367;1.127930;
404785;-0.083008;0.026367;1.166016;
404925;-0.083984;0.029297;1.195312;
405075;-0.082031;0.026367;1.215820;
405215;-0.081055;0.022461;1.234375;
405365;-0.077148;0.028320;1.244141;
405505;-0.078125;0.022461;1.251953;
405645;-0.075195;0.020508;1.261719;
405785;-0.076172;0.020508;1.267578;
405925;-0.074219;0.026367;1.285156;
406065;-0.069336;0.023438;1.292969;
406205;-0.066406;0.019531;1.324219;
406345;-0.063477;0.024414;1.342773;
406485;-0.059570;0.024414;1.379883;
406620;-0.057617;0.019531;1.387695;
406760;-0.053711;0.022461;1.413086;
406901;-0.051758;0.026367;1.439453;
407045;-0.046875;0.025391;1.460938;
407190;-0.046875;0.023438;1.465820;
407340;-0.039062;0.027344;1.459961;
407485;-0.038086;0.028320;1.455078;
407625;-0.034180;0.034180;1.428711;
407765;-0.035156;0.029297;1.418945;
407905;-0.028320;0.023438;1.373047;
408055;-0.025391;0.024414;1.335938;
408195;-0.021484;0.021484;1.286133;
408345;-0.019531;0.022461;1.236328;
408485;-0.013672;0.021484;1.198242;
408625;-0.008789;0.025391;1.156250;
408765;-0.004883;0.021484;1.119141;
408905;-0.001953;0.026367;1.085938;
409055;-0.001953;0.026367;1.041992;
409195;-0.005859;0.024414;1.018555;
409335;-0.001953;0.031250;1.009766;
409485;-0.003906;0.032227;0.995117;
409620;-0.006836;0.027344;0.984375;
409771;-0.004883;0.028320;0.982422;
409920;-0.003906;0.029297;0.987305;
410060;-0.004883;0.030273;0.970703;
410210;-0.003906;0.033203;0.978516;
410361;-0.005859;0.035156;0.969727;
410490;-0.010742;0.033203;0.950195;
410645;-0.006836;0.028320;0.945312;
410785;-0.007812;0.028320;0.933594;
410925;-0.006836;0.028320;0.928711;
411075;-0.005859;0.025391;0.925781;
411215;-0.005859;0.025391;0.903320;
411355;-0.010742;0.027344;0.906250;
411495;-0.007812;0.024414;0.897461;
411635;-0.009766;0.027344;0.885742;
411775;-0.010742;0.028320;0.887695;
411915;-0.010742;0.024414;0.884766;
412055;-0.006836;0.027344;0.892578;
412195;-0.006836;0.026367;0.911133;
412335;-0.010742;0.025391;0.918945;
412475;-0.009766;0.027344;0.937500;
412610;-0.006836;0.025391;0.939453;
412760;-0.007812;0.027344;0.950195;
412910;-0.007812;0.029297;0.931641;
413055;-0.010742;0.030273;0.917969;
413201;-0.006836;0.031250;0.915039;
413340;-0.011719;0.032227;0.913086;
413475;-0.013672;0.034180;0.904297;
413610;-0.007812;0.018555;0.923828;
413740;-0.010742;0.034180;0.909180;
413880;-0.010742;0.021484;0.896484;
414030;-0.003906;0.024414;0.895508;
414175;-0.012695;0.016602;0.885742;
414315;-0.005859;0.022461;0.888672;
414455;-0.011719;0.024414;0.892578;
414595;-0.009766;0.029297;0.945312;
414745;-0.004883;0.024414;0.978516;
414885;-0.010742;0.025391;0.972656;
415025;-0.008789;0.021484;1.008789;
415165;-0.005859;0.032227;1.044922;
415305;-0.004883;0.025391;1.069336;
415445;0.000000;0.030273;1.126953;
415585;-0.000977;0.030273;1.145508;
415735;-0.001953;0.035156;1.171875;
415875;-0.004883;0.026367;1.169922;
416015;-0.003906;0.033203;1.152344;
416150;-0.008789;0.024414;1.157227;
416290;-0.008789;0.021484;1.145508;
416440;-0.005859;0.027344;1.135742;
416581;-0.009766;0.020508;1.135742;
416730;-0.009766;0.018555;1.152344;
416881;-0.006836;0.021484;1.176758;
417020;-0.008789;0.024414;1.186523;
417170;-0.007812;0.030273;1.191406;
417315;-0.002930;0.027344;1.205078;
417455;-0.003906;0.031250;1.204102;
417605;-0.008789;0.029297;1.185547;
417745;-0.010742;0.033203;1.177734;
417885;-0.011719;0.028320;1.135742;
418035;-0.009766;0.027344;1.121094;
418175;-0.006836;0.032227;1.096680;
418316;-0.012695;0.031250;1.082031;
418465;-0.014648;0.028320;1.054688;
418605;-0.013672;0.025391;1.042969;
418745;-0.018555;0.027344;1.027344;
418881;-0.018555;0.024414;1.028320;
419025;-0.019531;0.025391;1.034180;
419165;-0.017578;0.027344;1.048828;
419310;-0.016602;0.024414;1.061523;
419450;-0.013672;0.027344;1.083984;
419601;-0.011719;0.027344;1.096680;
419730;-0.016602;0.029297;1.086914;
419881;-0.015625;0.030273;1.073242;
420020;-0.016602;0.033203;1.067383;
420151;-0.016602;0.030273;1.048828;
420300;-0.016602;0.032227;1.042969;
420430;-0.016602;0.032227;1.032227;
420580;-0.017578;0.032227;1.010742;
420725;-0.019531;0.030273;0.995117;
420875;-0.020508;0.026367;1.002930;
421015;-0.018555;0.023438;1.000000;
421150;-0.017578;0.024414;1.016602;
421285;-0.011719;0.024414;1.048828;
421425;-0.012695;0.025391;1.055664;
421565;-0.014648;0.027344;1.073242;
421705;-0.015625;0.028320;1.085938;
421840;-0.018555;0.024414;1.085938;
421985;-0.017578;0.021484;1.065430;
422125;-0.010742;0.025391;1.077148;
422265;-0.017578;0.021484;1.081055;
422405;-0.015625;0.025391;1.070312;
422545;-0.014648;0.023438;1.041016;
422680;-0.026367;0.028320;1.035156;
422820;-0.016602;0.024414;1.025391;
422970;-0.014648;0.033203;1.016602;
423131;-0.014648;0.033203;0.969727;
423280;-0.018555;0.030273;0.968750;
423420;-0.020508;0.027344;0.969727;
423570;-0.018555;0.033203;0.964844;
423710;-0.023438;0.031250;0.955078;
423855;-0.023438;0.030273;0.977539;
424005;-0.020508;0.029297;0.962891;
424145;-0.018555;0.025391;0.952148;
424285;-0.016602;0.019531;0.985352;
424425;-0.019531;0.024414;0.975586;
424565;-0.025391;0.024414;0.974609;
424705;-0.017578;0.029297;0.996094;
424845;-0.020508;0.032227;0.969727;
424985;-0.017578;0.031250;0.974609;
425125;-0.007812;0.031250;1.026367;
425275;-0.018555;0.029297;0.979492;
425405;-0.025391;0.020508;1.003906;
425545;-0.015625;0.019531;1.013672;
425685;-0.020508;0.038086;1.007812;
425821;-0.015625;0.026367;1.015625;
425960;-0.012695;0.023438;1.031250;
426100;-0.025391;0.019531;1.016602;
426240;-0.021484;0.028320;0.998047;
426380;-0.010742;0.014648;1.028320;
426525;-0.019531;0.015625;1.033203;
426670;-0.016602;0.031250;0.998047;
426800;-0.017578;0.021484;0.981445;
426940;-0.030273;0.039062;0.988281;
427075;-0.024414;0.036133;0.987305;
427225;-0.022461;0.042969;0.998047;
427365;-0.019531;0.022461;0.982422;
427505;-0.016602;0.041992;0.985352;
427655;-0.026367;0.033203;0.987305;
427795;-0.025391;0.045898;1.017578;
427935;-0.017578;0.028320;1.056641;
428075;-0.015625;0.042969;1.157227;
428215;-0.012695;0.022461;1.210938;
428355;-0.010742;0.029297;1.208008;
428495;-0.004883;0.001953;1.240234;
428645;-0.010742;0.019531;1.226562;
428785;-0.006836;0.002930;1.159180;
428925;-0.007812;0.013672;1.094727;
429061;-0.020508;0.010742;1.017578;
429200;-0.018555;0.024414;0.926758;
429335;-0.022461;0.012695;0.827148;
429471;-0.031250;0.029297;0.787109;
429610;-0.026367;0.023438;0.742188;
429761;-0.026367;0.032227;0.749023;
429910;-0.024414;0.024414;0.790039;
430060;-0.026367;0.033203;0.822266;
430205;-0.021484;0.030273;0.909180;
430345;-0.020508;0.033203;0.951172;
430485;-0.025391;0.052734;1.002930;
430625;-0.014648;0.049805;1.056641;
430765;-0.018555;0.060547;1.104492;
430905;-0.017578;0.051758;1.097656;
431045;-0.013672;0.046875;1.113281;
431195;-0.018555;0.019531;1.101562;
431335;-0.019531;0.036133;1.096680;
431475;-0.011719;0.009766;1.063477;
431615;-0.018555;0.014648;1.044922;
431755;-0.005859;0.007812;1.097656;
431895;-0.015625;0.019531;1.103516;
432045;-0.014648;0.029297;1.079102;
432185;-0.017578;0.034180;1.080078;
432323;-0.025391;0.024414;1.056641;
432460;-0.022461;0.022461;1.029297;
432605;-0.012695;0.028320;1.051758;
432745;-0.014648;0.031250;1.111328;
432880;-0.011719;0.046875;1.147461;
433030;-0.014648;0.040039;1.163086;
433182;-0.014648;0.030273;1.183594;
433331;-0.014648;0.031250;1.167969;
433480;-0.009766;0.009766;1.188477;
433630;-0.016602;0.023438;1.136719;
433780;-0.023438;0.035156;1.086914;
433925;-0.021484;0.018555;1.081055;
434065;-0.021484;0.021484;1.058594;
434205;-0.037109;0.034180;0.978516;
434345;-0.027344;0.031250;0.953125;
434485;-0.038086;0.027344;0.951172;
434625;-0.032227;0.028320;0.928711;
434775;-0.024414;0.013672;0.931641;
434915;-0.027344;0.000977;0.932617;
435055;-0.029297;0.017578;0.945312;
435205;-0.026367;0.023438;0.939453;
435345;-0.025391;0.024414;0.953125;
435485;-0.029297;0.038086;0.961914;
435625;-0.029297;0.041992;0.977539;
435765;-0.025391;0.025391;0.981445;
435900;-0.027344;0.032227;0.996094;
436050;-0.025391;0.032227;1.001953;
436200;-0.024414;0.033203;1.016602;
436340;-0.018555;0.035156;1.061523;
436490;-0.026367;0.039062;1.087891;
436640;-0.020508;0.030273;1.119141;
436785;-0.017578;0.036133;1.118164;
436925;-0.020508;0.027344;1.116211;
437075;-0.024414;0.034180;1.112305;
437215;-0.025391;0.025391;1.089844;
437355;-0.021484;0.028320;1.094727;
437495;-0.016602;0.020508;1.122070;
437635;-0.027344;0.026367;1.119141;
437775;-0.019531;0.025391;1.090820;
437915;-0.024414;0.018555;1.080078;
438055;-0.022461;0.027344;1.060547;
438195;-0.023438;0.033203;1.043945;
438335;-0.027344;0.026367;1.023438;
438485;-0.023438;0.034180;1.011719;
438625;-0.029297;0.030273;1.019531;
438760;-0.024414;0.030273;1.030273;
438910;-0.025391;0.025391;1.043945;
439050;-0.019531;0.029297;1.060547;
439200;-0.030273;0.030273;1.069336;
439350;-0.013672;0.031250;1.070312;
439490;-0.030273;0.031250;1.056641;
439635;-0.023438;0.029297;1.080078;
439775;-0.020508;0.032227;1.076172;
439915;-0.023438;0.026367;1.076172;
440055;-0.024414;0.030273;1.079102;
440195;-0.024414;0.028320;1.075195;
440335;-0.025391;0.025391;1.085938;
440475;-0.021484;0.025391;1.072266;
440625;-0.024414;0.026367;1.058594;
440765;-0.026367;0.023438;1.055664;
440905;-0.026367;0.022461;1.047852;
441045;-0.023438;0.026367;1.036133;
441185;-0.025391;0.022461;1.039062;
441335;-0.027344;0.022461;1.027344;
441475;-0.024414;0.028320;1.028320;
441610;-0.024414;0.029297;1.024414;
441762;-0.024414;0.031250;1.030273;
441910;-0.025391;0.030273;1.017578;
442051;-0.024414;0.027344;1.016602;
442190;-0.026367;0.032227;1.013672;
442320;-0.026367;0.026367;1.030273;
442461;-0.026367;0.024414;1.012695;
442610;-0.024414;0.030273;1.003906;
442765;-0.027344;0.032227;0.986328;
442905;-0.028320;0.029297;0.955078;
443055;-0.030273;0.022461;0.924805;
443195;-0.031250;0.028320;0.905273;
443335;-0.030273;0.031250;0.879883;
443475;-0.032227;0.023438;0.877930;
443615;-0.030273;0.027344;0.890625;
443755;-0.029297;0.026367;0.894531;
443895;-0.029297;0.021484;0.922852;
444035;-0.030273;0.027344;0.931641;
444175;-0.026367;0.028320;0.965820;
444315;-0.026367;0.025391;0.984375;
444455;-0.025391;0.029297;1.013672;
444595;-0.022461;0.022461;1.016602;
444730;-0.026367;0.029297;1.028320;
444881;-0.022461;0.031250;1.045898;
445010;-0.022461;0.034180;1.053711;
445150;-0.023438;0.023438;1.049805;
445280;-0.022461;0.029297;1.061523;
445421;-0.021484;0.029297;1.067383;
445560;-0.025391;0.031250;1.044922;
445711;-0.021484;0.027344;1.047852;
445855;-0.024414;0.030273;1.059570;
445995;-0.024414;0.027344;1.066406;
446145;-0.019531;0.027344;1.073242;
446285;-0.022461;0.027344;1.075195;
446425;-0.020508;0.035156;1.094727;
446565;-0.023438;0.029297;1.099609;
446705;-0.022461;0.022461;1.085938;
446845;-0.023438;0.032227;1.106445;
446985;-0.020508;0.026367;1.103516;
447125;-0.021484;0.030273;1.096680;
447265;-0.019531;0.020508;1.100586;
447405;-0.024414;0.033203;1.089844;
447545;-0.019531;0.019531;1.097656;
447685;-0.021484;0.030273;1.089844;
447820;-0.019531;0.023438;1.092773;
447960;-0.019531;0.029297;1.086914;
448090;-0.022461;0.026367;1.066406;
448241;-0.023438;0.027344;1.056641;
448390;-0.019531;0.028320;1.066406;
448530;-0.021484;0.026367;1.044922;
448660;-0.021484;0.028320;1.040039;
448810;-0.024414;0.029297;1.027344;
448955;-0.022461;0.031250;1.009766;
449095;-0.026367;0.034180;0.999023;
449235;-0.025391;0.026367;0.996094;
449375;-0.028320;0.028320;0.987305;
449515;-0.021484;0.027344;0.990234;
449655;-0.026367;0.029297;0.972656;
449795;-0.025391;0.032227;0.972656;
449935;-0.025391;0.032227;0.974609;
450085;-0.025391;0.030273;0.969727;
450225;-0.026367;0.029297;0.955078;
450365;-0.022461;0.034180;0.967773;
450505;-0.029297;0.025391;0.955078;
450645;-0.026367;0.031250;0.942383;
450795;-0.024414;0.030273;0.940430;
450930;-0.027344;0.027344;0.916016;
451081;-0.026367;0.029297;0.925781;
451231;-0.028320;0.031250;0.908203;
451371;-0.022461;0.030273;0.896484;
451510;-0.021484;0.027344;0.878906;
451640;-0.023438;0.029297;0.882812;
451781;-0.019531;0.030273;0.870117;
451910;-0.018555;0.032227;0.862305;
452045;-0.019531;0.024414;0.854492;
452185;-0.017578;0.025391;0.843750;
452325;-0.022461;0.028320;0.851562;
452475;-0.021484;0.024414;0.846680;
452615;-0.018555;0.030273;0.845703;
452755;-0.023438;0.035156;0.862305;
452905;-0.021484;0.023438;0.867188;
453045;-0.021484;0.021484;0.881836;
453185;-0.021484;0.020508;0.919922;
453335;-0.014648;0.026367;0.978516;
453475;-0.014648;0.022461;1.039062;
453615;-0.011719;0.027344;1.093750;
453755;-0.003906;0.023438;1.157227;
453895;-0.004883;0.027344;1.209961;
454030;-0.004883;0.033203;1.235352;
454181;0.000977;0.028320;1.260742;
454330;-0.004883;0.019531;1.243164;
454471;-0.009766;0.029297;1.214844;
454610;-0.006836;0.021484;1.197266;
454745;-0.005859;0.030273;1.166992;
454880;-0.010742;0.029297;1.156250;
455020;-0.009766;0.024414;1.113281;
455170;-0.013672;0.025391;1.071289;
455305;-0.012695;0.033203;1.040039;
455445;-0.016602;0.028320;0.998047;
455585;-0.019531;0.022461;0.971680;
455725;-0.017578;0.023438;0.960938;
455865;-0.020508;0.012695;0.942383;
456015;-0.017578;0.026367;0.955078;
456155;-0.019531;0.022461;0.943359;
456295;-0.015625;0.026367;0.976562;
456445;-0.013672;0.024414;0.978516;
456585;-0.018555;0.029297;1.003906;
456725;-0.018555;0.030273;1.025391;
456875;-0.015625;0.034180;1.047852;
457015;-0.014648;0.025391;1.094727;
457155;-0.008789;0.034180;1.115234;
457290;-0.009766;0.026367;1.148438;
457440;-0.008789;0.036133;1.164062;
457580;-0.008789;0.020508;1.152344;
457725;-0.002930;0.022461;1.163086;
457860;-0.012695;0.019531;1.155273;
458001;-0.009766;0.018555;1.133789;
458142;-0.010742;0.027344;1.136719;
458280;-0.014648;0.031250;1.110352;
458430;-0.012695;0.037109;1.076172;
458570;-0.014648;0.027344;1.069336;
458725;-0.011719;0.031250;1.053711;
458865;-0.010742;0.024414;1.036133;
459005;-0.016602;0.021484;1.012695;
459145;-0.016602;0.026367;1.013672;
459285;-0.023438;0.033203;0.998047;
459425;-0.011719;0.033203;0.989258;
459565;-0.015625;0.028320;1.003906;
459705;-0.017578;0.031250;1.011719;
459845;-0.014648;0.020508;0.997070;
459985;-0.008789;0.023438;0.996094;
460125;-0.019531;0.027344;0.970703;
460265;-0.019531;0.022461;0.976562;
460405;-0.017578;0.017578;0.968750;
460545;-0.014648;0.027344;0.986328;
460685;-0.014648;0.018555;0.992188;
460820;-0.013672;0.013672;0.992188;
460970;-0.014648;0.022461;0.970703;
461110;-0.018555;0.029297;0.971680;
461250;-0.022461;0.030273;0.983398;
461390;-0.017578;0.027344;0.980469;
461530;-0.015625;0.032227;0.993164;
461670;-0.015625;0.026367;0.997070;
461821;-0.016602;0.027344;1.011719;
461965;-0.011719;0.026367;1.028320;
462105;-0.009766;0.021484;1.052734;
462245;-0.018555;0.020508;1.065430;
462385;-0.015625;0.019531;1.089844;
462525;-0.011719;0.027344;1.125000;
462665;-0.010742;0.021484;1.143555;
462815;-0.010742;0.031250;1.167969;
462955;-0.003906;0.016602;1.189453;
463095;-0.001953;0.016602;1.236328;
463235;-0.003906;0.017578;1.246094;
463375;0.000000;0.028320;1.257812;
463525;-0.003906;0.026367;1.272461;
463665;-0.004883;0.031250;1.273438;
463805;-0.009766;0.037109;1.269531;
463952;0.002930;0.024414;1.259766;
464090;0.000000;0.035156;1.230469;
464240;-0.007812;0.017578;1.226562;
464390;0.000000;0.022461;1.204102;
464523;-0.004883;0.011719;1.185547;
464675;-0.004883;0.017578;1.162109;
464810;-0.012695;0.016602;1.142578;
464950;-0.004883;0.030273;1.134766;
465100;-0.010742;0.035156;1.106445;
465255;-0.011719;0.025391;1.105469;
465395;-0.009766;0.034180;1.098633;
465535;-0.009766;0.040039;1.093750;
465675;-0.010742;0.034180;1.095703;
465815;-0.011719;0.027344;1.093750;
465955;-0.012695;0.026367;1.103516;
466105;-0.008789;0.015625;1.083984;
466245;-0.012695;0.025391;1.086914;
466385;-0.011719;0.017578;1.083984;
466525;-0.013672;0.023438;1.069336;
466665;-0.007812;0.019531;1.066406;
466815;-0.017578;0.034180;1.024414;
466955;-0.015625;0.025391;1.000000;
467095;-0.018555;0.021484;0.978516;
467235;-0.020508;0.015625;0.925781;
467371;-0.012695;0.015625;0.910156;
467500;-0.015625;0.025391;0.891602;
467650;-0.019531;0.033203;0.861328;
467793;-0.019531;0.035156;0.854492;
467930;-0.025391;0.031250;0.857422;
468060;-0.027344;0.037109;0.866211;
468211;-0.019531;0.034180;0.879883;
468340;-0.011719;0.027344;0.955078;
468490;-0.017578;0.023438;0.996094;
468635;-0.008789;0.037109;1.000000;
468775;-0.013672;0.030273;1.031250;
468915;-0.018555;0.023438;1.026367;
469055;-0.012695;0.024414;1.045898;
469195;-0.011719;0.025391;1.050781;
469335;-0.014648;0.015625;1.057617;
469475;-0.010742;0.025391;1.064453;
469615;-0.012695;0.023438;1.040039;
469755;-0.014648;0.029297;1.011719;
469895;-0.014648;0.019531;1.001953;
470045;-0.012695;0.034180;0.995117;
470185;-0.015625;0.023438;0.988281;
470325;-0.014648;0.023438;0.993164;
470465;-0.014648;0.033203;1.004883;
470600;-0.015625;0.036133;0.999023;
470750;-0.012695;0.023438;1.001953;
470880;-0.014648;0.024414;1.014648;
471031;-0.020508;0.031250;0.999023;
471160;-0.011719;0.024414;0.999023;
471310;-0.015625;0.029297;1.006836;
471450;-0.017578;0.023438;1.007812;
471600;-0.013672;0.026367;1.007812;
471735;-0.010742;0.025391;1.008789;
471875;-0.016602;0.026367;1.017578;
472025;-0.011719;0.025391;1.003906;
472165;-0.011719;0.022461;0.988281;
472305;-0.016602;0.029297;0.995117;
472445;-0.018555;0.033203;0.992188;
472585;-0.016602;0.026367;0.991211;
472725;-0.014648;0.020508;1.005859;
472875;-0.010742;0.021484;1.015625;
473015;-0.011719;0.025391;1.008789;
473155;-0.013672;0.027344;1.011719;
473305;-0.012695;0.040039;0.978516;
473445;-0.019531;0.033203;0.968750;
473585;-0.017578;0.034180;0.997070;
473720;-0.016602;0.025391;0.991211;
473860;-0.013672;0.026367;0.996094;
474010;-0.011719;0.021484;0.994141;
474145;-0.009766;0.017578;0.992188;
474270;-0.016602;0.033203;0.985352;
474400;-0.014648;0.025391;0.998047;
474540;-0.016602;0.023438;1.002930;
474670;-0.011719;0.021484;1.014648;
474810;-0.010742;0.018555;1.009766;
474950;-0.012695;0.020508;1.008789;
475105;-0.011719;0.026367;1.027344;
475255;-0.014648;0.022461;1.013672;
475395;-0.019531;0.031250;1.039062;
475535;-0.011719;0.023438;1.054688;
475685;-0.008789;0.027344;1.074219;
475825;-0.010742;0.028320;1.091797;
475975;-0.004883;0.032227;1.122070;
476115;-0.008789;0.026367;1.127930;
476255;-0.005859;0.022461;1.148438;
476395;-0.009766;0.028320;1.149414;
476535;-0.009766;0.025391;1.161133;
476675;-0.009766;0.028320;1.147461;
476815;-0.011719;0.034180;1.129883;
476955;-0.006836;0.034180;1.125977;
477090;-0.006836;0.017578;1.103516;
477230;-0.012695;0.028320;1.085938;
477363;-0.010742;0.023438;1.058594;
477510;-0.011719;0.021484;1.063477;
477660;-0.013672;0.011719;1.046875;
477790;-0.013672;0.020508;1.042969;
477930;-0.010742;0.023438;1.038086;
478080;-0.012695;0.028320;1.049805;
478235;-0.008789;0.027344;1.064453;
478375;-0.010742;0.023438;1.072266;
478515;-0.011719;0.023438;1.078125;
478655;-0.010742;0.022461;1.086914;
478795;-0.016602;0.026367;1.095703;
478945;-0.008789;0.025391;1.092773;
479085;-0.009766;0.026367;1.082031;
479225;-0.008789;0.026367;1.082031;
479365;-0.007812;0.025391;1.067383;
479505;-0.010742;0.027344;1.056641;
479655;-0.010742;0.022461;1.040039;
479795;-0.017578;0.023438;1.019531;
479935;-0.010742;0.031250;1.018555;
480075;-0.015625;0.027344;0.977539;
480200;-0.011719;0.026367;0.963867;
480340;-0.011719;0.030273;0.953125;
480482;-0.020508;0.025391;0.920898;
480610;-0.019531;0.033203;0.904297;
480745;-0.021484;0.030273;0.900391;
480881;-0.016602;0.027344;0.900391;
481030;-0.013672;0.019531;0.923828;
481160;-0.019531;0.027344;0.938477;
481300;-0.015625;0.023438;0.958008;
481450;-0.015625;0.030273;0.971680;
481595;-0.016602;0.024414;0.990234;
481735;-0.014648;0.026367;1.019531;
481875;-0.015625;0.016602;1.024414;
482015;-0.009766;0.029297;1.032227;
482155;-0.010742;0.020508;1.048828;
482295;-0.010742;0.032227;1.072266;
482445;-0.012695;0.027344;1.061523;
482585;-0.010742;0.024414;1.078125;
482725;-0.012695;0.021484;1.068359;
482865;-0.006836;0.024414;1.070312;
483005;-0.014648;0.019531;1.036133;
483145;-0.009766;0.026367;1.031250;
483285;-0.009766;0.020508;1.011719;
483425;-0.012695;0.024414;1.031250;
483560;-0.015625;0.026367;1.032227;
483701;-0.013672;0.026367;1.033203;
483830;-0.010742;0.033203;1.047852;
483975;-0.009766;0.026367;1.060547;
484110;-0.013672;0.029297;1.069336;
484260;-0.011719;0.022461;1.078125;
484394;-0.009766;0.026367;1.065430;
484535;-0.010742;0.023438;1.080078;
484660;-0.005859;0.021484;1.078125;
484810;-0.000977;0.017578;1.073242;
484960;-0.003906;0.025391;1.061523;
485115;-0.005859;0.024414;1.041016;
485265;-0.001953;0.027344;1.021484;
485405;-0.002930;0.030273;1.013672;
485545;-0.000977;0.030273;1.021484;
485685;-0.000977;0.026367;1.010742;
485825;-0.000977;0.028320;0.999023;
485965;0.001953;0.027344;0.993164;
486105;-0.003906;0.036133;0.983398;
486245;-0.002930;0.035156;0.972656;
486385;-0.004883;0.032227;0.977539;
486525;-0.004883;0.028320;0.963867;
486665;-0.004883;0.022461;0.946289;
486815;-0.007812;0.022461;0.953125;
486955;-0.004883;0.025391;0.956055;
487100;-0.006836;0.018555;0.946289;
487241;-0.004883;0.018555;0.955078;
487370;-0.003906;0.012695;0.968750;
487500;-0.004883;0.017578;0.996094;
487650;-0.001953;0.024414;1.000000;
487792;-0.005859;0.022461;1.011719;
487931;-0.003906;0.028320;1.044922;
488072;-0.002930;0.030273;1.048828;
488211;-0.000977;0.030273;1.044922;
488340;-0.002930;0.028320;1.061523;
488490;0.000000;0.032227;1.067383;
488635;0.001953;0.028320;1.067383;
488775;-0.001953;0.027344;1.069336;
488915;0.001953;0.017578;1.085938;
489055;-0.002930;0.022461;1.083984;
489195;-0.000977;0.023438;1.066406;
489335;0.001953;0.033203;1.080078;
489475;-0.002930;0.030273;1.077148;
489615;-0.001953;0.030273;1.083008;
489755;0.000977;0.023438;1.077148;
489895;-0.000977;0.025391;1.083008;
490035;0.000000;0.021484;1.067383;
490175;-0.000977;0.026367;1.071289;
490325;-0.000977;0.020508;1.062500;
490465;-0.002930;0.013672;1.054688;
490600;-0.005859;0.018555;1.059570;
490740;0.001953;0.021484;1.066406;
490880;0.000000;0.020508;1.044922;
491025;-0.003906;0.024414;1.046875;
491175;-0.002930;0.026367;1.067383;
491300;-0.004883;0.028320;1.063477;
491440;-0.002930;0.025391;1.057617;
491570;0.001953;0.031250;1.069336;
491701;-0.002930;0.030273;1.059570;
491830;-0.004883;0.041016;1.040039;
491975;-0.002930;0.025391;1.041992;
492115;-0.004883;0.024414;1.040039;
492255;-0.005859;0.015625;1.009766;
492395;-0.004883;0.035156;1.007812;
492535;-0.003906;0.024414;1.016602;
492675;0.003906;0.014648;1.009766;
492815;-0.005859;0.019531;0.989258;
492955;-0.003906;0.019531;1.000977;
493095;0.002930;0.022461;0.991211;
493235;-0.007812;0.015625;0.978516;
493375;-0.004883;0.021484;0.982422;
493515;-0.000977;0.017578;0.962891;
493655;-0.007812;0.017578;0.944336;
493795;-0.000977;0.022461;0.940430;
493930;-0.001953;0.027344;0.913086;
494060;0.004883;0.025391;0.892578;
494200;0.008789;0.027344;0.891602;
494330;0.011719;0.037109;0.904297;
494470;0.023438;0.040039;0.921875;
494620;0.031250;0.041016;0.969727;
494770;0.033203;0.028320;0.989258;
494910;0.044922;0.026367;1.031250;
495060;0.047852;0.020508;1.053711;
495201;0.045898;0.028320;1.067383;
495345;0.051758;0.023438;1.083008;
495495;0.058594;0.022461;1.109375;
495635;0.061523;0.016602;1.106445;
495775;0.068359;0.025391;1.115234;
495915;0.076172;0.021484;1.124023;
496055;0.073242;0.021484;1.127930;
496205;0.080078;0.024414;1.123047;
496345;0.079102;0.015625;1.120117;
496485;0.085938;0.017578;1.128906;
496635;0.089844;0.020508;1.116211;
496775;0.088867;0.028320;1.111328;
496915;0.090820;0.024414;1.092773;
497055;0.090820;0.025391;1.057617;
497195;0.089844;0.029297;1.051758;
497323;0.088867;0.029297;1.022461;
497470;0.094727;0.028320;0.996094;
497620;0.089844;0.033203;0.948242;
497830;0.084961;0.025391;0.918945;
497975;0.084961;0.026367;0.885742;
498100;0.086914;0.024414;0.855469;
498230;0.083984;0.025391;0.852539;
498370;0.083984;0.021484;0.860352;
498500;0.083008;0.030273;0.883789;
498640;0.082031;0.031250;0.902344;
498785;0.078125;0.035156;0.908203;
498925;0.083984;0.025391;0.931641;
499065;0.083984;0.029297;0.950195;
499205;0.083984;0.025391;0.952148;
499355;0.083984;0.032227;0.979492;
499495;0.083008;0.024414;1.000977;
499635;0.085938;0.020508;1.027344;
499785;0.084961;0.026367;1.041016;
499925;0.089844;0.033203;1.054688;
500065;0.088867;0.023438;1.057617;
500215;0.087891;0.018555;1.054688;
500355;0.086914;0.025391;1.045898;
500495;0.085938;0.026367;1.070312;
500635;0.087891;0.024414;1.090820;
500775;0.088867;0.023438;1.086914;
500920;0.088867;0.026367;1.093750;
501070;0.090820;0.021484;1.095703;
501220;0.088867;0.024414;1.112305;
501370;0.083984;0.015625;1.117188;
501520;0.086914;0.016602;1.117188;
501670;0.090820;0.025391;1.123047;
501825;0.086914;0.025391;1.114258;
501975;0.085938;0.023438;1.100586;
502115;0.089844;0.023438;1.062500;
502255;0.085938;0.028320;1.033203;
502405;0.084961;0.024414;0.995117;
502545;0.082031;0.028320;0.965820;
502685;0.079102;0.029297;0.949219;
502825;0.082031;0.017578;0.938477;
502965;0.080078;0.018555;0.917969;
503105;0.081055;0.022461;0.879883;
503245;0.079102;0.022461;0.882812;
503385;0.073242;0.022461;0.884766;
503525;0.078125;0.026367;0.889648;
503665;0.083008;0.029297;0.900391;
503800;0.079102;0.030273;0.903320;
503941;0.075195;0.029297;0.877930;
504070;0.077148;0.028320;0.909180;
504210;0.077148;0.021484;0.926758;
504350;0.084961;0.021484;0.942383;
504490;0.080078;0.020508;0.952148;
504641;0.083984;0.023438;0.964844;
504770;0.079102;0.028320;0.980469;
504900;0.078125;0.023438;1.011719;
505045;0.081055;0.024414;1.021484;
505185;0.081055;0.020508;1.013672;
505325;0.081055;0.023438;1.032227;
505465;0.083008;0.024414;1.054688;
505605;0.079102;0.023438;1.072266;
505755;0.082031;0.028320;1.074219;
505895;0.084961;0.023438;1.078125;
506035;0.083008;0.027344;1.073242;
506185;0.081055;0.025391;1.073242;
506325;0.082031;0.025391;1.083984;
506465;0.080078;0.023438;1.091797;
506615;0.081055;0.027344;1.092773;
506755;0.085938;0.027344;1.068359;
506895;0.079102;0.025391;1.049805;
507035;0.077148;0.026367;1.049805;
507160;0.080078;0.027344;1.076172;
507290;0.081055;0.029297;1.063477;
507430;0.080078;0.024414;1.061523;
507580;0.079102;0.030273;1.068359;
507715;0.080078;0.028320;1.104492;
507852;0.080078;0.027344;1.100586;
507990;0.081055;0.027344;1.082031;
508120;0.079102;0.026367;1.060547;
508260;0.080078;0.018555;1.049805;
508410;0.079102;0.026367;1.027344;
508560;0.079102;0.027344;1.038086;
508705;0.077148;0.021484;1.034180;
508855;0.076172;0.026367;0.998047;
508995;0.078125;0.019531;0.970703;
509135;0.074219;0.024414;0.996094;
509285;0.074219;0.024414;1.013672;
509425;0.075195;0.025391;1.039062;
509565;0.079102;0.024414;1.061523;
509705;0.077148;0.019531;1.041016;
509845;0.076172;0.022461;1.055664;
509985;0.075195;0.024414;1.072266;
510125;0.078125;0.020508;1.089844;
510265;0.077148;0.025391;1.074219;
510405;0.076172;0.019531;1.046875;
510555;0.078125;0.024414;1.059570;
510680;0.075195;0.028320;1.048828;
510820;0.080078;0.020508;1.033203;
510960;0.079102;0.025391;1.007812;
511110;0.072266;0.014648;0.973633;
511250;0.075195;0.010742;0.965820;
511400;0.073242;0.024414;0.958008;
511550;0.071289;0.026367;0.964844;
511685;0.073242;0.031250;0.936523;
511825;0.068359;0.018555;0.916992;
511965;0.069336;0.021484;0.911133;
512115;0.069336;0.023438;0.915039;
512255;0.071289;0.025391;0.937500;
512395;0.075195;0.019531;0.952148;
512535;0.073242;0.028320;0.946289;
512675;0.073242;0.026367;0.995117;
512825;0.069336;0.035156;1.017578;
512965;0.070312;0.034180;1.026367;
513105;0.070312;0.034180;1.025391;
513255;0.075195;0.040039;1.022461;
513395;0.073242;0.039062;1.045898;
513535;0.073242;0.034180;1.050781;
513670;0.076172;0.026367;1.037109;
513810;0.075195;0.016602;1.006836;
513950;0.078125;0.005859;1.009766;
514100;0.067383;0.007812;1.014648;
514250;0.073242;0.015625;1.028320;
514380;0.073242;0.022461;1.020508;
514521;0.065430;0.030273;0.988281;
514660;0.066406;0.031250;1.007812;
514810;0.069336;0.034180;1.038086;
514955;0.068359;0.029297;1.066406;
515095;0.070312;0.042969;1.127930;
515245;0.072266;0.035156;1.152344;
515385;0.074219;0.037109;1.234375;
515525;0.079102;0.029297;1.321289;
515665;0.086914;0.030273;1.373047;
515805;0.086914;0.021484;1.457031;
515945;0.086914;0.020508;1.517578;
516085;0.094727;0.019531;1.594727;
516225;0.099609;0.022461;1.658203;
516365;0.105469;0.020508;1.722656;
516505;0.107422;0.016602;1.752930;
516645;0.109375;0.011719;1.786133;
516785;0.108398;0.013672;1.816406;
516910;0.109375;0.012695;1.808594;
517051;0.110352;0.016602;1.813477;
517193;0.112305;0.022461;1.838867;
517320;0.109375;0.019531;1.830078;
517450;0.111328;0.029297;1.825195;
517590;0.112305;0.023438;1.820312;
517741;0.111328;0.022461;1.825195;
517870;0.109375;0.019531;1.821289;
518010;0.109375;0.018555;1.821289;
518155;0.113281;0.015625;1.841797;
518295;0.110352;0.022461;1.841797;
518435;0.110352;0.021484;1.851562;
518585;0.113281;0.022461;1.875000;
518725;0.113281;0.012695;1.870117;
518865;0.113281;0.011719;1.874023;
519015;0.114258;0.015625;1.898438;
519155;0.117188;0.012695;1.900391;
519295;0.116211;0.020508;1.885742;
519435;0.116211;0.019531;1.895508;
519575;0.113281;0.015625;1.889648;
519715;0.118164;0.019531;1.900391;
519855;0.118164;0.016602;1.898438;
519995;0.119141;0.017578;1.887695;
520135;0.115234;0.015625;1.884766;
520280;0.117188;0.018555;1.895508;
520430;0.117188;0.016602;1.886719;
520580;0.116211;0.012695;1.885742;
520730;0.121094;0.019531;1.880859;
520861;0.118164;0.019531;1.881836;
521010;0.116211;0.018555;1.882812;
521160;0.116211;0.027344;1.872070;
521305;0.116211;0.021484;1.874023;
521515;0.117188;0.021484;1.867188;
521735;0.119141;0.013672;1.866211;
521955;0.119141;0.015625;1.867188;
522175;0.119141;0.014648;1.868164;
522395;0.116211;0.016602;1.846680;
522615;0.121094;0.019531;1.859375;
522835;0.118164;0.018555;1.852539;
523055;0.118164;0.022461;1.858398;
523275;0.120117;0.019531;1.847656;
523495;0.116211;0.016602;1.841797;
523715;0.122070;0.018555;1.834961;
523935;0.122070;0.011719;1.832031;
524155;0.125000;0.016602;1.842773;
524372;0.125977;0.017578;1.836914;
524580;0.125977;0.020508;1.837891;
524792;0.127930;0.021484;1.844727;
525011;0.126953;0.021484;1.840820;
525220;0.128906;0.018555;1.840820;
525445;0.126953;0.006836;1.848633;
525665;0.131836;0.010742;1.854492;
525885;0.132812;0.004883;1.861328;
526105;0.135742;0.011719;1.862305;
526325;0.133789;0.011719;1.864258;
526545;0.137695;0.020508;1.853516;
526765;0.139648;0.020508;1.852539;
526985;0.137695;0.020508;1.842773;
527205;0.138672;0.014648;1.837891;
527415;0.141602;0.030273;1.833008;
527635;0.138672;0.034180;1.837891;
527855;0.143555;0.028320;1.824219;
528075;0.144531;0.018555;1.833008;
528295;0.146484;0.016602;1.840820;
528514;0.149414;0.007812;1.867188;
528721;0.157227;-0.001953;1.868164;
528931;0.159180;0.005859;1.881836;
529151;0.163086;0.003906;1.893555;
529360;0.162109;0.010742;1.893555;
529575;0.161133;0.018555;1.881836;
529795;0.162109;0.014648;1.870117;
530015;0.164062;0.016602;1.854492;
530235;0.166992;0.021484;1.863281;
530455;0.162109;0.021484;1.837891;
530675;0.166016;0.013672;1.822266;
530895;0.165039;0.013672;1.806641;
531115;0.171875;0.015625;1.838867;
531335;0.174805;0.014648;1.847656;
531555;0.178711;0.017578;1.868164;
531775;0.179688;0.014648;1.878906;
531995;0.184570;0.016602;1.895508;
532215;0.188477;0.002930;1.878906;
532435;0.190430;0.014648;1.893555;
532650;0.192383;0.010742;1.876953;
532860;0.191406;0.019531;1.864258;
533080;0.193359;0.018555;1.849609;
533300;0.194336;0.025391;1.825195;
533525;0.196289;0.018555;1.842773;
533745;0.199219;0.021484;1.816406;
533965;0.199219;0.023438;1.823242;
534185;0.197266;0.020508;1.832031;
534395;0.201172;0.015625;1.809570;
534615;0.207031;0.023438;1.805664;
534835;0.201172;0.026367;1.800781;
535055;0.199219;0.019531;1.768555;
535275;0.202148;0.036133;1.746094;
535485;0.194336;0.024414;1.666992;
535705;0.201172;0.016602;1.636719;
535915;0.196289;0.020508;1.589844;
536135;0.190430;0.019531;1.514648;
536355;0.182617;0.020508;1.408203;
536570;0.164062;0.018555;1.227539;
536791;0.147461;0.021484;1.092773;
537010;0.125000;0.020508;0.932617;
537225;0.113281;0.027344;0.760742;
537445;0.092773;0.022461;0.578125;
537665;0.082031;0.031250;0.450195;
537885;0.069336;0.026367;0.319336;
538105;0.052734;0.035156;0.241211;
538315;0.043945;0.029297;0.174805;
538535;0.038086;0.025391;0.143555;
538755;0.028320;0.025391;0.094727;
538975;0.024414;0.028320;0.062500;
539195;0.019531;0.029297;0.032227;
539415;0.022461;0.029297;0.017578;
539625;0.015625;0.029297;0.002930;
539845;0.013672;0.031250;-0.011719;
540050;0.007812;0.033203;-0.008789;
540265;0.010742;0.033203;0.001953;
540485;0.005859;0.032227;0.008789;
540701;0.005859;0.029297;0.003906;
540920;0.008789;0.032227;0.018555;
541150;0.005859;0.027344;0.018555;
541380;0.004883;0.029297;0.005859;
541613;0.000977;0.027344;0.004883;
541842;0.000977;0.031250;0.006836;
542050;0.000000;0.029297;0.012695;
542285;-0.003906;0.028320;0.008789;
542495;-0.003906;0.032227;0.011719;
542712;-0.000977;0.029297;0.004883;
542925;-0.000977;0.031250;0.020508;
543145;-0.004883;0.031250;0.000000;
543365;-0.004883;0.030273;0.006836;
543585;-0.001953;0.032227;0.018555;
543795;-0.003906;0.031250;0.014648;
544015;-0.004883;0.029297;0.027344;
544235;-0.007812;0.032227;0.015625;
544450;-0.005859;0.031250;0.033203;
544675;-0.014648;0.031250;0.000977;
544895;-0.012695;0.033203;0.001953;
545110;-0.006836;0.030273;0.046875;
545340;-0.005859;0.029297;0.042969;
545550;-0.013672;0.032227;0.012695;
545770;-0.013672;0.031250;0.013672;
545970;-0.011719;0.028320;0.026367;
546195;-0.011719;0.031250;0.032227;
546415;-0.011719;0.029297;0.030273;
546625;-0.011719;0.032227;0.033203;
546845;-0.014648;0.031250;0.031250;
547065;-0.015625;0.030273;0.030273;
547285;-0.012695;0.031250;0.026367;
547505;-0.015625;0.029297;0.031250;
547725;-0.012695;0.031250;0.038086;
547945;-0.013672;0.030273;0.029297;
548165;-0.015625;0.032227;0.026367;
548385;-0.012695;0.031250;0.025391;
548605;-0.018555;0.026367;0.023438;
548825;-0.017578;0.030273;0.021484;
549045;-0.012695;0.031250;0.024414;
549250;-0.015625;0.028320;0.021484;
549482;-0.015625;0.028320;0.018555;
549690;-0.015625;0.030273;0.015625;
549910;-0.015625;0.031250;0.014648;
550125;-0.017578;0.029297;0.009766;
550343;-0.018555;0.028320;0.010742;
550565;-0.017578;0.027344;0.013672;
550785;-0.018555;0.029297;0.004883;
551005;-0.018555;0.029297;0.006836;
551235;-0.016602;0.027344;0.013672;
551455;-0.014648;0.027344;0.007812;
551675;-0.023438;0.027344;0.002930;
551895;-0.024414;0.028320;0.000977;
552115;-0.020508;0.028320;0.011719;
552335;-0.022461;0.028320;0.007812;
552555;-0.020508;0.027344;0.010742;
552776;-0.021484;0.022461;0.008789;
552995;-0.020508;0.024414;0.014648;
553215;-0.019531;0.024414;0.019531;
553430;-0.023438;0.023438;-0.001953;
553651;-0.024414;0.022461;-0.007812;
553870;-0.021484;0.021484;0.018555;
554091;-0.023438;0.023438;0.002930;
554325;-0.023438;0.026367;0.011719;
554555;-0.022461;0.025391;0.005859;
554775;-0.027344;0.025391;-0.004883;
554995;-0.023438;0.021484;0.000000;
555215;-0.023438;0.024414;0.005859;
555435;-0.025391;0.024414;-0.008789;
555655;-0.027344;0.022461;-0.001953;
555875;-0.027344;0.024414;-0.002930;
556095;-0.028320;0.022461;-0.001953;
556315;-0.030273;0.024414;-0.005859;
556535;-0.028320;0.025391;0.000977;
556755;-0.027344;0.023438;0.000000;
556970;-0.029297;0.024414;0.003906;
557185;-0.030273;0.026367;0.008789;
557400;-0.028320;0.025391;0.008789;
557631;-0.032227;0.024414;0.013672;
557860;-0.030273;0.022461;0.021484;
558070;-0.032227;0.024414;0.025391;
558293;-0.032227;0.023438;0.027344;
558510;-0.033203;0.022461;0.029297;
558730;-0.033203;0.020508;0.025391;
558945;-0.035156;0.023438;0.022461;
559155;-0.034180;0.026367;0.021484;
559372;-0.035156;0.026367;0.016602;
559585;-0.035156;0.022461;0.006836;
559805;-0.036133;0.024414;0.010742;
560025;-0.038086;0.022461;-0.001953;
560245;-0.037109;0.025391;0.000000;
560465;-0.039062;0.027344;0.012695;
560685;-0.040039;0.024414;0.014648;
560905;-0.040039;0.021484;0.016602;
561125;-0.041016;0.020508;0.017578;
561345;-0.041016;0.022461;0.010742;
561565;-0.042969;0.028320;0.027344;
561785;-0.042969;0.026367;0.022461;
562000;-0.041992;0.022461;0.011719;
562210;-0.041992;0.020508;0.007812;
562440;-0.048828;0.020508;-0.003906;
562651;-0.049805;0.020508;-0.007812;
562875;-0.048828;0.018555;0.035156;
563095;-0.071289;0.021484;0.077148;
563315;-0.051758;0.018555;0.243164;
563535;-0.043945;0.021484;0.374023;
563755;-0.034180;0.018555;0.563477;
563975;-0.021484;0.018555;0.728516;
564195;-0.011719;0.016602;0.920898;
564415;-0.005859;0.020508;1.082031;
564625;-0.003906;0.021484;1.211914;
564840;0.009766;0.022461;1.344727;
565065;0.020508;0.027344;1.437500;
565285;0.025391;0.031250;1.473633;
565505;0.036133;0.024414;1.511719;
565725;0.043945;0.025391;1.553711;
565942;0.046875;0.023438;1.589844;
566170;0.045898;0.029297;1.619141;
566380;0.041016;0.031250;1.658203;
566605;0.041016;0.029297;1.688477;
566820;0.037109;0.027344;1.727539;
567045;0.035156;0.029297;1.732422;
567265;0.036133;0.020508;1.755859;
567485;0.034180;0.027344;1.775391;
567705;0.037109;0.019531;1.765625;
567925;0.038086;0.023438;1.782227;
568135;0.039062;0.027344;1.809570;
568355;0.037109;0.022461;1.812500;
568575;0.036133;0.022461;1.833008;
568795;0.032227;0.021484;1.832031;
569015;0.030273;0.023438;1.853516;
569235;0.026367;0.022461;1.833008;
569455;0.026367;0.019531;1.832031;
569675;0.026367;0.025391;1.834961;
569895;0.024414;0.030273;1.836914;
570110;0.018555;0.019531;1.814453;
570325;0.014648;0.026367;1.812500;
570530;0.010742;0.022461;1.806641;
570740;0.008789;0.023438;1.805664;
570950;0.007812;0.028320;1.814453;
571160;0.005859;0.031250;1.826172;
571385;0.007812;0.029297;1.834961;
571605;0.006836;0.025391;1.840820;
571825;0.003906;0.021484;1.851562;
572045;0.000977;0.026367;1.850586;
572265;-0.001953;0.025391;1.857422;
572485;-0.000977;0.017578;1.873047;
572695;0.000977;0.018555;1.896484;
572915;0.000000;0.024414;1.908203;
573135;0.001953;0.026367;1.932617;
573355;-0.000977;0.022461;1.938477;
573575;-0.000977;0.019531;1.943359;
573785;-0.002930;0.023438;1.946289;
574005;-0.004883;0.024414;1.947266;
574220;-0.003906;0.016602;1.943359;
574440;-0.008789;0.014648;1.937500;
574660;-0.007812;0.008789;1.913086;
574880;-0.014648;0.011719;1.913086;
575095;-0.014648;0.016602;1.904297;
575300;-0.016602;0.022461;1.900391;
575525;-0.021484;0.026367;1.876953;
575745;-0.024414;0.026367;1.862305;
575965;-0.025391;0.029297;1.845703;
576185;-0.026367;0.026367;1.840820;
576405;-0.027344;0.019531;1.840820;
576625;-0.027344;0.017578;1.838867;
576845;-0.025391;0.014648;1.843750;
577055;-0.027344;0.016602;1.848633;
577275;-0.026367;0.016602;1.852539;
577495;-0.028320;0.018555;1.859375;
577715;-0.033203;0.016602;1.847656;
577935;-0.036133;0.021484;1.830078;
578155;-0.040039;0.024414;1.787109;
578375;-0.041016;0.021484;1.754883;
578590;-0.047852;0.024414;1.721680;
578820;-0.050781;0.020508;1.666992;
579031;-0.054688;0.019531;1.628906;
579240;-0.056641;0.017578;1.587891;
579450;-0.062500;0.019531;1.540039;
579685;-0.064453;0.018555;1.483398;
579905;-0.071289;0.018555;1.437500;
580125;-0.073242;0.020508;1.395508;
580335;-0.076172;0.023438;1.371094;
580555;-0.077148;0.023438;1.360352;
580775;-0.078125;0.026367;1.369141;
580995;-0.075195;0.028320;1.382812;
581215;-0.076172;0.023438;1.405273;
581425;-0.074219;0.026367;1.418945;
581635;-0.074219;0.024414;1.440430;
581855;-0.071289;0.023438;1.452148;
582075;-0.074219;0.026367;1.451172;
582295;-0.075195;0.023438;1.433594;
582510;-0.076172;0.017578;1.391602;
582724;-0.079102;0.019531;1.339844;
582930;-0.083984;0.017578;1.299805;
583150;-0.085938;0.018555;1.250000;
583370;-0.089844;0.025391;1.224609;
583595;-0.087891;0.027344;1.195312;
583815;-0.088867;0.028320;1.195312;
584035;-0.088867;0.027344;1.185547;
584255;-0.088867;0.027344;1.196289;
584465;-0.090820;0.025391;1.201172;
584685;-0.088867;0.017578;1.228516;
584905;-0.086914;0.015625;1.272461;
585125;-0.086914;0.016602;1.322266;
585345;-0.078125;0.015625;1.387695;
585565;-0.076172;0.022461;1.442383;
585775;-0.077148;0.025391;1.480469;
585995;-0.074219;0.025391;1.517578;
586215;-0.074219;0.022461;1.537109;
586425;-0.067383;0.026367;1.544922;
586645;-0.067383;0.024414;1.545898;
586850;-0.069336;0.021484;1.554688;
587060;-0.067383;0.020508;1.552734;
587290;-0.067383;0.021484;1.542969;
587520;-0.069336;0.028320;1.549805;
587740;-0.068359;0.022461;1.549805;
587965;-0.068359;0.023438;1.553711;
588185;-0.068359;0.016602;1.548828;
588405;-0.066406;0.018555;1.557617;
588625;-0.066406;0.019531;1.577148;
588845;-0.062500;0.023438;1.591797;
589065;-0.064453;0.023438;1.611328;
589285;-0.060547;0.030273;1.629883;
589505;-0.060547;0.023438;1.636719;
589725;-0.064453;0.028320;1.581055;
589945;-0.068359;0.019531;1.511719;
590165;-0.078125;0.022461;1.407227;
590385;-0.081055;0.025391;1.314453;
590605;-0.085938;0.025391;1.214844;
590815;-0.090820;0.023438;1.143555;
591021;-0.093750;0.024414;1.073242;
591242;-0.095703;0.023438;1.005859;
591460;-0.095703;0.030273;0.984375;
591680;-0.100586;0.028320;0.927734;
591905;-0.100586;0.028320;0.918945;
592125;-0.097656;0.028320;0.936523;
592345;-0.093750;0.026367;0.965820;
592555;-0.091797;0.023438;0.984375;
592765;-0.090820;0.023438;1.025391;
592985;-0.087891;0.024414;1.045898;
593205;-0.084961;0.025391;1.053711;
593425;-0.081055;0.019531;1.045898;
593645;-0.080078;0.024414;1.023438;
593865;-0.078125;0.030273;0.996094;
594085;-0.077148;0.027344;0.952148;
594305;-0.072266;0.023438;0.942383;
594525;-0.066406;0.032227;0.958984;
594745;-0.058594;0.024414;0.987305;
594960;-0.049805;0.026367;1.029297;
595170;-0.040039;0.018555;1.062500;
595381;-0.027344;0.025391;1.106445;
595602;-0.018555;0.024414;1.117188;
595835;-0.018555;0.030273;1.106445;
596055;-0.016602;0.024414;1.140625;
596275;-0.010742;0.027344;1.179688;
596495;-0.008789;0.029297;1.215820;
596715;-0.011719;0.026367;1.216797;
596925;-0.013672;0.022461;1.210938;
597145;-0.010742;0.024414;1.226562;
597365;-0.012695;0.023438;1.205078;
597575;-0.010742;0.026367;1.203125;
597795;-0.015625;0.024414;1.162109;
598015;-0.012695;0.025391;1.127930;
598235;-0.018555;0.026367;1.068359;
598455;-0.016602;0.036133;1.028320;
598665;-0.024414;0.028320;0.981445;
598880;-0.019531;0.031250;0.962891;
599091;-0.020508;0.031250;0.960938;
599310;-0.017578;0.029297;0.965820;
599522;-0.018555;0.029297;0.975586;
599730;-0.023438;0.024414;0.973633;
599950;-0.021484;0.025391;1.016602;
600170;-0.021484;0.022461;1.020508;
600375;-0.020508;0.022461;1.007812;
600595;-0.023438;0.025391;0.987305;
600805;-0.018555;0.028320;1.000000;
601025;-0.021484;0.022461;0.946289;
601245;-0.021484;0.028320;0.947266;
601465;-0.024414;0.032227;0.911133;
601685;-0.021484;0.028320;0.923828;
601905;-0.024414;0.023438;0.912109;
602125;-0.022461;0.027344;0.936523;
602345;-0.025391;0.023438;0.925781;
602565;-0.022461;0.025391;0.954102;
602785;-0.024414;0.025391;0.940430;
603005;-0.021484;0.022461;0.943359;
603225;-0.022461;0.029297;0.955078;
603440;-0.018555;0.023438;0.997070;
603671;-0.021484;0.025391;1.020508;
603891;-0.018555;0.025391;1.042969;
604121;-0.019531;0.026367;1.039062;
604345;-0.017578;0.027344;1.045898;
604565;-0.021484;0.023438;1.020508;
604785;-0.021484;0.026367;1.010742;
605005;-0.022461;0.019531;1.002930;
605225;-0.018555;0.029297;1.033203;
605445;-0.021484;0.023438;1.045898;
605665;-0.018555;0.033203;1.110352;
605885;-0.016602;0.022461;1.139648;
606105;-0.010742;0.028320;1.183594;
606315;-0.014648;0.025391;1.183594;
606535;-0.009766;0.027344;1.177734;
606755;-0.009766;0.023438;1.151367;
606975;-0.007812;0.025391;1.128906;
607185;-0.003906;0.027344;1.107422;
607400;-0.005859;0.029297;1.088867;
607620;-0.011719;0.023438;1.048828;
607830;-0.013672;0.025391;1.040039;
608040;-0.014648;0.028320;1.053711;
608260;-0.012695;0.025391;1.056641;
608485;-0.017578;0.027344;1.068359;
608705;-0.015625;0.030273;1.078125;
608925;-0.016602;0.021484;1.066406;
609145;-0.016602;0.022461;1.069336;
609365;-0.015625;0.025391;1.053711;
609585;-0.013672;0.021484;1.052734;
609805;-0.016602;0.029297;1.049805;
610025;-0.016602;0.019531;1.048828;
610245;-0.012695;0.021484;1.041992;
610455;-0.016602;0.024414;1.036133;
610675;-0.013672;0.019531;1.045898;
610895;-0.017578;0.021484;1.014648;
611115;-0.015625;0.027344;1.007812;
611335;-0.019531;0.026367;0.971680;
611550;-0.019531;0.027344;0.959961;
611770;-0.014648;0.023438;0.969727;
611980;-0.020508;0.027344;0.954102;
612190;-0.017578;0.024414;0.949219;
612420;-0.021484;0.025391;0.945312;
612630;-0.016602;0.024414;0.962891;
612855;-0.017578;0.024414;0.952148;
613075;-0.021484;0.024414;0.948242;
613295;-0.022461;0.028320;0.948242;
613515;-0.019531;0.025391;0.954102;
613735;-0.017578;0.026367;0.968750;
613955;-0.022461;0.030273;0.959961;
614175;-0.016602;0.024414;0.985352;
614395;-0.019531;0.026367;0.980469;
614605;-0.017578;0.027344;1.021484;
614825;-0.014648;0.024414;1.057617;
615045;-0.011719;0.021484;1.100586;
615255;-0.006836;0.019531;1.141602;
615475;-0.009766;0.022461;1.156250;
615695;-0.004883;0.020508;1.197266;
615911;-0.007812;0.026367;1.180664;
616130;-0.007812;0.020508;1.174805;
616340;-0.006836;0.028320;1.170898;
616540;-0.012695;0.026367;1.136719;
616760;-0.008789;0.028320;1.123047;
616985;-0.016602;0.026367;1.090820;
617205;-0.011719;0.025391;1.075195;
617425;-0.011719;0.024414;1.062500;
617645;-0.014648;0.024414;1.034180;
617855;-0.016602;0.021484;1.016602;
618075;-0.015625;0.022461;0.987305;
618295;-0.010742;0.024414;0.997070;
618515;-0.018555;0.023438;0.964844;
618725;-0.015625;0.023438;0.958984;
618945;-0.020508;0.029297;0.963867;
619165;-0.020508;0.022461;0.961914;
619385;-0.020508;0.023438;0.964844;
619605;-0.018555;0.024414;0.972656;
619825;-0.016602;0.030273;0.989258;
620033;-0.019531;0.033203;0.979492;
620250;-0.016602;0.027344;0.977539;
620450;-0.018555;0.028320;0.979492;
620680;-0.018555;0.025391;0.967773;
620900;-0.015625;0.024414;0.969727;
621125;-0.019531;0.021484;0.952148;
621345;-0.016602;0.024414;0.964844;
621565;-0.018555;0.028320;0.941406;
621785;-0.016602;0.023438;0.945312;
622005;-0.023438;0.026367;0.937500;
622225;-0.018555;0.021484;0.931641;
622445;-0.021484;0.023438;0.924805;
622665;-0.020508;0.018555;0.904297;
622885;-0.020508;0.028320;0.933594;
623105;-0.020508;0.023438;0.949219;
623315;-0.015625;0.027344;1.003906;
623535;-0.018555;0.022461;1.029297;
623755;-0.014648;0.030273;1.095703;
623970;-0.012695;0.022461;1.112305;
624180;-0.011719;0.025391;1.124023;
624395;-0.011719;0.024414;1.136719;
624605;-0.012695;0.020508;1.125977;
624815;-0.009766;0.023438;1.136719;
625020;-0.010742;0.023438;1.167969;
625230;-0.009766;0.024414;1.182617;
625450;-0.006836;0.022461;1.200195;
625675;-0.008789;0.022461;1.179688;
625895;-0.007812;0.024414;1.167969;
626115;-0.010742;0.024414;1.125000;
626335;-0.009766;0.026367;1.131836;
626555;-0.011719;0.025391;1.114258;
626775;-0.008789;0.024414;1.113281;
626995;-0.009766;0.025391;1.109375;
627205;-0.012695;0.026367;1.094727;
627415;-0.013672;0.027344;1.093750;
627635;-0.014648;0.025391;1.090820;
627855;-0.013672;0.022461;1.113281;
628075;-0.011719;0.025391;1.102539;
628295;-0.006836;0.019531;1.126953;
628511;-0.005859;0.020508;1.165039;
628720;-0.006836;0.022461;1.178711;
628950;-0.004883;0.017578;1.188477;
629160;-0.010742;0.022461;1.187500;
629380;-0.005859;0.022461;1.173828;
629605;-0.011719;0.021484;1.109375;
629825;-0.010742;0.024414;1.069336;
630045;-0.016602;0.021484;0.997070;
630255;-0.017578;0.021484;0.931641;
630465;-0.016602;0.024414;0.899414;
630685;-0.022461;0.024414;0.849609;
630905;-0.020508;0.027344;0.852539;
631125;-0.021484;0.024414;0.868164;
631345;-0.020508;0.025391;0.879883;
631555;-0.016602;0.025391;0.916992;
631775;-0.020508;0.025391;0.914062;
631995;-0.018555;0.023438;0.935547;
632205;-0.018555;0.024414;0.923828;
632415;-0.020508;0.025391;0.898438;
632620;-0.017578;0.024414;0.893555;
632850;-0.024414;0.025391;0.865234;
633070;-0.017578;0.025391;0.888672;
633295;-0.019531;0.028320;0.936523;
633515;-0.015625;0.021484;0.976562;
633735;-0.015625;0.028320;1.012695;
633955;-0.017578;0.022461;1.038086;
634175;-0.013672;0.029297;1.053711;
634395;-0.013672;0.028320;1.047852;
634615;-0.011719;0.029297;1.051758;
634835;-0.013672;0.029297;1.042969;
635055;-0.013672;0.022461;1.028320;
635275;-0.013672;0.028320;1.053711;
635495;-0.010742;0.024414;1.073242;
635715;-0.009766;0.022461;1.092773;
635935;-0.010742;0.018555;1.131836;
636155;-0.006836;0.022461;1.155273;
636370;-0.008789;0.018555;1.142578;
636600;-0.007812;0.023438;1.138672;
636820;-0.010742;0.025391;1.120117;
637040;-0.011719;0.024414;1.103516;
637265;-0.012695;0.027344;1.070312;
637475;-0.009766;0.023438;1.057617;
637695;-0.014648;0.026367;1.039062;
637915;-0.010742;0.023438;1.029297;
638135;-0.012695;0.023438;1.008789;
638355;-0.012695;0.025391;1.004883;
638575;-0.014648;0.025391;1.010742;
638795;-0.016602;0.025391;0.988281;
639015;-0.013672;0.027344;1.008789;
639235;-0.017578;0.025391;1.017578;
639455;-0.009766;0.026367;1.036133;
639675;-0.015625;0.028320;1.047852;
639895;-0.013672;0.029297;1.069336;
640115;-0.012695;0.028320;1.088867;
640325;-0.009766;0.021484;1.099609;
640545;-0.011719;0.023438;1.108398;
640765;-0.011719;0.022461;1.069336;
640983;-0.012695;0.020508;1.039062;
641200;-0.015625;0.022461;1.005859;
641430;-0.013672;0.026367;0.950195;
641660;-0.021484;0.025391;0.934570;
641895;-0.015625;0.029297;0.962891;
642115;-0.014648;0.023438;0.970703;
642335;-0.016602;0.026367;1.003906;
642555;-0.011719;0.023438;1.022461;
642775;-0.013672;0.027344;1.037109;
642995;-0.012695;0.028320;1.068359;
643205;-0.009766;0.023438;1.069336;
643425;-0.008789;0.017578;1.070312;
643635;-0.009766;0.020508;1.078125;
643855;-0.010742;0.021484;1.090820;
644065;-0.007812;0.019531;1.077148;
644275;-0.014648;0.026367;1.017578;
644485;-0.014648;0.024414;0.993164;
644705;-0.015625;0.022461;0.967773;
644921;-0.011719;0.026367;0.998047;
645131;-0.011719;0.023438;1.011719;
645350;-0.013672;0.029297;0.997070;
645570;-0.011719;0.026367;1.000000;
645785;-0.019531;0.024414;0.986328;
646005;-0.013672;0.023438;0.982422;
646225;-0.014648;0.024414;0.983398;
646445;-0.017578;0.026367;0.977539;
646665;-0.013672;0.028320;0.980469;
646885;-0.017578;0.022461;0.964844;
647105;-0.013672;0.030273;0.972656;
647315;-0.015625;0.029297;0.957031;
647535;-0.013672;0.028320;0.946289;
647745;-0.014648;0.027344;0.958008;
647965;-0.012695;0.030273;0.970703;
648185;-0.011719;0.027344;1.011719;
648405;-0.014648;0.024414;1.032227;
648625;-0.005859;0.024414;1.067383;
648840;-0.010742;0.025391;1.120117;
649050;-0.003906;0.022461;1.148438;
649270;-0.005859;0.025391;1.170898;
649490;0.000000;0.023438;1.168945;
649715;-0.003906;0.025391;1.158203;
649935;-0.006836;0.026367;1.123047;
650145;-0.005859;0.022461;1.105469;
650365;-0.006836;0.023438;1.077148;
650585;-0.010742;0.028320;1.061523;
650795;-0.009766;0.026367;1.057617;
651015;-0.014648;0.024414;1.041992;
651235;-0.004883;0.028320;1.056641;
651455;-0.009766;0.031250;1.062500;
651675;-0.005859;0.022461;1.078125;
651895;-0.009766;0.027344;1.081055;
652115;-0.012695;0.021484;1.096680;
652335;-0.007812;0.024414;1.097656;
652555;-0.010742;0.022461;1.097656;
652780;-0.001953;0.026367;1.090820;
653000;-0.007812;0.026367;1.054688;
653210;-0.006836;0.024414;1.034180;
653421;-0.012695;0.022461;0.997070;
653645;-0.014648;0.025391;0.967773;
653865;-0.013672;0.028320;0.949219;
654085;-0.013672;0.025391;0.929688;
654305;-0.009766;0.028320;0.968750;
654515;-0.010742;0.023438;0.985352;
654735;-0.008789;0.027344;1.033203;
654955;-0.007812;0.024414;1.049805;
655175;-0.010742;0.023438;1.050781;
655395;-0.007812;0.023438;1.069336;
655615;-0.009766;0.021484;1.056641;
655835;-0.006836;0.024414;1.055664;
656055;-0.009766;0.028320;1.042969;
656275;-0.006836;0.020508;1.029297;
656495;-0.011719;0.025391;1.010742;
656710;-0.014648;0.021484;0.974609;
656930;-0.013672;0.025391;0.970703;
657153;-0.012695;0.029297;0.929688;
657360;-0.015625;0.026367;0.918945;
657575;-0.016602;0.029297;0.928711;
657790;-0.010742;0.029297;0.956055;
658025;-0.013672;0.024414;0.984375;
658245;-0.015625;0.027344;0.995117;
658465;-0.009766;0.020508;1.033203;
658685;-0.008789;0.026367;1.063477;
658905;-0.004883;0.022461;1.090820;
659125;-0.005859;0.024414;1.085938;
659345;-0.004883;0.026367;1.097656;
659565;-0.008789;0.030273;1.084961;
659785;-0.008789;0.024414;1.049805;
660005;-0.007812;0.026367;1.037109;
660215;-0.012695;0.024414;1.008789;
660435;-0.007812;0.027344;0.995117;
660655;-0.013672;0.024414;0.959961;
660875;-0.013672;0.025391;0.960938;
661090;-0.012695;0.028320;0.958008;
661320;-0.012695;0.026367;0.952148;
661525;-0.003906;0.025391;0.963867;
661730;0.003906;0.025391;0.971680;
661940;0.013672;0.031250;1.000000;
662160;0.017578;0.030273;1.023438;
662395;0.025391;0.028320;1.027344;
662615;0.026367;0.028320;1.014648;
662835;0.032227;0.033203;0.984375;
663055;0.029297;0.029297;0.954102;
663275;0.027344;0.031250;0.897461;
663495;0.022461;0.028320;0.880859;
663715;0.021484;0.025391;0.882812;
663935;0.023438;0.027344;0.909180;
664145;0.023438;0.029297;0.922852;
664365;0.024414;0.028320;0.970703;
664585;0.022461;0.024414;0.976562;
664805;0.020508;0.027344;0.988281;
665025;0.022461;0.028320;1.011719;
665245;0.023438;0.024414;0.997070;
665450;0.025391;0.029297;1.016602;
665660;0.023438;0.026367;1.017578;
665875;0.023438;0.026367;1.026367;
666090;0.026367;0.025391;1.049805;
666310;0.028320;0.022461;1.055664;
666535;0.031250;0.022461;1.064453;
666755;0.030273;0.026367;1.072266;
666975;0.036133;0.023438;1.073242;
667195;0.032227;0.021484;1.075195;
667415;0.033203;0.021484;1.077148;
667635;0.032227;0.025391;1.071289;
667855;0.035156;0.028320;1.076172;
668075;0.038086;0.027344;1.069336;
668295;0.041016;0.030273;1.059570;
668515;0.043945;0.028320;1.057617;
668735;0.043945;0.029297;1.031250;
668955;0.041992;0.030273;1.015625;
669175;0.042969;0.032227;1.001953;
669395;0.041016;0.025391;0.990234;
669610;0.041992;0.030273;0.986328;
669820;0.041992;0.023438;0.993164;
670040;0.041992;0.021484;0.987305;
670260;0.043945;0.024414;0.985352;
670470;0.049805;0.024414;1.000000;
670705;0.048828;0.025391;1.000977;
670925;0.048828;0.024414;1.017578;
671145;0.049805;0.028320;1.016602;
671365;0.054688;0.030273;1.019531;
671585;0.054688;0.026367;1.013672;
671805;0.058594;0.028320;1.022461;
672025;0.060547;0.025391;1.023438;
672245;0.070312;0.022461;1.031250;
672465;0.082031;0.023438;1.051758;
672685;0.087891;0.022461;1.073242;
672905;0.090820;0.025391;1.077148;
673125;0.091797;0.026367;1.089844;
673335;0.093750;0.026367;1.111328;
673540;0.095703;0.024414;1.136719;
673750;0.092773;0.025391;1.121094;
673970;0.093750;0.020508;1.116211;
674180;0.091797;0.025391;1.090820;
674390;0.088867;0.028320;1.027344;
674615;0.086914;0.024414;0.973633;
674825;0.085938;0.031250;0.977539;
675045;0.081055;0.029297;1.000000;
675265;0.083984;0.027344;1.009766;
675485;0.086914;0.029297;1.043945;
675695;0.084961;0.020508;1.051758;
675915;0.084961;0.020508;1.016602;
676135;0.086914;0.020508;0.993164;
676355;0.084961;0.021484;0.985352;
676575;0.083984;0.020508;0.955078;
676795;0.084961;0.021484;0.975586;
677015;0.083008;0.024414;1.000977;
677235;0.083008;0.022461;0.981445;
677455;0.084961;0.021484;1.005859;
677671;0.078125;0.029297;1.034180;
677900;0.081055;0.028320;1.025391;
678111;0.085938;0.026367;1.019531;
678340;0.083984;0.028320;1.033203;
678566;0.080078;0.030273;1.001953;
678785;0.084961;0.020508;0.981445;
679005;0.084961;0.026367;0.997070;
679225;0.079102;0.022461;0.998047;
679445;0.078125;0.022461;0.987305;
679665;0.081055;0.023438;1.028320;
679885;0.081055;0.025391;1.047852;
680105;0.080078;0.020508;1.033203;
680325;0.078125;0.024414;1.060547;
680545;0.083008;0.024414;1.127930;
680765;0.083008;0.023438;1.145508;
680975;0.084961;0.025391;1.126953;
681195;0.088867;0.025391;1.148438;
681415;0.085938;0.022461;1.140625;
681630;0.082031;0.024414;1.111328;
681840;0.086914;0.022461;1.043945;
682060;0.082031;0.027344;1.019531;
682270;0.079102;0.025391;0.993164;
682495;0.073242;0.027344;0.925781;
682705;0.072266;0.023438;0.901367;
682925;0.077148;0.029297;0.936523;
683145;0.075195;0.024414;0.953125;
683365;0.072266;0.025391;0.953125;
683585;0.074219;0.024414;0.983398;
683795;0.078125;0.026367;1.060547;
684015;0.076172;0.024414;1.092773;
684225;0.076172;0.025391;1.093750;
684445;0.081055;0.015625;1.077148;
684665;0.082031;0.021484;1.107422;
684885;0.078125;0.027344;1.108398;
685105;0.078125;0.029297;1.064453;
685325;0.078125;0.028320;1.054688;
685540;0.076172;0.034180;1.076172;
685770;0.075195;0.033203;1.094727;
685990;0.075195;0.026367;1.083984;
686220;0.075195;0.023438;1.093750;
686440;0.074219;0.029297;1.103516;
686660;0.073242;0.022461;1.107422;
686875;0.075195;0.021484;1.130859;
687095;0.077148;0.023438;1.178711;
687315;0.078125;0.024414;1.277344;
687535;0.080078;0.023438;1.391602;
687755;0.083984;0.024414;1.506836;
687975;0.095703;0.022461;1.607422;
688195;0.101562;0.019531;1.688477;
688415;0.107422;0.019531;1.796875;
688635;0.113281;0.015625;1.831055;
688855;0.116211;0.012695;1.861328;
689075;0.117188;0.014648;1.872070;
689285;0.113281;0.016602;1.904297;
689495;0.116211;0.020508;1.874023;
689716;0.114258;0.014648;1.864258;
689930;0.116211;0.015625;1.860352;
690150;0.114258;0.019531;1.883789;
690360;0.116211;0.022461;1.871094;
690570;0.114258;0.028320;1.860352;
690780;0.119141;0.012695;1.873047;
690985;0.120117;0.025391;1.875000;
691205;0.121094;0.013672;1.888672;
691425;0.117188;0.020508;1.894531;
691635;0.119141;0.019531;1.895508;
691855;0.122070;0.021484;1.901367;
692075;0.120117;0.005859;1.891602;
692295;0.119141;0.019531;1.900391;
692515;0.128906;0.014648;1.898438;
692735;0.124023;0.019531;1.903320;
692955;0.123047;0.015625;1.912109;
693175;0.125977;0.008789;1.893555;
693395;0.121094;0.013672;1.885742;
693615;0.127930;0.016602;1.925781;
693835;0.126953;0.024414;1.912109;
694040;0.125000;0.015625;1.879883;
694260;0.125977;0.019531;1.876953;
694470;0.129883;0.017578;1.895508;
694680;0.127930;0.020508;1.883789;
694890;0.128906;0.015625;1.853516;
695110;0.129883;0.013672;1.855469;
695325;0.129883;0.014648;1.874023;
695545;0.128906;0.015625;1.875977;
695765;0.131836;0.013672;1.896484;
695985;0.134766;0.005859;1.913086;
696205;0.134766;0.010742;1.888672;
696425;0.133789;0.011719;1.880859;
696645;0.136719;0.013672;1.907227;
696855;0.137695;0.017578;1.888672;
697075;0.135742;0.014648;1.860352;
697295;0.134766;0.022461;1.865234;
697515;0.136719;0.024414;1.833008;
697735;0.135742;0.032227;1.846680;
697955;0.140625;0.023438;1.835938;
698170;0.143555;0.015625;1.835938;
698390;0.143555;0.018555;1.874023;
698600;0.143555;0.015625;1.870117;
698825;0.146484;0.019531;1.867188;
699030;0.149414;0.017578;1.891602;
699240;0.152344;0.018555;1.878906;
699465;0.153320;0.022461;1.921875;
699685;0.154297;0.019531;1.899414;
699895;0.158203;0.021484;1.908203;
700115;0.156250;0.011719;1.893555;
700335;0.160156;0.010742;1.873047;
700555;0.155273;0.008789;1.855469;
700765;0.163086;0.010742;1.822266;
700985;0.157227;0.007812;1.822266;
701205;0.162109;0.010742;1.789062;
701425;0.160156;0.026367;1.775391;
701645;0.160156;0.017578;1.726562;
701865;0.160156;0.020508;1.729492;
702085;0.162109;0.012695;1.715820;
702305;0.162109;0.016602;1.758789;
702520;0.173828;0.022461;1.797852;
702730;0.176758;0.016602;1.850586;
702945;0.177734;0.015625;1.847656;
703165;0.181641;0.019531;1.879883;
703370;0.187500;0.019531;1.884766;
703581;0.191406;0.020508;1.931641;
703800;0.195312;0.015625;1.918945;
704020;0.195312;0.020508;1.928711;
704235;0.197266;0.017578;1.910156;
704455;0.195312;0.014648;1.895508;
704675;0.201172;0.013672;1.896484;
704895;0.200195;0.013672;1.863281;
705115;0.200195;0.024414;1.845703;
705335;0.202148;0.018555;1.840820;
705545;0.200195;0.015625;1.802734;
705765;0.198242;0.026367;1.815430;
705975;0.195312;0.023438;1.781250;
706195;0.199219;0.019531;1.741211;
706415;0.197266;0.021484;1.694336;
706635;0.189453;0.025391;1.672852;
706855;0.180664;0.024414;1.589844;
707075;0.170898;0.025391;1.554688;
707280;0.157227;0.022461;1.501953;
707500;0.142578;0.017578;1.428711;
707720;0.125977;0.017578;1.346680;
707930;0.102539;0.017578;1.200195;
708140;0.078125;0.021484;1.063477;
708365;0.050781;0.022461;0.879883;
708585;0.039062;0.025391;0.722656;
708805;0.023438;0.026367;0.545898;
709015;0.022461;0.023438;0.426758;
709235;0.010742;0.026367;0.294922;
709455;0.008789;0.027344;0.230469;
709675;0.003906;0.021484;0.132812;
709895;0.003906;0.026367;0.101562;
710105;0.003906;0.026367;0.070312;
710325;0.001953;0.028320;0.040039;
710545;0.000000;0.026367;0.029297;
710765;-0.001953;0.028320;0.029297;
710985;-0.000977;0.028320;0.031250;
711205;-0.003906;0.030273;0.029297;
711410;-0.002930;0.029297;0.025391;
711620;-0.003906;0.028320;0.028320;
711840;-0.003906;0.026367;0.030273;
712055;-0.002930;0.030273;0.021484;
712271;-0.004883;0.031250;0.034180;
712490;-0.008789;0.031250;0.029297;
712710;-0.005859;0.035156;0.022461;
712930;-0.007812;0.036133;0.028320;
713140;-0.007812;0.035156;0.035156;
713375;-0.008789;0.034180;0.026367;
713595;-0.011719;0.034180;0.021484;
713810;-0.006836;0.036133;0.018555;
714035;-0.011719;0.031250;0.014648;
714255;-0.005859;0.033203;0.011719;
714475;-0.007812;0.034180;0.012695;
714695;-0.013672;0.031250;0.007812;
714905;-0.015625;0.031250;0.003906;
715125;-0.013672;0.033203;0.006836;
715345;-0.013672;0.032227;0.002930;
715565;-0.009766;0.033203;0.007812;
715785;-0.013672;0.032227;0.006836;
716005;-0.014648;0.032227;0.009766;
716220;-0.015625;0.030273;0.021484;
716430;-0.014648;0.029297;0.030273;
716652;-0.009766;0.031250;0.034180;
716860;-0.016602;0.030273;0.033203;
717070;-0.016602;0.028320;0.027344;
717295;-0.011719;0.028320;0.036133;
717515;-0.020508;0.029297;0.033203;
717735;-0.012695;0.033203;0.039062;
717955;-0.017578;0.028320;0.036133;
718175;-0.012695;0.032227;0.032227;
718395;-0.017578;0.028320;0.033203;
718615;-0.012695;0.028320;0.024414;
718835;-0.016602;0.027344;0.028320;
719055;-0.014648;0.031250;0.020508;
719275;-0.013672;0.030273;0.013672;
719485;-0.014648;0.029297;0.020508;
719700;-0.016602;0.025391;0.008789;
719935;-0.013672;0.028320;0.012695;
720150;-0.013672;0.027344;0.007812;
720360;-0.013672;0.033203;0.010742;
720570;-0.016602;0.031250;0.010742;
720790;-0.018555;0.030273;0.014648;
721000;-0.013672;0.031250;0.013672;
721235;-0.016602;0.026367;0.006836;
721455;-0.015625;0.032227;0.008789;
721675;-0.015625;0.032227;0.001953;
721885;-0.014648;0.032227;0.008789;
722105;-0.014648;0.028320;0.010742;
722320;-0.017578;0.026367;0.005859;
722545;-0.016602;0.026367;0.004883;
722765;-0.019531;0.026367;-0.000977;
722975;-0.020508;0.029297;0.003906;
723195;-0.019531;0.028320;0.001953;
723415;-0.018555;0.025391;0.003906;
723625;-0.016602;0.028320;0.004883;
723845;-0.016602;0.026367;0.002930;
724065;-0.013672;0.026367;0.021484;
724280;-0.014648;0.024414;0.026367;
724500;-0.021484;0.026367;-0.001953;
724720;-0.021484;0.024414;-0.001953;
724931;-0.021484;0.025391;-0.003906;
725145;-0.015625;0.027344;0.020508;
725355;-0.020508;0.030273;0.008789;
725560;-0.019531;0.032227;0.021484;
725775;-0.021484;0.030273;0.012695;
725995;-0.015625;0.036133;0.028320;
726215;-0.019531;0.031250;0.015625;
726435;-0.021484;0.030273;0.022461;
726655;-0.023438;0.025391;0.026367;
726875;-0.021484;0.026367;0.027344;
727095;-0.023438;0.033203;0.019531;
727315;-0.022461;0.035156;0.036133;
727525;-0.022461;0.028320;0.028320;
727745;-0.023438;0.029297;0.029297;
727965;-0.025391;0.029297;0.020508;
728180;-0.023438;0.026367;0.023438;
728390;-0.024414;0.027344;0.029297;
728600;-0.023438;0.035156;0.023438;
728820;-0.021484;0.032227;0.015625;
729030;-0.025391;0.033203;0.005859;
729250;-0.025391;0.024414;0.006836;
729475;-0.025391;0.031250;0.003906;
729680;-0.025391;0.035156;0.009766;
729905;-0.023438;0.029297;0.008789;
730125;-0.029297;0.023438;0.013672;
730330;-0.028320;0.027344;0.014648;
730555;-0.025391;0.029297;0.015625;
730775;-0.027344;0.026367;0.025391;
730980;-0.028320;0.023438;0.023438;
731205;-0.030273;0.024414;0.004883;
731425;-0.029297;0.022461;0.005859;
731645;-0.030273;0.020508;0.020508;
731865;-0.032227;0.028320;0.000000;
732085;-0.033203;0.032227;-0.006836;
732305;-0.032227;0.029297;-0.015625;
732525;-0.035156;0.027344;-0.025391;
732746;-0.037109;0.030273;-0.040039;
732961;-0.037109;0.034180;-0.034180;
733180;-0.036133;0.027344;-0.011719;
733410;-0.040039;0.031250;-0.019531;
733620;-0.041016;0.034180;-0.015625;
733845;-0.044922;0.026367;0.008789;
734065;-0.046875;0.028320;0.045898;
734285;-0.053711;0.033203;0.139648;
734495;-0.049805;0.032227;0.297852;
734705;-0.039062;0.030273;0.475586;
734925;-0.023438;0.026367;0.677734;
735145;-0.011719;0.025391;0.873047;
735365;0.010742;0.029297;1.101562;
735585;0.017578;0.035156;1.257812;
735805;0.026367;0.032227;1.409180;
736025;0.033203;0.035156;1.484375;
736240;0.045898;0.028320;1.550781;
736475;0.053711;0.019531;1.604492;
736695;0.053711;0.026367;1.619141;
736900;0.057617;0.028320;1.663086;
737121;0.053711;0.035156;1.694336;
737352;0.043945;0.022461;1.691406;
737580;0.045898;0.021484;1.706055;
737815;0.043945;0.017578;1.738281;
738035;0.044922;0.033203;1.768555;
738255;0.045898;0.035156;1.788086;
738475;0.041016;0.029297;1.814453;
738695;0.040039;0.019531;1.833008;
738915;0.045898;0.025391;1.834961;
739135;0.042969;0.021484;1.865234;
739355;0.042969;0.025391;1.871094;
739575;0.039062;0.011719;1.858398;
739795;0.035156;0.020508;1.851562;
740015;0.030273;0.026367;1.836914;
740235;0.030273;0.024414;1.824219;
740455;0.023438;0.027344;1.791992;
740670;0.023438;0.028320;1.774414;
740880;0.015625;0.034180;1.757812;
741100;0.013672;0.037109;1.768555;
741330;0.015625;0.032227;1.782227;
741565;0.010742;0.028320;1.791016;
741785;0.009766;0.024414;1.809570;
742005;0.007812;0.020508;1.807617;
742225;0.006836;0.022461;1.815430;
742445;0.003906;0.025391;1.808594;
742665;0.000000;0.022461;1.796875;
742885;0.000000;0.021484;1.800781;
743105;-0.001953;0.022461;1.798828;
743325;-0.006836;0.023438;1.796875;
743545;-0.006836;0.026367;1.812500;
743765;-0.006836;0.027344;1.815430;
743985;-0.007812;0.029297;1.821289;
744205;-0.008789;0.028320;1.825195;
744425;-0.010742;0.024414;1.818359;
744640;-0.013672;0.023438;1.831055;
744850;-0.010742;0.020508;1.843750;
745060;-0.011719;0.020508;1.845703;
745280;-0.010742;0.016602;1.845703;
745505;-0.015625;0.014648;1.841797;
745725;-0.019531;0.015625;1.833984;
745945;-0.020508;0.015625;1.820312;
746165;-0.019531;0.015625;1.820312;
746385;-0.025391;0.014648;1.802734;
746605;-0.025391;0.020508;1.795898;
746825;-0.029297;0.019531;1.775391;
747045;-0.036133;0.021484;1.756836;
747265;-0.037109;0.023438;1.725586;
747485;-0.042969;0.025391;1.696289;
747705;-0.041992;0.024414;1.666992;
747925;-0.044922;0.026367;1.645508;
748145;-0.050781;0.021484;1.630859;
748365;-0.052734;0.020508;1.622070;
748580;-0.052734;0.023438;1.620117;
748791;-0.051758;0.021484;1.636719;
749001;-0.052734;0.020508;1.652344;
749234;-0.048828;0.016602;1.685547;
749445;-0.047852;0.023438;1.719727;
749665;-0.047852;0.021484;1.740234;
749885;-0.043945;0.023438;1.764648;
750105;-0.041992;0.022461;1.791992;
750325;-0.040039;0.027344;1.815430;
750545;-0.042969;0.029297;1.805664;
750755;-0.046875;0.023438;1.770508;
750975;-0.048828;0.026367;1.746094;
751185;-0.052734;0.022461;1.730469;
751405;-0.052734;0.027344;1.696289;
751625;-0.055664;0.019531;1.669922;
751845;-0.054688;0.026367;1.652344;
752065;-0.058594;0.021484;1.631836;
752285;-0.060547;0.023438;1.630859;
752500;-0.061523;0.023438;1.613281;
752710;-0.058594;0.024414;1.618164;
752930;-0.061523;0.022461;1.605469;
753145;-0.064453;0.028320;1.589844;
753365;-0.062500;0.024414;1.591797;
753585;-0.062500;0.027344;1.575195;
753800;-0.065430;0.025391;1.584961;
754025;-0.064453;0.021484;1.583984;
754245;-0.062500;0.025391;1.620117;
754465;-0.061523;0.022461;1.650391;
754675;-0.055664;0.025391;1.703125;
754885;-0.056641;0.022461;1.737305;
755105;-0.054688;0.026367;1.761719;
755325;-0.056641;0.023438;1.764648;
755545;-0.053711;0.023438;1.746094;
755765;-0.053711;0.021484;1.706055;
755975;-0.061523;0.016602;1.646484;
756195;-0.065430;0.019531;1.586914;
756415;-0.069336;0.022461;1.537109;
756635;-0.073242;0.024414;1.483398;
756850;-0.075195;0.027344;1.448242;
757070;-0.077148;0.021484;1.440430;
757281;-0.079102;0.021484;1.411133;
757500;-0.079102;0.029297;1.414062;
757730;-0.080078;0.024414;1.416992;
757965;-0.076172;0.022461;1.423828;
758185;-0.074219;0.023438;1.416992;
758395;-0.077148;0.025391;1.431641;
758615;-0.080078;0.020508;1.421875;
758835;-0.077148;0.024414;1.408203;
759045;-0.075195;0.025391;1.389648;
759265;-0.078125;0.023438;1.374023;
759485;-0.079102;0.019531;1.348633;
759705;-0.079102;0.022461;1.328125;
759925;-0.083008;0.025391;1.274414;
760145;-0.086914;0.032227;1.206055;
760355;-0.088867;0.024414;1.140625;
760575;-0.086914;0.017578;1.072266;
760795;-0.091797;0.024414;1.013672;
761010;-0.091797;0.029297;0.960938;
761230;-0.094727;0.031250;0.914062;
761450;-0.089844;0.032227;0.899414;
761680;-0.084961;0.031250;0.920898;
761915;-0.079102;0.030273;0.927734;
762135;-0.073242;0.029297;0.949219;
762355;-0.071289;0.031250;0.983398;
762565;-0.066406;0.028320;1.013672;
762785;-0.056641;0.026367;1.034180;
762995;-0.050781;0.028320;1.051758;
763215;-0.040039;0.027344;1.101562;
763435;-0.031250;0.031250;1.083984;
763655;-0.024414;0.029297;1.057617;
763875;-0.020508;0.028320;1.000977;
764095;-0.018555;0.030273;0.981445;
764315;-0.017578;0.033203;0.975586;
764525;-0.021484;0.034180;0.957031;
764745;-0.026367;0.036133;0.935547;
764960;-0.022461;0.030273;0.939453;
765171;-0.018555;0.024414;0.960938;
765380;-0.019531;0.033203;0.972656;
765612;-0.017578;0.027344;1.008789;
765830;-0.016602;0.032227;1.028320;
766045;-0.016602;0.030273;1.055664;
766265;-0.017578;0.024414;1.070312;
766485;-0.012695;0.027344;1.105469;
766705;-0.018555;0.026367;1.116211;
766925;-0.011719;0.023438;1.128906;
767135;-0.013672;0.027344;1.131836;
767355;-0.016602;0.025391;1.103516;
767575;-0.012695;0.027344;1.110352;
767795;-0.014648;0.028320;1.109375;
768015;-0.009766;0.024414;1.106445;
768225;-0.018555;0.026367;1.080078;
768445;-0.013672;0.029297;1.078125;
768665;-0.018555;0.030273;1.033203;
768885;-0.017578;0.033203;1.002930;
769100;-0.019531;0.034180;0.976562;
769310;-0.027344;0.031250;0.955078;
769540;-0.018555;0.029297;0.955078;
769750;-0.022461;0.028320;0.965820;
769985;-0.020508;0.025391;0.989258;
770205;-0.016602;0.028320;1.007812;
770425;-0.016602;0.028320;1.036133;
770635;-0.017578;0.028320;1.054688;
770855;-0.016602;0.030273;1.066406;
771075;-0.016602;0.024414;1.070312;
771285;-0.014648;0.026367;1.054688;
771505;-0.015625;0.028320;1.068359;
771715;-0.014648;0.026367;1.053711;
771935;-0.016602;0.020508;1.045898;
772145;-0.016602;0.027344;1.052734;
772365;-0.017578;0.027344;1.041016;
772585;-0.016602;0.024414;1.036133;
772806;-0.016602;0.027344;1.000000;
773020;-0.020508;0.028320;0.946289;
773240;-0.020508;0.034180;0.928711;
773460;-0.021484;0.024414;0.887695;
773680;-0.018555;0.027344;0.899414;
773905;-0.025391;0.026367;0.893555;
774125;-0.020508;0.033203;0.928711;
774345;-0.025391;0.029297;0.929688;
774565;-0.021484;0.034180;0.938477;
774785;-0.023438;0.029297;0.954102;
775005;-0.018555;0.028320;0.990234;
775225;-0.021484;0.027344;1.026367;
775445;-0.016602;0.027344;1.051758;
775665;-0.008789;0.030273;1.099609;
775885;-0.011719;0.025391;1.125977;
776105;-0.011719;0.026367;1.142578;
776325;-0.012695;0.024414;1.132812;
776545;-0.014648;0.023438;1.112305;
776760;-0.013672;0.026367;1.107422;
776980;-0.013672;0.025391;1.088867;
777200;-0.014648;0.026367;1.083984;
777421;-0.016602;0.028320;1.075195;
777640;-0.011719;0.028320;1.095703;
777855;-0.014648;0.029297;1.082031;
778075;-0.011719;0.030273;1.085938;
778295;-0.010742;0.028320;1.100586;
778505;-0.014648;0.029297;1.101562;
778725;-0.010742;0.029297;1.129883;
778935;-0.012695;0.031250;1.123047;
779155;-0.007812;0.026367;1.134766;
779375;-0.012695;0.021484;1.124023;
779595;-0.012695;0.025391;1.121094;
779805;-0.012695;0.028320;1.119141;
780015;-0.014648;0.024414;1.106445;
780235;-0.010742;0.025391;1.107422;
780455;-0.015625;0.018555;1.095703;
780665;-0.010742;0.025391;1.114258;
780882;-0.016602;0.026367;1.100586;
781100;-0.014648;0.025391;1.101562;
781320;-0.014648;0.030273;1.110352;
781540;-0.017578;0.031250;1.102539;
781750;-0.015625;0.027344;1.106445;
781975;-0.011719;0.029297;1.102539;
782195;-0.010742;0.027344;1.105469;
782415;-0.013672;0.022461;1.101562;
782635;-0.011719;0.022461;1.098633;
782855;-0.013672;0.021484;1.095703;
783075;-0.013672;0.027344;1.045898;
783295;-0.015625;0.027344;1.019531;
783515;-0.018555;0.030273;0.941406;
783735;-0.017578;0.025391;0.919922;
783955;-0.023438;0.026367;0.861328;
784175;-0.025391;0.026367;0.847656;
784395;-0.018555;0.025391;0.833008;
784615;-0.023438;0.023438;0.801758;
784830;-0.023438;0.030273;0.842773;
785065;-0.023438;0.030273;0.833984;
785272;-0.023438;0.031250;0.848633;
785480;-0.024414;0.031250;0.848633;
785700;-0.021484;0.029297;0.866211;
785920;-0.019531;0.032227;0.878906;
786135;-0.022461;0.028320;0.871094;
786355;-0.021484;0.031250;0.901367;
786575;-0.020508;0.029297;0.891602;
786795;-0.024414;0.030273;0.891602;
787015;-0.022461;0.029297;0.907227;
787235;-0.022461;0.026367;0.933594;
787455;-0.023438;0.023438;0.956055;
787675;-0.018555;0.028320;0.987305;
787895;-0.017578;0.026367;1.013672;
788115;-0.018555;0.024414;1.022461;
788335;-0.014648;0.025391;1.070312;
788545;-0.016602;0.022461;1.085938;
788765;-0.011719;0.027344;1.127930;
788985;-0.013672;0.027344;1.136719;
789205;-0.009766;0.026367;1.152344;
789425;-0.012695;0.026367;1.146484;
789642;-0.010742;0.024414;1.148438;
789871;-0.012695;0.028320;1.144531;
790090;-0.016602;0.024414;1.135742;
790315;-0.012695;0.025391;1.130859;
790535;-0.014648;0.021484;1.130859;
790755;-0.008789;0.025391;1.142578;
790975;-0.009766;0.021484;1.147461;
791195;-0.009766;0.025391;1.162109;
791415;-0.009766;0.024414;1.157227;
791635;-0.009766;0.022461;1.164062;
791855;-0.010742;0.022461;1.142578;
792075;-0.009766;0.024414;1.125977;
792285;-0.010742;0.022461;1.082031;
792505;-0.016602;0.022461;1.015625;
792725;-0.013672;0.026367;0.985352;
792935;-0.019531;0.023438;0.929688;
793145;-0.021484;0.022461;0.899414;
793360;-0.021484;0.031250;0.889648;
793580;-0.022461;0.029297;0.874023;
793793;-0.020508;0.027344;0.889648;
794000;-0.021484;0.028320;0.891602;
794210;-0.022461;0.029297;0.905273;
794435;-0.022461;0.030273;0.913086;
794655;-0.020508;0.028320;0.934570;
794875;-0.023438;0.026367;0.943359;
795095;-0.019531;0.025391;0.953125;
795315;-0.019531;0.026367;0.975586;
795535;-0.017578;0.024414;0.970703;
795755;-0.017578;0.023438;0.984375;
795975;-0.020508;0.026367;0.986328;
796195;-0.015625;0.027344;1.023438;
796415;-0.016602;0.025391;1.041016;
796635;-0.014648;0.023438;1.081055;
796855;-0.015625;0.026367;1.099609;
797075;-0.011719;0.033203;1.109375;
797295;-0.012695;0.027344;1.101562;
797500;-0.011719;0.026367;1.085938;
797711;-0.014648;0.027344;1.079102;
797920;-0.014648;0.022461;1.056641;
798140;-0.013672;0.026367;1.049805;
798360;-0.017578;0.026367;1.037109;
798575;-0.017578;0.023438;1.017578;
798795;-0.017578;0.027344;1.042969;
799015;-0.014648;0.023438;1.026367;
799225;-0.014648;0.029297;1.038086;
799445;-0.016602;0.028320;1.031250;
799665;-0.012695;0.025391;1.033203;
799885;-0.013672;0.026367;1.037109;
800105;-0.011719;0.029297;1.040039;
800325;-0.012695;0.034180;1.058594;
800545;-0.014648;0.031250;1.049805;
800765;-0.018555;0.023438;1.056641;
800985;-0.014648;0.019531;1.059570;
801205;-0.011719;0.019531;1.064453;
801425;-0.014648;0.016602;1.070312;
801645;-0.016602;0.024414;1.076172;
801865;-0.013672;0.027344;1.078125;
802080;-0.010742;0.023438;1.079102;
802300;-0.013672;0.028320;1.076172;
802510;-0.017578;0.030273;1.056641;
802720;-0.013672;0.032227;1.066406;
802945;-0.014648;0.029297;1.055664;
803165;-0.011719;0.023438;1.053711;
803385;-0.014648;0.031250;1.043945;
803595;-0.014648;0.028320;1.051758;
803815;-0.013672;0.026367;1.038086;
804035;-0.015625;0.019531;1.035156;
804255;-0.013672;0.019531;1.037109;
804475;-0.016602;0.019531;1.026367;
804695;-0.013672;0.016602;1.032227;
804915;-0.017578;0.023438;1.043945;
805135;-0.012695;0.021484;1.049805;
805355;-0.013672;0.030273;1.050781;
805575;-0.011719;0.025391;1.062500;
805795;-0.015625;0.024414;1.062500;
806011;-0.012695;0.027344;1.066406;
806220;-0.014648;0.022461;1.079102;
806440;-0.014648;0.028320;1.073242;
806651;-0.011719;0.026367;1.080078;
806881;-0.012695;0.024414;1.077148;
807115;-0.010742;0.019531;1.082031;
807335;-0.014648;0.023438;1.068359;
807555;-0.009766;0.021484;1.084961;
807775;-0.014648;0.027344;1.052734;
807995;-0.011719;0.028320;1.033203;
808215;-0.017578;0.029297;0.975586;
808435;-0.017578;0.025391;0.949219;
808655;-0.019531;0.030273;0.925781;
808875;-0.021484;0.029297;0.898438;
809095;-0.021484;0.029297;0.894531;
809315;-0.020508;0.028320;0.892578;
809535;-0.018555;0.032227;0.909180;
809755;-0.022461;0.026367;0.889648;
809975;-0.018555;0.026367;0.906250;
810195;-0.021484;0.028320;0.899414;
810405;-0.019531;0.025391;0.908203;
810611;-0.017578;0.029297;0.925781;
810820;-0.020508;0.019531;0.917969;
811050;-0.016602;0.024414;0.940430;
811270;-0.015625;0.031250;0.939453;
811495;-0.015625;0.030273;0.942383;
811715;-0.013672;0.030273;0.962891;
811925;-0.011719;0.028320;0.987305;
812145;-0.008789;0.034180;1.032227;
812365;-0.005859;0.026367;1.062500;
812585;-0.005859;0.024414;1.076172;
812805;-0.003906;0.029297;1.093750;
813025;-0.005859;0.027344;1.068359;
813245;-0.008789;0.024414;1.056641;
813465;-0.008789;0.029297;1.027344;
813675;-0.009766;0.024414;1.018555;
813895;-0.007812;0.029297;0.996094;
814115;-0.008789;0.027344;0.976562;
814325;-0.012695;0.030273;0.957031;
814540;-0.016602;0.025391;0.953125;
814750;-0.010742;0.033203;0.964844;
814955;-0.008789;0.027344;0.977539;
815160;-0.009766;0.031250;1.000000;
815391;-0.012695;0.028320;1.023438;
815605;-0.008789;0.023438;1.047852;
815825;-0.002930;0.027344;1.083008;
816035;-0.003906;0.027344;1.114258;
816255;-0.006836;0.028320;1.115234;
816475;-0.006836;0.029297;1.120117;
816695;-0.004883;0.023438;1.126953;
816915;-0.001953;0.027344;1.144531;
817135;-0.004883;0.028320;1.130859;
817345;-0.005859;0.028320;1.118164;
817565;-0.005859;0.030273;1.125977;
817775;-0.002930;0.025391;1.113281;
817995;-0.001953;0.027344;1.123047;
818215;-0.005859;0.022461;1.116211;
818435;-0.007812;0.027344;1.107422;
818653;-0.005859;0.026367;1.100586;
818860;-0.002930;0.022461;1.110352;
819080;-0.005859;0.027344;1.101562;
819291;-0.006836;0.031250;1.104492;
819511;-0.007812;0.023438;1.100586;
819741;0.000000;0.029297;1.105469;
819975;-0.012695;0.028320;1.050781;
820195;-0.012695;0.029297;1.007812;
820415;-0.007812;0.024414;0.968750;
820635;-0.009766;0.027344;0.938477;
820855;-0.017578;0.030273;0.906250;
821075;-0.019531;0.031250;0.879883;
821295;-0.013672;0.028320;0.889648;
821515;-0.008789;0.028320;0.912109;
821735;-0.013672;0.027344;0.945312;
821955;-0.013672;0.028320;0.961914;
822175;-0.012695;0.027344;0.979492;
822395;-0.011719;0.028320;0.996094;
822615;-0.012695;0.031250;1.014648;
822831;-0.009766;0.028320;1.012695;
823050;-0.013672;0.023438;0.998047;
823275;-0.007812;0.025391;1.009766;
823495;-0.009766;0.025391;0.998047;
823701;-0.011719;0.026367;0.994141;
823910;-0.013672;0.027344;1.000977;
824130;-0.016602;0.026367;1.005859;
824345;-0.006836;0.024414;1.028320;
824565;-0.005859;0.028320;1.044922;
824785;-0.010742;0.027344;1.037109;
824995;-0.012695;0.029297;1.047852;
825215;-0.008789;0.024414;1.056641;
825435;-0.005859;0.026367;1.066406;
825655;-0.008789;0.027344;1.062500;
825875;-0.012695;0.031250;1.048828;
826095;-0.007812;0.028320;1.052734;
826315;-0.007812;0.031250;1.066406;
826535;-0.009766;0.028320;1.060547;
826755;-0.010742;0.030273;1.054688;
826975;-0.008789;0.030273;1.067383;
827195;-0.007812;0.030273;1.060547;
827400;-0.008789;0.025391;1.050781;
827620;-0.009766;0.021484;1.040039;
827840;-0.011719;0.025391;1.023438;
828040;-0.011719;0.026367;1.035156;
828250;-0.008789;0.024414;1.035156;
828465;-0.005859;0.025391;1.033203;
828685;-0.012695;0.028320;1.008789;
828905;-0.011719;0.028320;1.015625;
829125;-0.009766;0.029297;1.014648;
829345;-0.009766;0.025391;1.003906;
829565;-0.012695;0.026367;1.007812;
829785;-0.013672;0.025391;0.998047;
830005;-0.010742;0.024414;1.001953;
830225;-0.010742;0.023438;1.004883;
830445;-0.012695;0.027344;1.004883;
830665;-0.012695;0.028320;1.010742;
830885;-0.009766;0.027344;1.022461;
831105;-0.009766;0.033203;1.053711;
831326;-0.007812;0.032227;1.075195;
831550;-0.009766;0.025391;1.070312;
831781;-0.008789;0.026367;1.093750;
831995;-0.006836;0.026367;1.086914;
832215;-0.006836;0.021484;1.082031;
832421;-0.010742;0.027344;1.059570;
832631;-0.012695;0.024414;1.051758;
832850;-0.009766;0.024414;1.074219;
833075;-0.004883;0.024414;1.083008;
833295;-0.005859;0.023438;1.066406;
833515;-0.011719;0.025391;1.058594;
833735;-0.005859;0.026367;1.053711;
833955;-0.005859;0.024414;1.057617;
834175;-0.009766;0.031250;1.041016;
834395;-0.013672;0.029297;1.028320;
834605;-0.007812;0.028320;1.027344;
834825;-0.007812;0.029297;1.024414;
835045;-0.012695;0.027344;1.029297;
835265;-0.015625;0.035156;1.022461;
835485;-0.013672;0.029297;1.020508;
835705;-0.010742;0.025391;1.025391;
835925;-0.008789;0.029297;1.040039;
836145;-0.008789;0.026367;1.038086;
836360;-0.009766;0.020508;1.039062;
836581;-0.009766;0.022461;1.056641;
836800;-0.006836;0.026367;1.080078;
837030;-0.005859;0.029297;1.086914;
837265;-0.008789;0.025391;1.097656;
837485;-0.003906;0.029297;1.124023;
837705;-0.004883;0.023438;1.125977;
837925;-0.006836;0.032227;1.131836;
838145;-0.005859;0.024414;1.130859;
838365;-0.002930;0.028320;1.131836;
838575;-0.002930;0.021484;1.133789;
838795;-0.008789;0.028320;1.125977;
839015;-0.011719;0.027344;1.108398;
839235;-0.004883;0.024414;1.121094;
839445;-0.004883;0.027344;1.100586;
839665;-0.005859;0.031250;1.105469;
839885;-0.009766;0.030273;1.091797;
840095;-0.008789;0.024414;1.064453;
840310;-0.009766;0.027344;1.046875;
840515;-0.006836;0.026367;1.027344;
840720;-0.006836;0.026367;1.033203;
840930;-0.014648;0.024414;0.987305;
841155;-0.014648;0.027344;0.965820;
841360;-0.012695;0.026367;0.945312;
841580;-0.010742;0.032227;0.937500;
841795;-0.013672;0.027344;0.916992;
842015;-0.015625;0.027344;0.876953;
842235;-0.017578;0.033203;0.869141;
842445;-0.015625;0.031250;0.884766;
842655;-0.012695;0.030273;0.915039;
842875;-0.012695;0.031250;0.923828;
843095;-0.015625;0.028320;0.939453;
843315;-0.011719;0.027344;0.966797;
843535;-0.009766;0.024414;0.976562;
843755;-0.010742;0.032227;0.982422;
843975;-0.009766;0.032227;0.984375;
844195;-0.003906;0.032227;1.009766;
844415;0.000000;0.030273;1.019531;
844631;0.000977;0.031250;1.044922;
844850;0.002930;0.027344;1.068359;
845060;0.000000;0.022461;1.087891;
845280;0.000000;0.017578;1.093750;
845490;0.000977;0.020508;1.116211;
845705;-0.001953;0.017578;1.113281;
845925;-0.002930;0.020508;1.105469;
846145;-0.003906;0.023438;1.088867;
846365;-0.005859;0.026367;1.081055;
846585;-0.004883;0.030273;1.074219;
846795;-0.006836;0.027344;1.049805;
847015;-0.006836;0.031250;1.036133;
847235;-0.005859;0.022461;1.023438;
847445;-0.008789;0.026367;1.000000;
847665;-0.004883;0.026367;1.006836;
847885;-0.004883;0.029297;1.005859;
848105;-0.005859;0.023438;1.005859;
848325;-0.009766;0.025391;0.995117;
848535;-0.008789;0.027344;1.006836;
848750;-0.011719;0.025391;0.993164;
848952;-0.007812;0.026367;0.990234;
849170;-0.009766;0.029297;0.993164;
849400;-0.007812;0.025391;1.010742;
849635;-0.007812;0.023438;1.031250;
849855;-0.008789;0.023438;1.043945;
850075;-0.005859;0.023438;1.065430;
850295;-0.004883;0.027344;1.074219;
850515;-0.003906;0.020508;1.075195;
850735;-0.002930;0.027344;1.073242;
850955;-0.005859;0.029297;1.059570;
851175;-0.005859;0.026367;1.042969;
851395;-0.007812;0.028320;1.029297;
851615;-0.008789;0.027344;1.015625;
851835;-0.009766;0.025391;1.010742;
852055;-0.005859;0.026367;1.009766;
852275;0.000000;0.033203;1.025391;
852495;0.002930;0.028320;1.015625;
852700;0.007812;0.030273;1.041016;
852920;0.022461;0.025391;1.058594;
853130;0.031250;0.030273;1.047852;
853345;0.043945;0.027344;1.063477;
853575;0.049805;0.027344;1.054688;
853795;0.052734;0.027344;1.058594;
854015;0.052734;0.026367;1.039062;
854225;0.049805;0.029297;1.014648;
854445;0.055664;0.029297;0.988281;
854665;0.057617;0.025391;0.986328;
854885;0.063477;0.033203;1.001953;
855105;0.073242;0.026367;1.010742;
855325;0.083984;0.028320;1.013672;
855545;0.090820;0.020508;1.027344;
855765;0.090820;0.032227;1.022461;
855985;0.092773;0.028320;1.040039;
856205;0.088867;0.030273;1.026367;
856425;0.087891;0.023438;0.988281;
856631;0.090820;0.021484;0.986328;
856851;0.083008;0.022461;0.969727;
857060;0.085938;0.024414;0.959961;
857280;0.084961;0.023438;0.995117;
857495;0.083008;0.026367;1.022461;
857705;0.085938;0.028320;1.037109;
857925;0.088867;0.033203;1.066406;
858145;0.085938;0.028320;1.082031;
858365;0.092773;0.028320;1.066406;
858575;0.091797;0.029297;1.074219;
858795;0.089844;0.031250;1.092773;
859015;0.085938;0.023438;1.065430;
859235;0.090820;0.024414;1.068359;
859445;0.090820;0.024414;1.083008;
859665;0.086914;0.036133;1.046875;
859885;0.087891;0.023438;1.034180;
860095;0.083984;0.030273;1.053711;
860315;0.084961;0.021484;1.038086;
860530;0.083984;0.026367;0.998047;
860740;0.085938;0.028320;1.009766;
860960;0.086914;0.027344;1.010742;
861170;0.081055;0.026367;0.996094;
861395;0.081055;0.028320;0.980469;
861615;0.084961;0.030273;0.997070;
861835;0.084961;0.031250;1.009766;
862055;0.083984;0.027344;0.975586;
862275;0.083008;0.030273;0.944336;
862495;0.079102;0.033203;0.963867;
862715;0.080078;0.027344;0.931641;
862935;0.076172;0.030273;0.905273;
863155;0.078125;0.026367;0.940430;
863375;0.077148;0.024414;0.974609;
863595;0.075195;0.023438;0.982422;
863815;0.074219;0.021484;0.990234;
864035;0.081055;0.023438;1.043945;
864255;0.080078;0.024414;1.052734;
864460;0.081055;0.027344;1.083984;
864680;0.081055;0.031250;1.090820;
864910;0.083008;0.029297;1.111328;
865130;0.083984;0.028320;1.136719;
865345;0.082031;0.025391;1.126953;
865565;0.082031;0.021484;1.139648;
865785;0.083008;0.025391;1.166992;
866005;0.083984;0.023438;1.151367;
866225;0.078125;0.024414;1.140625;
866445;0.081055;0.020508;1.100586;
866665;0.079102;0.025391;1.097656;
866885;0.081055;0.024414;1.083984;
867105;0.079102;0.027344;1.056641;
867325;0.075195;0.024414;1.024414;
867545;0.080078;0.029297;1.027344;
867755;0.077148;0.027344;1.029297;
867975;0.073242;0.027344;1.003906;
868195;0.075195;0.025391;0.994141;
868402;0.075195;0.026367;0.983398;
868620;0.075195;0.029297;0.988281;
868840;0.074219;0.023438;0.994141;
869070;0.074219;0.022461;0.997070;
869280;0.076172;0.024414;0.968750;
869515;0.071289;0.028320;0.940430;
869735;0.069336;0.025391;0.931641;
869955;0.067383;0.031250;0.916016;
870175;0.068359;0.030273;0.921875;
870395;0.073242;0.031250;0.954102;
870615;0.067383;0.025391;0.967773;
870835;0.068359;0.030273;0.957031;
871055;0.067383;0.029297;0.953125;
871275;0.071289;0.023438;0.956055;
871485;0.072266;0.027344;0.976562;
871695;0.068359;0.029297;1.034180;
871915;0.070312;0.020508;1.126953;
872135;0.073242;0.023438;1.236328;
872351;0.082031;0.020508;1.389648;
872560;0.088867;0.019531;1.534180;
872780;0.095703;0.024414;1.679688;
873003;0.103516;0.018555;1.768555;
873211;0.109375;0.024414;1.847656;
873441;0.114258;0.017578;1.900391;
873675;0.117188;0.020508;1.935547;
873895;0.116211;0.015625;1.933594;
874115;0.115234;0.024414;1.938477;
874335;0.114258;0.022461;1.903320;
874555;0.112305;0.029297;1.878906;
874765;0.108398;0.027344;1.851562;
874975;0.102539;0.027344;1.841797;
875195;0.107422;0.024414;1.839844;
875405;0.108398;0.020508;1.835938;
875625;0.109375;0.016602;1.847656;
875845;0.108398;0.020508;1.863281;
876065;0.113281;0.015625;1.885742;
876285;0.115234;0.016602;1.890625;
876500;0.116211;0.013672;1.883789;
876711;0.114258;0.015625;1.866211;
876930;0.117188;0.016602;1.865234;
877150;0.108398;0.023438;1.854492;
877370;0.110352;0.013672;1.835938;
877585;0.110352;0.008789;1.833984;
877805;0.114258;0.016602;1.851562;
878025;0.116211;0.017578;1.871094;
878245;0.116211;0.023438;1.884766;
878465;0.116211;0.018555;1.892578;
878685;0.123047;0.012695;1.895508;
878905;0.123047;0.011719;1.903320;
879125;0.120117;0.009766;1.896484;
879345;0.121094;0.019531;1.882812;
879565;0.122070;0.021484;1.878906;
879785;0.121094;0.024414;1.867188;
879995;0.122070;0.022461;1.849609;
880215;0.125977;0.018555;1.843750;
880435;0.125977;0.023438;1.829102;
880650;0.122070;0.031250;1.815430;
880860;0.125977;0.031250;1.814453;
881080;0.129883;0.023438;1.859375;
881290;0.131836;0.019531;1.867188;
881501;0.131836;0.010742;1.884766;
881715;0.137695;0.015625;1.894531;
881935;0.139648;0.012695;1.916992;
882155;0.140625;0.007812;1.909180;
882375;0.143555;0.011719;1.921875;
882585;0.146484;0.009766;1.945312;
882805;0.148438;0.017578;1.927734;
883025;0.149414;0.015625;1.922852;
883245;0.145508;0.013672;1.929688;
883465;0.149414;0.014648;1.919922;
883685;0.148438;0.016602;1.943359;
883895;0.149414;0.026367;1.916992;
884115;0.151367;0.017578;1.893555;
884335;0.150391;0.015625;1.878906;
884545;0.148438;0.016602;1.833008;
884760;0.152344;0.018555;1.814453;
884992;0.149414;0.019531;1.828125;
885220;0.154297;0.023438;1.819336;
885431;0.152344;0.021484;1.834961;
885650;0.155273;0.024414;1.806641;
885875;0.155273;0.024414;1.832031;
886095;0.160156;0.014648;1.802734;
886315;0.162109;0.019531;1.826172;
886535;0.166016;0.013672;1.801758;
886755;0.169922;0.015625;1.833008;
886975;0.169922;0.013672;1.819336;
887195;0.174805;0.013672;1.840820;
887415;0.174805;0.018555;1.819336;
887635;0.172852;0.017578;1.830078;
887855;0.180664;0.017578;1.818359;
888075;0.176758;0.023438;1.828125;
888285;0.178711;0.014648;1.799805;
888505;0.181641;0.019531;1.825195;
888720;0.184570;0.014648;1.808594;
888940;0.185547;0.026367;1.799805;
889150;0.188477;0.018555;1.810547;
889361;0.191406;0.021484;1.790039;
889591;0.195312;0.015625;1.813477;
889805;0.198242;0.016602;1.795898;
890025;0.199219;0.016602;1.813477;
890245;0.200195;0.016602;1.803711;
890465;0.198242;0.008789;1.756836;
890685;0.199219;0.008789;1.757812;
890905;0.202148;0.007812;1.752930;
891125;0.202148;0.000000;1.720703;
891345;0.201172;0.006836;1.697266;
891555;0.190430;0.016602;1.698242;
891765;0.190430;0.001953;1.660156;
891985;0.181641;0.014648;1.645508;
892205;0.172852;0.009766;1.595703;
892415;0.163086;0.014648;1.546875;
892635;0.147461;0.006836;1.478516;
892843;0.125977;0.022461;1.375977;
893050;0.105469;0.025391;1.254883;
893260;0.076172;0.014648;1.058594;
893490;0.050781;0.015625;0.875000;
893720;0.038086;0.018555;0.713867;
893945;0.016602;0.012695;0.542969;
894165;-0.003906;0.010742;0.377930;
894385;0.011719;0.000000;0.295898;
894605;0.001953;-0.003906;0.193359;
894825;0.008789;0.008789;0.131836;
895045;0.006836;0.008789;0.064453;
895265;0.000977;0.015625;0.027344;
895485;0.000977;0.018555;-0.003906;
895705;-0.000977;0.022461;-0.019531;
895925;0.000000;0.031250;-0.002930;
896145;-0.001953;0.031250;-0.005859;
896365;-0.005859;0.028320;-0.017578;
896585;-0.005859;0.030273;-0.026367;
896791;-0.006836;0.031250;-0.004883;
897000;-0.006836;0.034180;-0.004883;
897210;-0.009766;0.033203;0.002930;
897430;-0.009766;0.033203;0.000000;
897661;-0.005859;0.033203;0.009766;
897885;-0.007812;0.032227;0.014648;
898105;-0.005859;0.030273;0.027344;
898325;-0.006836;0.032227;0.017578;
898545;-0.006836;0.034180;0.018555;
898765;-0.007812;0.036133;0.025391;
898975;-0.012695;0.032227;0.016602;
899195;-0.005859;0.041016;0.048828;
899415;-0.009766;0.029297;0.026367;
899635;-0.012695;0.031250;0.024414;
899855;-0.011719;0.035156;0.032227;
900075;-0.011719;0.032227;0.032227;
900295;-0.011719;0.034180;0.017578;
900515;-0.014648;0.033203;0.017578;
900735;-0.014648;0.034180;0.017578;
900950;-0.014648;0.037109;0.004883;
901171;-0.014648;0.030273;0.012695;
901400;-0.011719;0.035156;0.017578;
901615;-0.012695;0.035156;0.014648;
901820;-0.011719;0.033203;0.020508;
902041;-0.011719;0.032227;0.018555;
902275;-0.016602;0.032227;0.014648;
902495;-0.011719;0.032227;0.022461;
902715;-0.014648;0.033203;0.023438;
902935;-0.012695;0.032227;0.035156;
903155;-0.014648;0.033203;0.032227;
903375;-0.011719;0.030273;0.033203;
903595;-0.017578;0.036133;0.034180;
903805;-0.017578;0.032227;0.030273;
904025;-0.014648;0.035156;0.037109;
904245;-0.013672;0.030273;0.033203;
904475;-0.015625;0.037109;0.035156;
904695;-0.014648;0.031250;0.026367;
904915;-0.014648;0.031250;0.028320;
905120;-0.013672;0.033203;0.030273;
905332;-0.015625;0.036133;0.025391;
905624;-0.014648;0.027344;0.013672;
905855;-0.013672;0.029297;0.018555;
906070;-0.015625;0.030273;0.021484;
906290;-0.012695;0.027344;0.020508;
906511;-0.016602;0.033203;0.013672;
906730;-0.021484;0.028320;0.000000;
906945;-0.015625;0.033203;0.004883;
907165;-0.015625;0.034180;0.007812;
907385;-0.019531;0.030273;0.007812;
907605;-0.020508;0.030273;0.002930;
907825;-0.016602;0.027344;0.066406;
908045;-0.017578;0.032227;0.013672;
908255;-0.018555;0.031250;0.009766;
908475;-0.016602;0.029297;0.011719;
908685;-0.018555;0.034180;0.015625;
908905;-0.017578;0.031250;0.008789;
909125;-0.019531;0.031250;0.011719;
909345;-0.019531;0.028320;0.011719;
909565;-0.018555;0.029297;0.011719;
909785;-0.016602;0.031250;0.025391;
910000;-0.020508;0.030273;0.020508;
910220;-0.019531;0.026367;0.020508;
910440;-0.019531;0.031250;0.018555;
910650;-0.020508;0.031250;0.020508;
910865;-0.018555;0.029297;0.018555;
911070;-0.020508;0.029297;0.020508;
911290;-0.018555;0.027344;0.017578;
911505;-0.021484;0.031250;0.009766;
911715;-0.021484;0.027344;0.000000;
911935;-0.020508;0.025391;-0.001953;
912155;-0.020508;0.028320;-0.008789;
912365;-0.022461;0.026367;-0.014648;
912585;-0.021484;0.027344;-0.016602;
912790;-0.024414;0.027344;-0.017578;
913015;-0.022461;0.027344;-0.007812;
913225;-0.024414;0.028320;-0.009766;
913445;-0.023438;0.028320;0.000977;
913665;-0.025391;0.032227;0.004883;
913885;-0.024414;0.032227;0.010742;
914105;-0.026367;0.036133;0.007812;
914325;-0.024414;0.037109;0.018555;
914540;-0.024414;0.031250;0.022461;
914760;-0.027344;0.032227;0.020508;
914975;-0.028320;0.028320;0.012695;
915190;-0.029297;0.028320;0.016602;
915415;-0.029297;0.029297;0.020508;
915630;-0.031250;0.030273;0.005859;
915850;-0.032227;0.032227;-0.000977;
916065;-0.032227;0.030273;0.000977;
916285;-0.033203;0.032227;-0.006836;
916505;-0.029297;0.031250;-0.013672;
916725;-0.032227;0.028320;-0.007812;
916945;-0.034180;0.033203;-0.000977;
917165;-0.034180;0.029297;-0.003906;
917385;-0.035156;0.030273;0.001953;
917605;-0.036133;0.037109;0.008789;
917825;-0.037109;0.036133;0.019531;
918045;-0.039062;0.026367;0.034180;
918255;-0.040039;0.022461;0.040039;
918475;-0.041016;0.028320;0.038086;
918695;-0.041992;0.026367;0.035156;
918915;-0.045898;0.038086;0.032227;
919133;-0.041992;0.035156;0.064453;
919341;-0.051758;0.024414;0.158203;
919551;-0.048828;0.031250;0.280273;
919760;-0.042969;0.035156;0.428711;
919980;-0.028320;0.045898;0.628906;
920200;-0.016602;0.054688;0.814453;
920425;0.000000;0.058594;1.046875;
920635;0.008789;0.053711;1.218750;
920855;0.024414;0.052734;1.381836;
921075;0.039062;0.048828;1.491211;
921295;0.048828;0.047852;1.584961;
921515;0.055664;0.038086;1.631836;
921725;0.064453;0.049805;1.688477;
921945;0.067383;0.043945;1.730469;
922165;0.068359;0.050781;1.772461;
922385;0.058594;0.049805;1.801758;
922605;0.059570;0.020508;1.800781;
922825;0.059570;0.045898;1.831055;
923045;0.051758;0.041016;1.754883;
923265;0.050781;0.030273;1.773438;
923480;0.052734;0.006836;1.760742;
923700;0.053711;0.000000;1.783203;
923910;0.049805;0.007812;1.776367;
924122;0.054688;0.015625;1.812500;
924330;0.051758;0.006836;1.831055;
924555;0.045898;0.009766;1.860352;
924775;0.050781;0.018555;1.872070;
924995;0.045898;0.029297;1.886719;
925215;0.046875;0.023438;1.898438;
925435;0.045898;0.018555;1.910156;
925655;0.044922;0.028320;1.919922;
925865;0.042969;0.035156;1.938477;
926085;0.036133;0.027344;1.917969;
926305;0.033203;0.040039;1.909180;
926515;0.030273;0.035156;1.896484;
926735;0.023438;0.027344;1.859375;
926955;0.023438;0.026367;1.853516;
927175;0.018555;0.014648;1.842773;
927390;0.016602;0.014648;1.834961;
927611;0.013672;0.017578;1.834961;
927830;0.010742;0.008789;1.823242;
928040;0.010742;0.021484;1.828125;
928260;0.005859;0.017578;1.834961;
928485;0.007812;0.019531;1.834961;
928705;0.004883;0.018555;1.847656;
928925;0.002930;0.019531;1.860352;
929145;0.003906;0.020508;1.857422;
929365;0.002930;0.008789;1.886719;
929575;-0.000977;0.016602;1.894531;
929795;0.000000;0.016602;1.907227;
930015;-0.000977;0.011719;1.911133;
930235;-0.002930;0.020508;1.916016;
930455;-0.001953;0.029297;1.927734;
930665;-0.002930;0.028320;1.923828;
930885;-0.002930;0.026367;1.929688;
931105;-0.005859;0.025391;1.935547;
931325;-0.006836;0.022461;1.926758;
931540;-0.008789;0.020508;1.912109;
931750;-0.005859;0.011719;1.904297;
931980;-0.010742;0.010742;1.911133;
932201;-0.009766;0.009766;1.901367;
932415;-0.011719;0.014648;1.914062;
932635;-0.010742;0.015625;1.915039;
932855;-0.014648;0.014648;1.907227;
933075;-0.013672;0.009766;1.895508;
933285;-0.015625;0.019531;1.900391;
933505;-0.018555;0.024414;1.886719;
933725;-0.018555;0.029297;1.891602;
933935;-0.024414;0.024414;1.885742;
934155;-0.022461;0.014648;1.889648;
934365;-0.021484;0.014648;1.890625;
934585;-0.023438;0.016602;1.873047;
934805;-0.022461;0.014648;1.867188;
935025;-0.022461;0.019531;1.878906;
935245;-0.023438;0.017578;1.870117;
935450;-0.021484;0.023438;1.871094;
935660;-0.023438;0.028320;1.858398;
935881;-0.018555;0.018555;1.868164;
936110;-0.013672;0.019531;1.857422;
936325;-0.006836;0.016602;1.879883;
936535;-0.000977;0.019531;1.882812;
936755;0.004883;0.017578;1.891602;
936975;0.017578;0.019531;1.917969;
937195;0.024414;0.015625;1.925781;
937415;0.038086;0.012695;1.929688;
937635;0.052734;0.021484;1.964844;
937845;0.056641;0.025391;1.974609;
938065;0.063477;0.033203;2.002930;
938285;0.068359;0.031250;2.020508;
938495;0.074219;0.021484;2.035156;
938715;0.073242;0.025391;2.047852;
938935;0.080078;0.020508;2.054688;
939155;0.080078;0.020508;2.060547;
939370;0.085938;0.011719;2.055664;
939590;0.083008;0.017578;2.061523;
939812;0.082031;0.017578;2.060547;
940020;0.080078;0.014648;2.033203;
940240;0.078125;0.017578;2.023438;
940465;0.073242;0.022461;1.982422;
940685;0.069336;0.020508;1.920898;
940905;0.065430;0.021484;1.850586;
941125;0.057617;0.027344;1.783203;
941345;0.051758;0.019531;1.691406;
941565;0.048828;0.023438;1.634766;
941785;0.048828;0.019531;1.589844;
942005;0.044922;0.021484;1.541992;
942225;0.040039;0.025391;1.537109;
942445;0.041992;0.026367;1.530273;
942665;0.042969;0.031250;1.539062;
942875;0.043945;0.036133;1.562500;
943095;0.048828;0.028320;1.571289;
943310;0.047852;0.024414;1.559570;
943531;0.046875;0.024414;1.539062;
943760;0.045898;0.028320;1.507812;
943975;0.043945;0.026367;1.463867;
944190;0.041016;0.019531;1.416016;
944410;0.041016;0.016602;1.389648;
944610;0.037109;0.016602;1.361328;
944825;0.039062;0.014648;1.332031;
945045;0.034180;0.018555;1.298828;
945265;0.029297;0.016602;1.279297;
945485;0.034180;0.024414;1.270508;
945705;0.033203;0.030273;1.252930;
945925;0.032227;0.030273;1.256836;
946145;0.036133;0.027344;1.278320;
946365;0.037109;0.023438;1.269531;
946585;0.034180;0.021484;1.291992;
946805;0.035156;0.027344;1.285156;
947025;0.037109;0.020508;1.272461;
947245;0.034180;0.032227;1.260742;
947465;0.034180;0.025391;1.242188;
947675;0.035156;0.028320;1.221680;
947880;0.035156;0.028320;1.217773;
948090;0.033203;0.024414;1.200195;
948310;0.032227;0.024414;1.190430;
948525;0.032227;0.023438;1.187500;
948730;0.032227;0.015625;1.186523;
948940;0.035156;0.017578;1.171875;
949155;0.033203;0.020508;1.151367;
949375;0.031250;0.025391;1.113281;
949595;0.030273;0.030273;1.066406;
949815;0.028320;0.033203;1.019531;
950035;0.026367;0.036133;0.999023;
950255;0.025391;0.028320;0.986328;
950475;0.026367;0.025391;0.991211;
950695;0.028320;0.027344;1.015625;
950915;0.034180;0.023438;1.027344;
951135;0.048828;0.028320;1.042969;
951355;0.062500;0.025391;1.056641;
951575;0.067383;0.022461;1.054688;
951795;0.069336;0.023438;1.059570;
952005;0.068359;0.021484;1.071289;
952220;0.065430;0.026367;1.055664;
952430;0.061523;0.019531;1.036133;
952640;0.063477;0.033203;0.994141;
952860;0.057617;0.031250;0.952148;
953075;0.057617;0.028320;0.928711;
953285;0.055664;0.029297;0.906250;
953505;0.057617;0.037109;0.897461;
953725;0.055664;0.032227;0.889648;
953935;0.056641;0.038086;0.892578;
954145;0.057617;0.035156;0.894531;
954365;0.058594;0.025391;0.904297;
954585;0.059570;0.023438;0.917969;
954795;0.058594;0.021484;0.923828;
955015;0.061523;0.023438;0.927734;
955235;0.061523;0.023438;0.934570;
955455;0.062500;0.023438;0.930664;
955675;0.063477;0.028320;0.932617;
955895;0.062500;0.035156;0.922852;
956111;0.063477;0.029297;0.919922;
956330;0.060547;0.026367;0.924805;
956540;0.062500;0.028320;0.928711;
956750;0.064453;0.029297;0.935547;
956975;0.062500;0.029297;0.942383;
957190;0.062500;0.030273;0.931641;
957401;0.061523;0.030273;0.925781;
957615;0.063477;0.025391;0.918945;
957835;0.061523;0.026367;0.877930;
958055;0.060547;0.023438;0.855469;
958275;0.059570;0.028320;0.853516;
958495;0.057617;0.017578;0.845703;
958715;0.062500;0.025391;0.870117;
958935;0.062500;0.024414;0.877930;
959155;0.062500;0.024414;0.894531;
959375;0.063477;0.025391;0.916016;
959585;0.066406;0.022461;0.906250;
959805;0.064453;0.023438;0.914062;
960025;0.067383;0.024414;0.914062;
960245;0.065430;0.025391;0.914062;
960465;0.068359;0.023438;0.919922;
960680;0.065430;0.026367;0.930664;
960900;0.066406;0.027344;0.925781;
961120;0.067383;0.026367;0.933594;
961340;0.067383;0.033203;0.927734;
961565;0.066406;0.026367;0.926758;
961785;0.067383;0.030273;0.933594;
962005;0.065430;0.027344;0.921875;
962225;0.066406;0.026367;0.933594;
962445;0.067383;0.027344;0.928711;
962665;0.067383;0.020508;0.916992;
962875;0.067383;0.025391;0.926758;
963095;0.069336;0.025391;0.924805;
963315;0.068359;0.027344;0.919922;
963535;0.067383;0.023438;0.920898;
963755;0.066406;0.029297;0.899414;
963975;0.064453;0.025391;0.900391;
964195;0.065430;0.025391;0.901367;
964415;0.066406;0.026367;0.888672;
964630;0.067383;0.028320;0.907227;
964850;0.065430;0.023438;0.906250;
965061;0.066406;0.024414;0.888672;
965270;0.068359;0.022461;0.891602;
965485;0.068359;0.024414;0.902344;
965695;0.066406;0.025391;0.891602;
965915;0.069336;0.025391;0.901367;
966135;0.067383;0.025391;0.889648;
966355;0.066406;0.024414;0.893555;
966575;0.064453;0.023438;0.888672;
966795;0.068359;0.025391;0.884766;
967015;0.064453;0.025391;0.883789;
967235;0.065430;0.025391;0.890625;
967445;0.065430;0.023438;0.882812;
967665;0.067383;0.022461;0.903320;
967885;0.066406;0.023438;0.893555;
968105;0.067383;0.027344;0.896484;
968325;0.064453;0.027344;0.887695;
968540;0.067383;0.021484;0.878906;
968750;0.066406;0.027344;0.866211;
968970;0.067383;0.024414;0.852539;
969180;0.062500;0.024414;0.827148;
969395;0.065430;0.028320;0.826172;
969605;0.064453;0.025391;0.815430;
969825;0.060547;0.024414;0.796875;
970045;0.064453;0.029297;0.808594;
970265;0.062500;0.027344;0.808594;
970485;0.063477;0.024414;0.830078;
970695;0.062500;0.023438;0.844727;
970915;0.064453;0.025391;0.866211;
971135;0.064453;0.021484;0.878906;
971355;0.066406;0.025391;0.893555;
971575;0.067383;0.029297;0.908203;
971795;0.067383;0.024414;0.904297;
972015;0.067383;0.029297;0.908203;
972235;0.071289;0.027344;0.877930;
972450;0.067383;0.034180;0.873047;
972660;0.064453;0.023438;0.851562;
972882;0.066406;0.024414;0.862305;
973090;0.065430;0.024414;0.886719;
973315;0.068359;0.024414;0.904297;
973525;0.068359;0.023438;0.934570;
973745;0.067383;0.023438;0.956055;
973965;0.067383;0.022461;0.970703;
974185;0.069336;0.023438;0.988281;
974405;0.075195;0.021484;0.998047;
974625;0.076172;0.024414;1.000977;
974845;0.069336;0.023438;0.993164;
975065;0.071289;0.021484;0.990234;
975285;0.069336;0.026367;0.962891;
975505;0.067383;0.029297;0.966797;
975725;0.068359;0.022461;0.951172;
975945;0.066406;0.021484;0.929688;
976160;0.067383;0.017578;0.936523;
976380;0.066406;0.014648;0.930664;
976590;0.065430;0.022461;0.950195;
976800;0.072266;0.026367;0.970703;
977010;0.067383;0.023438;0.983398;
977220;0.069336;0.025391;1.025391;
977445;0.073242;0.034180;1.042969;
977665;0.073242;0.025391;1.058594;
977885;0.076172;0.035156;1.079102;
978105;0.076172;0.031250;1.116211;
978325;0.076172;0.033203;1.135742;
978545;0.078125;0.030273;1.158203;
978755;0.081055;0.031250;1.166016;
978975;0.080078;0.027344;1.180664;
979195;0.081055;0.032227;1.192383;
979415;0.081055;0.028320;1.195312;
979635;0.080078;0.029297;1.193359;
979855;0.083008;0.026367;1.190430;
980075;0.081055;0.028320;1.187500;
980290;0.081055;0.032227;1.188477;
980500;0.082031;0.027344;1.180664;
