Time;acc_x;acc_y;acc_z;

2134;-0.037109;0.036133;1.027344;
2283;-0.037109;0.038086;1.030273;
2423;-0.037109;0.037109;1.029297;
2563;-0.037109;0.036133;1.026367;
2704;-0.036133;0.037109;1.027344;
2844;-0.036133;0.037109;1.030273;
2984;-0.039062;0.037109;1.031250;
3124;-0.038086;0.036133;1.028320;
3264;-0.036133;0.037109;1.028320;
3403;-0.036133;0.038086;1.032227;
3544;-0.037109;0.036133;1.029297;
3684;-0.039062;0.035156;1.028320;
3824;-0.037109;0.037109;1.029297;
3964;-0.037109;0.037109;1.029297;
4104;-0.035156;0.037109;1.029297;
4244;-0.037109;0.035156;1.028320;
4384;-0.037109;0.035156;1.030273;
4523;-0.035156;0.036133;1.030273;
4659;-0.035156;0.036133;1.032227;
4800;-0.036133;0.036133;1.028320;
4939;-0.036133;0.038086;1.030273;
5079;-0.036133;0.036133;1.031250;
5219;-0.035156;0.038086;1.030273;
5370;-0.035156;0.038086;1.027344;
5514;-0.037109;0.036133;1.031250;
5650;-0.037109;0.036133;1.029297;
5794;-0.036133;0.036133;1.030273;
5954;-0.036133;0.037109;1.030273;
6094;-0.037109;0.036133;1.029297;
6233;-0.039062;0.036133;1.027344;
6373;-0.035156;0.037109;1.029297;
6514;-0.035156;0.037109;1.030273;
6654;-0.037109;0.037109;1.029297;
6804;-0.038086;0.037109;1.029297;
6944;-0.036133;0.035156;1.030273;
7084;-0.039062;0.036133;1.030273;
7224;-0.036133;0.037109;1.032227;
7364;-0.037109;0.037109;1.028320;
7503;-0.038086;0.036133;1.028320;
7644;-0.035156;0.035156;1.029297;
7794;-0.035156;0.036133;1.028320;
7934;-0.038086;0.037109;1.030273;
8079;-0.037109;0.037109;1.028320;
8209;-0.036133;0.035156;1.027344;
8339;-0.035156;0.036133;1.029297;
8469;-0.039062;0.036133;1.028320;
8609;-0.038086;0.037109;1.030273;
8759;-0.036133;0.037109;1.030273;
8909;-0.035156;0.035156;1.026367;
9063;-0.037109;0.037109;1.027344;
9204;-0.038086;0.036133;1.029297;
9344;-0.035156;0.035156;1.027344;
9484;-0.036133;0.036133;1.026367;
9624;-0.034180;0.035156;1.029297;
9763;-0.036133;0.036133;1.027344;
9904;-0.036133;0.036133;1.028320;
10043;-0.036133;0.035156;1.027344;
10183;-0.036133;0.036133;1.028320;
10324;-0.036133;0.036133;1.027344;
10463;-0.038086;0.036133;1.028320;
10604;-0.038086;0.035156;1.025391;
10744;-0.034180;0.036133;1.032227;
10884;-0.036133;0.035156;1.028320;
11019;-0.036133;0.036133;1.027344;
11159;-0.034180;0.037109;1.032227;
11309;-0.034180;0.037109;1.028320;
11449;-0.036133;0.037109;1.028320;
11599;-0.036133;0.037109;1.027344;
11739;-0.036133;0.037109;1.032227;
11894;-0.035156;0.036133;1.029297;
12034;-0.036133;0.036133;1.030273;
12173;-0.039062;0.035156;1.029297;
12313;-0.037109;0.036133;1.028320;
12454;-0.035156;0.037109;1.031250;
12594;-0.036133;0.039062;1.029297;
12733;-0.035156;0.037109;1.031250;
12873;-0.037109;0.038086;1.029297;
13014;-0.037109;0.037109;1.027344;
13164;-0.036133;0.036133;1.027344;
13303;-0.037109;0.037109;1.028320;
13444;-0.038086;0.037109;1.029297;
13584;-0.036133;0.036133;1.024414;
13723;-0.038086;0.038086;1.030273;
13859;-0.036133;0.037109;1.029297;
13989;-0.034180;0.036133;1.031250;
14131;-0.033203;0.037109;1.031250;
14281;-0.034180;0.036133;1.031250;
14424;-0.037109;0.037109;1.029297;
14549;-0.037109;0.038086;1.028320;
14704;-0.035156;0.037109;1.027344;
14831;-0.036133;0.035156;1.029297;
14979;-0.037109;0.039062;1.029297;
15119;-0.036133;0.037109;1.032227;
15264;-0.038086;0.037109;1.031250;
15403;-0.036133;0.038086;1.027344;
15543;-0.037109;0.037109;1.030273;
15683;-0.039062;0.036133;1.028320;
15824;-0.035156;0.036133;1.028320;
15963;-0.036133;0.038086;1.028320;
16104;-0.038086;0.036133;1.030273;
16254;-0.033203;0.037109;1.030273;
16393;-0.037109;0.036133;1.027344;
16533;-0.035156;0.035156;1.030273;
16673;-0.035156;0.036133;1.026367;
16814;-0.038086;0.037109;1.029297;
16964;-0.036133;0.036133;1.029297;
17103;-0.035156;0.037109;1.029297;
17239;-0.037109;0.038086;1.028320;
17370;-0.036133;0.037109;1.030273;
17510;-0.036133;0.039062;1.029297;
17650;-0.037109;0.036133;1.028320;
17799;-0.037109;0.038086;1.029297;
17940;-0.035156;0.036133;1.030273;
18089;-0.037109;0.039062;1.029297;
18239;-0.034180;0.038086;1.031250;
18384;-0.035156;0.035156;1.030273;
18534;-0.036133;0.038086;1.029297;
18674;-0.037109;0.036133;1.027344;
18814;-0.036133;0.035156;1.026367;
18954;-0.038086;0.037109;1.030273;
19093;-0.037109;0.037109;1.029297;
19234;-0.037109;0.036133;1.029297;
19374;-0.038086;0.036133;1.027344;
19513;-0.037109;0.038086;1.030273;
19654;-0.036133;0.037109;1.028320;
19794;-0.035156;0.037109;1.029297;
19934;-0.035156;0.036133;1.030273;
20074;-0.036133;0.038086;1.027344;
20213;-0.035156;0.037109;1.035156;
20349;-0.036133;0.035156;1.030273;
20491;-0.036133;0.037109;1.031250;
20640;-0.036133;0.037109;1.031250;
20790;-0.038086;0.036133;1.024414;
20940;-0.036133;0.035156;1.029297;
21069;-0.034180;0.036133;1.031250;
21224;-0.035156;0.035156;1.030273;
21364;-0.036133;0.037109;1.029297;
21504;-0.037109;0.037109;1.029297;
21643;-0.037109;0.037109;1.029297;
21783;-0.038086;0.036133;1.029297;
21923;-0.038086;0.037109;1.030273;
22064;-0.037109;0.035156;1.029297;
22213;-0.037109;0.036133;1.028320;
22353;-0.036133;0.037109;1.032227;
22494;-0.036133;0.036133;1.027344;
22634;-0.038086;0.034180;1.028320;
22773;-0.037109;0.037109;1.028320;
22913;-0.036133;0.037109;1.031250;
23053;-0.035156;0.036133;1.031250;
23189;-0.035156;0.036133;1.029297;
23319;-0.037109;0.038086;1.028320;
23459;-0.036133;0.037109;1.030273;
23599;-0.035156;0.037109;1.027344;
23739;-0.036133;0.037109;1.031250;
23889;-0.036133;0.036133;1.029297;
24039;-0.037109;0.038086;1.028320;
24169;-0.035156;0.036133;1.029297;
24299;-0.038086;0.038086;1.029297;
24434;-0.035156;0.036133;1.031250;
24573;-0.037109;0.036133;1.028320;
24714;-0.033203;0.037109;1.027344;
24853;-0.036133;0.036133;1.028320;
24994;-0.037109;0.037109;1.030273;
25133;-0.037109;0.037109;1.031250;
25274;-0.036133;0.035156;1.029297;
25414;-0.038086;0.037109;1.031250;
25554;-0.037109;0.037109;1.029297;
25693;-0.035156;0.037109;1.030273;
25833;-0.038086;0.037109;1.029297;
25983;-0.036133;0.037109;1.029297;
26123;-0.036133;0.037109;1.031250;
26263;-0.033203;0.038086;1.030273;
26399;-0.036133;0.037109;1.029297;
26539;-0.037109;0.037109;1.030273;
26669;-0.034180;0.036133;1.031250;
26799;-0.035156;0.038086;1.028320;
26940;-0.037109;0.037109;1.025391;
27079;-0.036133;0.035156;1.027344;
27229;-0.035156;0.038086;1.029297;
27379;-0.035156;0.038086;1.030273;
27514;-0.037109;0.037109;1.032227;
27664;-0.035156;0.036133;1.030273;
27804;-0.037109;0.038086;1.031250;
27944;-0.036133;0.036133;1.029297;
28084;-0.036133;0.037109;1.028320;
28223;-0.035156;0.037109;1.027344;
28364;-0.035156;0.036133;1.029297;
28504;-0.036133;0.037109;1.029297;
28644;-0.037109;0.037109;1.029297;
28783;-0.034180;0.037109;1.030273;
28933;-0.034180;0.037109;1.030273;
29074;-0.034180;0.037109;1.028320;
29214;-0.038086;0.037109;1.029297;
29354;-0.036133;0.035156;1.025391;
29489;-0.037109;0.037109;1.027344;
29640;-0.035156;0.036133;1.029297;
29769;-0.036133;0.036133;1.030273;
29920;-0.038086;0.037109;1.028320;
30061;-0.036133;0.037109;1.029297;
30209;-0.037109;0.036133;1.032227;
30359;-0.035156;0.034180;1.029297;
30503;-0.036133;0.035156;1.027344;
30644;-0.035156;0.037109;1.029297;
30793;-0.037109;0.035156;1.029297;
30933;-0.035156;0.037109;1.028320;
31074;-0.037109;0.036133;1.026367;
31213;-0.036133;0.036133;1.029297;
31354;-0.037109;0.035156;1.028320;
31493;-0.036133;0.037109;1.030273;
31634;-0.036133;0.035156;1.029297;
31774;-0.037109;0.035156;1.029297;
31914;-0.036133;0.037109;1.028320;
32053;-0.036133;0.037109;1.028320;
32194;-0.037109;0.036133;1.029297;
32334;-0.038086;0.036133;1.029297;
32469;-0.037109;0.036133;1.031250;
32620;-0.038086;0.035156;1.027344;
32759;-0.036133;0.038086;1.029297;
32914;-0.038086;0.037109;1.027344;
33059;-0.037109;0.038086;1.029297;
33189;-0.035156;0.037109;1.028320;
33324;-0.036133;0.035156;1.027344;
33463;-0.036133;0.036133;1.030273;
33589;-0.035156;0.037109;1.031250;
33719;-0.036133;0.036133;1.029297;
33854;-0.036133;0.037109;1.029297;
33994;-0.035156;0.036133;1.029297;
34133;-0.035156;0.036133;1.030273;
34273;-0.036133;0.036133;1.029297;
34413;-0.035156;0.036133;1.029297;
34553;-0.036133;0.037109;1.029297;
34704;-0.036133;0.037109;1.030273;
34844;-0.034180;0.037109;1.028320;
34983;-0.036133;0.035156;1.029297;
35134;-0.037109;0.036133;1.030273;
35273;-0.035156;0.036133;1.029297;
35413;-0.036133;0.036133;1.029297;
35563;-0.035156;0.035156;1.029297;
35703;-0.035156;0.037109;1.029297;
35839;-0.035156;0.036133;1.030273;
35993;-0.036133;0.037109;1.029297;
36140;-0.037109;0.036133;1.029297;
36279;-0.036133;0.036133;1.029297;
36419;-0.035156;0.036133;1.030273;
36569;-0.036133;0.037109;1.029297;
36709;-0.034180;0.035156;1.030273;
36839;-0.036133;0.035156;1.028320;
36979;-0.036133;0.037109;1.029297;
37134;-0.037109;0.036133;1.030273;
37284;-0.036133;0.037109;1.029297;
37424;-0.036133;0.034180;1.029297;
37564;-0.035156;0.037109;1.029297;
37703;-0.037109;0.036133;1.029297;
37844;-0.035156;0.035156;1.029297;
37983;-0.036133;0.037109;1.028320;
38123;-0.036133;0.036133;1.030273;
38273;-0.036133;0.036133;1.030273;
38413;-0.035156;0.036133;1.029297;
38554;-0.035156;0.036133;1.029297;
38704;-0.037109;0.036133;1.029297;
38844;-0.036133;0.036133;1.028320;
38993;-0.034180;0.036133;1.029297;
39130;-0.036133;0.036133;1.029297;
39269;-0.036133;0.037109;1.032227;
39419;-0.036133;0.037109;1.029297;
39559;-0.034180;0.037109;1.030273;
39699;-0.036133;0.037109;1.029297;
39829;-0.035156;0.036133;1.029297;
39972;-0.036133;0.039062;1.029297;
40109;-0.034180;0.037109;1.031250;
40254;-0.036133;0.035156;1.030273;
40404;-0.035156;0.037109;1.030273;
40544;-0.035156;0.036133;1.030273;
40683;-0.035156;0.037109;1.029297;
40823;-0.036133;0.037109;1.029297;
40964;-0.036133;0.035156;1.028320;
41103;-0.035156;0.035156;1.029297;
41253;-0.036133;0.035156;1.028320;
41394;-0.035156;0.036133;1.029297;
41534;-0.036133;0.036133;1.028320;
41683;-0.036133;0.037109;1.029297;
41823;-0.035156;0.037109;1.030273;
41963;-0.035156;0.038086;1.030273;
42103;-0.036133;0.036133;1.029297;
42243;-0.035156;0.035156;1.029297;
42379;-0.034180;0.037109;1.031250;
42519;-0.035156;0.036133;1.030273;
42659;-0.036133;0.037109;1.029297;
42789;-0.036133;0.036133;1.029297;
42939;-0.036133;0.037109;1.029297;
43070;-0.037109;0.036133;1.029297;
43209;-0.035156;0.036133;1.030273;
43349;-0.036133;0.035156;1.028320;
43484;-0.035156;0.037109;1.030273;
43623;-0.035156;0.037109;1.029297;
43763;-0.034180;0.039062;1.030273;
43913;-0.035156;0.036133;1.029297;
44053;-0.036133;0.037109;1.028320;
44194;-0.035156;0.037109;1.029297;
44344;-0.036133;0.036133;1.029297;
44484;-0.036133;0.035156;1.029297;
44624;-0.036133;0.037109;1.030273;
44764;-0.036133;0.037109;1.030273;
44903;-0.035156;0.037109;1.030273;
45044;-0.035156;0.037109;1.030273;
45193;-0.034180;0.037109;1.030273;
45334;-0.036133;0.036133;1.029297;
45469;-0.036133;0.037109;1.029297;
45619;-0.037109;0.036133;1.030273;
45749;-0.036133;0.036133;1.028320;
45884;-0.035156;0.038086;1.030273;
46020;-0.035156;0.038086;1.030273;
46159;-0.036133;0.036133;1.029297;
46309;-0.035156;0.037109;1.029297;
46459;-0.036133;0.035156;1.029297;
46611;-0.036133;0.038086;1.029297;
46749;-0.037109;0.036133;1.029297;
46904;-0.036133;0.037109;1.030273;
47054;-0.036133;0.037109;1.029297;
47194;-0.036133;0.036133;1.029297;
47333;-0.036133;0.037109;1.029297;
47474;-0.036133;0.036133;1.028320;
47614;-0.037109;0.036133;1.029297;
47754;-0.035156;0.038086;1.029297;
47894;-0.036133;0.036133;1.029297;
48034;-0.036133;0.036133;1.028320;
48174;-0.036133;0.037109;1.028320;
48313;-0.036133;0.036133;1.031250;
48454;-0.035156;0.036133;1.029297;
48604;-0.037109;0.035156;1.030273;
48744;-0.036133;0.035156;1.030273;
48889;-0.036133;0.037109;1.030273;
49039;-0.035156;0.037109;1.029297;
49179;-0.036133;0.037109;1.030273;
49329;-0.035156;0.038086;1.029297;
49480;-0.035156;0.036133;1.030273;
49619;-0.036133;0.035156;1.030273;
49764;-0.036133;0.035156;1.030273;
49904;-0.035156;0.036133;1.029297;
50044;-0.035156;0.037109;1.029297;
50184;-0.036133;0.036133;1.030273;
50324;-0.036133;0.036133;1.029297;
50473;-0.036133;0.036133;1.030273;
50614;-0.036133;0.035156;1.029297;
50754;-0.035156;0.037109;1.031250;
50904;-0.035156;0.037109;1.029297;
51044;-0.035156;0.037109;1.028320;
51194;-0.035156;0.036133;1.029297;
51334;-0.036133;0.038086;1.030273;
51474;-0.036133;0.038086;1.029297;
51624;-0.034180;0.037109;1.030273;
51760;-0.036133;0.037109;1.029297;
51909;-0.036133;0.037109;1.029297;
52059;-0.036133;0.035156;1.029297;
52201;-0.036133;0.035156;1.030273;
52349;-0.036133;0.036133;1.028320;
52490;-0.036133;0.038086;1.030273;
52633;-0.037109;0.035156;1.030273;
52759;-0.035156;0.036133;1.029297;
52899;-0.035156;0.036133;1.029297;
53049;-0.036133;0.037109;1.030273;
53194;-0.035156;0.037109;1.030273;
53343;-0.036133;0.036133;1.029297;
53484;-0.036133;0.037109;1.030273;
53624;-0.036133;0.036133;1.031250;
53764;-0.035156;0.035156;1.030273;
53904;-0.035156;0.037109;1.029297;
54044;-0.035156;0.036133;1.029297;
54183;-0.037109;0.036133;1.031250;
54323;-0.035156;0.037109;1.030273;
54464;-0.036133;0.037109;1.030273;
54604;-0.036133;0.038086;1.030273;
54743;-0.036133;0.037109;1.029297;
54884;-0.036133;0.036133;1.028320;
55024;-0.036133;0.035156;1.030273;
55160;-0.036133;0.037109;1.030273;
55289;-0.036133;0.037109;1.029297;
55439;-0.036133;0.036133;1.029297;
55579;-0.036133;0.036133;1.029297;
55719;-0.037109;0.036133;1.030273;
55859;-0.037109;0.037109;1.030273;
55999;-0.036133;0.037109;1.029297;
56149;-0.037109;0.037109;1.028320;
56294;-0.036133;0.035156;1.030273;
56444;-0.035156;0.035156;1.029297;
56584;-0.036133;0.036133;1.029297;
56723;-0.036133;0.037109;1.030273;
56873;-0.035156;0.038086;1.030273;
57014;-0.035156;0.037109;1.029297;
57153;-0.036133;0.036133;1.029297;
57294;-0.034180;0.038086;1.030273;
57434;-0.035156;0.036133;1.030273;
57573;-0.036133;0.036133;1.029297;
57714;-0.035156;0.036133;1.029297;
57854;-0.035156;0.037109;1.029297;
57993;-0.037109;0.036133;1.029297;
58133;-0.035156;0.035156;1.030273;
58269;-0.036133;0.037109;1.030273;
58419;-0.035156;0.036133;1.030273;
58559;-0.037109;0.036133;1.030273;
58709;-0.036133;0.037109;1.030273;
58864;-0.036133;0.036133;1.029297;
58999;-0.036133;0.038086;1.029297;
59133;-0.037109;0.037109;1.030273;
59273;-0.036133;0.038086;1.029297;
59409;-0.035156;0.038086;1.030273;
59549;-0.035156;0.036133;1.030273;
59699;-0.036133;0.036133;1.029297;
59849;-0.035156;0.037109;1.029297;
59994;-0.035156;0.035156;1.031250;
60134;-0.035156;0.037109;1.030273;
60273;-0.037109;0.036133;1.030273;
60414;-0.035156;0.037109;1.030273;
60554;-0.034180;0.034180;1.029297;
60694;-0.036133;0.037109;1.030273;
60834;-0.036133;0.036133;1.031250;
60974;-0.036133;0.036133;1.029297;
61114;-0.036133;0.037109;1.030273;
61254;-0.036133;0.036133;1.031250;
61394;-0.035156;0.036133;1.029297;
61534;-0.035156;0.037109;1.030273;
61674;-0.037109;0.036133;1.028320;
61813;-0.035156;0.038086;1.030273;
61949;-0.035156;0.037109;1.030273;
62094;-0.036133;0.036133;1.029297;
62234;-0.035156;0.036133;1.030273;
62369;-0.036133;0.037109;1.031250;
62504;-0.035156;0.037109;1.030273;
62639;-0.036133;0.037109;1.030273;
62780;-0.034180;0.036133;1.030273;
62909;-0.036133;0.038086;1.030273;
63049;-0.038086;0.038086;1.024414;
63189;-0.038086;0.038086;1.026367;
63339;-0.035156;0.036133;1.030273;
63479;-0.036133;0.037109;1.026367;
63619;-0.035156;0.036133;1.028320;
63749;-0.035156;0.039062;1.022461;
63894;-0.035156;0.035156;1.027344;
64034;-0.032227;0.039062;1.028320;
64184;-0.033203;0.035156;1.028320;
64323;-0.031250;0.035156;1.016602;
64463;-0.031250;0.036133;1.035156;
64613;-0.033203;0.034180;1.031250;
64754;-0.036133;0.037109;1.029297;
64894;-0.035156;0.037109;1.030273;
65034;-0.035156;0.037109;1.028320;
65174;-0.036133;0.037109;1.030273;
65304;-0.036133;0.035156;1.030273;
65454;-0.036133;0.035156;1.034180;
65594;-0.036133;0.035156;1.031250;
65734;-0.036133;0.037109;1.037109;
65879;-0.034180;0.037109;1.035156;
66019;-0.035156;0.036133;1.036133;
66169;-0.036133;0.037109;1.035156;
66319;-0.034180;0.037109;1.033203;
66469;-0.035156;0.037109;1.034180;
66609;-0.036133;0.037109;1.030273;
66761;-0.035156;0.039062;1.032227;
66909;-0.037109;0.035156;1.027344;
67054;-0.035156;0.037109;1.031250;
67204;-0.037109;0.036133;1.031250;
67344;-0.037109;0.036133;1.027344;
67483;-0.036133;0.037109;1.031250;
67633;-0.036133;0.037109;1.028320;
67774;-0.037109;0.037109;1.030273;
67899;-0.037109;0.035156;1.030273;
68043;-0.034180;0.037109;1.032227;
68184;-0.036133;0.036133;1.027344;
68324;-0.035156;0.037109;1.029297;
68464;-0.037109;0.036133;1.028320;
68604;-0.037109;0.037109;1.027344;
68744;-0.037109;0.036133;1.026367;
68883;-0.036133;0.036133;1.031250;
69009;-0.038086;0.037109;1.030273;
69149;-0.035156;0.039062;1.032227;
69279;-0.039062;0.037109;1.027344;
69429;-0.039062;0.037109;1.029297;
69579;-0.041016;0.041016;1.029297;
69709;-0.039062;0.037109;1.029297;
69839;-0.037109;0.040039;1.038086;
69979;-0.059570;0.028320;0.975586;
70114;-0.036133;0.030273;1.014648;
70254;-0.035156;0.037109;1.031250;
70394;-0.036133;0.037109;1.027344;
70534;-0.036133;0.037109;1.032227;
70674;-0.035156;0.037109;1.030273;
70824;-0.037109;0.036133;1.029297;
70964;-0.036133;0.037109;1.028320;
71104;-0.033203;0.038086;1.037109;
71254;-0.037109;0.035156;1.029297;
71394;-0.036133;0.037109;1.024414;
71534;-0.036133;0.035156;1.025391;
71669;-0.038086;0.035156;1.025391;
71814;-0.036133;0.037109;1.025391;
71954;-0.037109;0.036133;1.026367;
72090;-0.037109;0.035156;1.027344;
72239;-0.037109;0.035156;1.027344;
72389;-0.037109;0.036133;1.027344;
72530;-0.035156;0.036133;1.027344;
72669;-0.034180;0.037109;1.027344;
72799;-0.035156;0.037109;1.030273;
72930;-0.036133;0.036133;1.028320;
73069;-0.036133;0.038086;1.031250;
73199;-0.036133;0.035156;1.031250;
73339;-0.037109;0.037109;1.030273;
73479;-0.036133;0.036133;1.029297;
73624;-0.035156;0.037109;1.030273;
73764;-0.036133;0.037109;1.030273;
73904;-0.036133;0.036133;1.031250;
74043;-0.036133;0.037109;1.031250;
74183;-0.036133;0.037109;1.030273;
74324;-0.035156;0.037109;1.029297;
74464;-0.035156;0.036133;1.030273;
74604;-0.036133;0.036133;1.028320;
74744;-0.035156;0.036133;1.031250;
74884;-0.036133;0.037109;1.029297;
75024;-0.035156;0.038086;1.031250;
75164;-0.035156;0.037109;1.028320;
75313;-0.036133;0.036133;1.030273;
75453;-0.036133;0.037109;1.028320;
75589;-0.037109;0.037109;1.029297;
75730;-0.035156;0.036133;1.031250;
75859;-0.035156;0.039062;1.031250;
75994;-0.036133;0.037109;1.030273;
76134;-0.036133;0.036133;1.030273;
76269;-0.036133;0.037109;1.030273;
76409;-0.035156;0.035156;1.029297;
76549;-0.035156;0.037109;1.031250;
76690;-0.036133;0.039062;1.029297;
76820;-0.036133;0.037109;1.030273;
76960;-0.035156;0.038086;1.030273;
77114;-0.036133;0.037109;1.029297;
77254;-0.035156;0.038086;1.030273;
77394;-0.035156;0.037109;1.031250;
77534;-0.035156;0.036133;1.029297;
77674;-0.036133;0.035156;1.029297;
77824;-0.035156;0.036133;1.030273;
77964;-0.035156;0.037109;1.031250;
78104;-0.036133;0.037109;1.029297;
78254;-0.037109;0.035156;1.029297;
78394;-0.035156;0.037109;1.031250;
78534;-0.034180;0.037109;1.031250;
78674;-0.036133;0.035156;1.029297;
78814;-0.034180;0.037109;1.031250;
78954;-0.034180;0.036133;1.029297;
79089;-0.035156;0.036133;1.031250;
79229;-0.035156;0.039062;1.030273;
79379;-0.035156;0.037109;1.029297;
79529;-0.036133;0.037109;1.029297;
79679;-0.036133;0.036133;1.030273;
79809;-0.035156;0.034180;1.032227;
79950;-0.036133;0.036133;1.030273;
80089;-0.034180;0.039062;1.029297;
80233;-0.036133;0.038086;1.028320;
80369;-0.036133;0.036133;1.032227;
80499;-0.036133;0.037109;1.031250;
80639;-0.035156;0.036133;1.030273;
80794;-0.035156;0.035156;1.030273;
81004;-0.035156;0.037109;1.031250;
81224;-0.036133;0.036133;1.031250;
81444;-0.036133;0.036133;1.030273;
81663;-0.037109;0.036133;1.031250;
81884;-0.036133;0.036133;1.030273;
82104;-0.035156;0.035156;1.029297;
82324;-0.035156;0.036133;1.031250;
82543;-0.035156;0.038086;1.031250;
82764;-0.036133;0.037109;1.030273;
82983;-0.036133;0.036133;1.030273;
83204;-0.036133;0.036133;1.032227;
83424;-0.036133;0.037109;1.029297;
83644;-0.037109;0.038086;1.030273;
83849;-0.036133;0.038086;1.031250;
84070;-0.035156;0.037109;1.028320;
84299;-0.034180;0.038086;1.031250;
84519;-0.037109;0.035156;1.030273;
84734;-0.034180;0.039062;1.029297;
84953;-0.036133;0.035156;1.028320;
85173;-0.035156;0.036133;1.031250;
85393;-0.035156;0.037109;1.029297;
85614;-0.035156;0.038086;1.029297;
85834;-0.036133;0.037109;1.029297;
86054;-0.035156;0.036133;1.031250;
86274;-0.036133;0.036133;1.028320;
86493;-0.035156;0.036133;1.031250;
86713;-0.035156;0.038086;1.029297;
86934;-0.035156;0.037109;1.031250;
87153;-0.035156;0.038086;1.033203;
87374;-0.036133;0.035156;1.030273;
87589;-0.035156;0.036133;1.029297;
87799;-0.036133;0.035156;1.030273;
88019;-0.035156;0.037109;1.029297;
88239;-0.036133;0.035156;1.031250;
88459;-0.033203;0.037109;1.031250;
88684;-0.035156;0.037109;1.032227;
88903;-0.037109;0.036133;1.029297;
89124;-0.036133;0.037109;1.031250;
89344;-0.035156;0.039062;1.030273;
89564;-0.036133;0.034180;1.031250;
89784;-0.036133;0.036133;1.029297;
90004;-0.036133;0.037109;1.031250;
90223;-0.035156;0.037109;1.030273;
90444;-0.035156;0.037109;1.031250;
90663;-0.035156;0.038086;1.031250;
90884;-0.035156;0.037109;1.031250;
91104;-0.036133;0.037109;1.031250;
91323;-0.036133;0.036133;1.032227;
91544;-0.034180;0.038086;1.030273;
91759;-0.036133;0.037109;1.031250;
91980;-0.036133;0.037109;1.031250;
92199;-0.036133;0.035156;1.029297;
92419;-0.036133;0.036133;1.030273;
92643;-0.035156;0.036133;1.030273;
92864;-0.036133;0.036133;1.030273;
93084;-0.035156;0.036133;1.031250;
93314;-0.036133;0.035156;1.029297;
93534;-0.036133;0.034180;1.029297;
93754;-0.036133;0.036133;1.030273;
93974;-0.037109;0.035156;1.030273;
94194;-0.036133;0.036133;1.029297;
94414;-0.035156;0.038086;1.030273;
94634;-0.036133;0.037109;1.032227;
94854;-0.036133;0.036133;1.030273;
95074;-0.034180;0.038086;1.031250;
95294;-0.036133;0.036133;1.032227;
95513;-0.035156;0.036133;1.030273;
95729;-0.036133;0.035156;1.029297;
95939;-0.036133;0.036133;1.030273;
96159;-0.035156;0.036133;1.031250;
96379;-0.036133;0.036133;1.029297;
96594;-0.035156;0.038086;1.030273;
96814;-0.035156;0.036133;1.031250;
97034;-0.035156;0.036133;1.032227;
97254;-0.035156;0.036133;1.031250;
97474;-0.034180;0.037109;1.030273;
97693;-0.037109;0.036133;1.030273;
97909;-0.035156;0.037109;1.030273;
98134;-0.035156;0.036133;1.031250;
98354;-0.036133;0.036133;1.031250;
98574;-0.035156;0.036133;1.030273;
98794;-0.035156;0.038086;1.031250;
99014;-0.034180;0.038086;1.030273;
99234;-0.036133;0.036133;1.031250;
99453;-0.036133;0.037109;1.031250;
99659;-0.035156;0.036133;1.030273;
99891;-0.035156;0.036133;1.030273;
100119;-0.034180;0.038086;1.030273;
100329;-0.035156;0.037109;1.031250;
100564;-0.037109;0.036133;1.031250;
100784;-0.035156;0.037109;1.032227;
101004;-0.036133;0.037109;1.031250;
101223;-0.036133;0.036133;1.031250;
101444;-0.035156;0.036133;1.029297;
101663;-0.035156;0.035156;1.031250;
101884;-0.036133;0.037109;1.031250;
102103;-0.035156;0.037109;1.029297;
102323;-0.036133;0.036133;1.028320;
102543;-0.036133;0.034180;1.029297;
102764;-0.036133;0.038086;1.030273;
102984;-0.036133;0.036133;1.030273;
103204;-0.035156;0.037109;1.031250;
103423;-0.037109;0.037109;1.029297;
103649;-0.035156;0.036133;1.031250;
103869;-0.036133;0.036133;1.031250;
104079;-0.036133;0.034180;1.030273;
104299;-0.034180;0.038086;1.031250;
104524;-0.036133;0.035156;1.030273;
104744;-0.036133;0.037109;1.030273;
104963;-0.037109;0.036133;1.029297;
105184;-0.036133;0.037109;1.030273;
105404;-0.036133;0.037109;1.031250;
105623;-0.035156;0.037109;1.032227;
105844;-0.035156;0.036133;1.030273;
106063;-0.036133;0.035156;1.032227;
106284;-0.036133;0.037109;1.030273;
106499;-0.036133;0.036133;1.029297;
106723;-0.034180;0.037109;1.031250;
106943;-0.036133;0.036133;1.029297;
107164;-0.035156;0.038086;1.031250;
107384;-0.037109;0.035156;1.032227;
107599;-0.036133;0.035156;1.031250;
107819;-0.035156;0.035156;1.030273;
108049;-0.034180;0.037109;1.031250;
108259;-0.036133;0.035156;1.031250;
108484;-0.035156;0.036133;1.031250;
108704;-0.036133;0.036133;1.031250;
108924;-0.034180;0.038086;1.031250;
109144;-0.036133;0.036133;1.031250;
109364;-0.035156;0.037109;1.031250;
109584;-0.035156;0.036133;1.032227;
109803;-0.035156;0.038086;1.032227;
110024;-0.034180;0.037109;1.031250;
110244;-0.034180;0.037109;1.031250;
110464;-0.034180;0.036133;1.031250;
110684;-0.036133;0.035156;1.030273;
110904;-0.035156;0.035156;1.030273;
111123;-0.035156;0.037109;1.031250;
111344;-0.035156;0.036133;1.031250;
111560;-0.037109;0.036133;1.030273;
111779;-0.034180;0.039062;1.031250;
111999;-0.036133;0.036133;1.030273;
112219;-0.034180;0.037109;1.031250;
112444;-0.035156;0.036133;1.030273;
112663;-0.036133;0.036133;1.030273;
112884;-0.034180;0.037109;1.032227;
113104;-0.036133;0.035156;1.030273;
113324;-0.035156;0.036133;1.032227;
113544;-0.034180;0.038086;1.032227;
113763;-0.035156;0.037109;1.031250;
113983;-0.034180;0.036133;1.031250;
114203;-0.035156;0.036133;1.031250;
114424;-0.035156;0.037109;1.031250;
114644;-0.036133;0.037109;1.031250;
114864;-0.035156;0.038086;1.031250;
115084;-0.034180;0.036133;1.033203;
115299;-0.034180;0.037109;1.030273;
115509;-0.036133;0.036133;1.032227;
115729;-0.035156;0.037109;1.030273;
115949;-0.036133;0.035156;1.032227;
116174;-0.035156;0.035156;1.030273;
116393;-0.036133;0.037109;1.032227;
116613;-0.036133;0.037109;1.030273;
116834;-0.035156;0.039062;1.031250;
117053;-0.037109;0.036133;1.030273;
117274;-0.035156;0.037109;1.030273;
117494;-0.035156;0.037109;1.030273;
117714;-0.035156;0.036133;1.031250;
117934;-0.034180;0.037109;1.032227;
118154;-0.036133;0.037109;1.031250;
118373;-0.036133;0.035156;1.030273;
118593;-0.036133;0.036133;1.031250;
118814;-0.034180;0.036133;1.032227;
119034;-0.035156;0.038086;1.029297;
119249;-0.036133;0.036133;1.030273;
119469;-0.036133;0.036133;1.031250;
119700;-0.035156;0.035156;1.030273;
119909;-0.035156;0.038086;1.034180;
120144;-0.034180;0.036133;1.032227;
120364;-0.035156;0.037109;1.031250;
120583;-0.035156;0.036133;1.034180;
120803;-0.034180;0.036133;1.032227;
121024;-0.035156;0.038086;1.032227;
121244;-0.034180;0.037109;1.031250;
121464;-0.034180;0.036133;1.032227;
121683;-0.035156;0.035156;1.032227;
121904;-0.037109;0.034180;1.029297;
122124;-0.035156;0.035156;1.031250;
122343;-0.035156;0.038086;1.032227;
122564;-0.036133;0.037109;1.031250;
122784;-0.036133;0.035156;1.031250;
123000;-0.035156;0.037109;1.033203;
123209;-0.035156;0.037109;1.030273;
123429;-0.036133;0.037109;1.031250;
123649;-0.034180;0.038086;1.031250;
123874;-0.036133;0.036133;1.031250;
124093;-0.037109;0.037109;1.032227;
124314;-0.035156;0.037109;1.031250;
124533;-0.035156;0.037109;1.032227;
124754;-0.033203;0.037109;1.030273;
124973;-0.036133;0.037109;1.030273;
125194;-0.035156;0.036133;1.031250;
125414;-0.033203;0.038086;1.031250;
125634;-0.034180;0.039062;1.031250;
125854;-0.035156;0.037109;1.032227;
126074;-0.035156;0.036133;1.032227;
126294;-0.035156;0.036133;1.030273;
126514;-0.036133;0.036133;1.031250;
126734;-0.035156;0.037109;1.030273;
126949;-0.035156;0.037109;1.032227;
127169;-0.035156;0.036133;1.031250;
127389;-0.035156;0.037109;1.032227;
127599;-0.034180;0.038086;1.030273;
127824;-0.034180;0.037109;1.030273;
128043;-0.037109;0.036133;1.030273;
128264;-0.036133;0.037109;1.031250;
128484;-0.035156;0.039062;1.030273;
128704;-0.034180;0.036133;1.031250;
128924;-0.035156;0.037109;1.032227;
129144;-0.035156;0.037109;1.032227;
129364;-0.035156;0.036133;1.034180;
129584;-0.036133;0.037109;1.030273;
129804;-0.035156;0.036133;1.032227;
130024;-0.035156;0.037109;1.028320;
130244;-0.035156;0.037109;1.032227;
130464;-0.035156;0.037109;1.030273;
130684;-0.035156;0.036133;1.033203;
130900;-0.035156;0.036133;1.030273;
131109;-0.035156;0.037109;1.030273;
131329;-0.034180;0.037109;1.029297;
131549;-0.034180;0.037109;1.033203;
131784;-0.036133;0.034180;1.030273;
132004;-0.035156;0.037109;1.032227;
132224;-0.036133;0.036133;1.031250;
132444;-0.034180;0.037109;1.032227;
132664;-0.034180;0.036133;1.032227;
132884;-0.036133;0.035156;1.031250;
133104;-0.035156;0.036133;1.033203;
133324;-0.036133;0.037109;1.031250;
133544;-0.035156;0.036133;1.032227;
133764;-0.035156;0.038086;1.032227;
133984;-0.035156;0.038086;1.033203;
134204;-0.036133;0.036133;1.032227;
134423;-0.037109;0.037109;1.031250;
134644;-0.034180;0.037109;1.033203;
134859;-0.035156;0.037109;1.032227;
135090;-0.035156;0.037109;1.031250;
135323;-0.036133;0.036133;1.031250;
135539;-0.034180;0.037109;1.029297;
135759;-0.036133;0.037109;1.031250;
135979;-0.034180;0.036133;1.032227;
136204;-0.035156;0.037109;1.031250;
136423;-0.034180;0.038086;1.031250;
136644;-0.035156;0.035156;1.030273;
136864;-0.035156;0.039062;1.031250;
137084;-0.035156;0.037109;1.030273;
137304;-0.035156;0.035156;1.031250;
137524;-0.035156;0.035156;1.029297;
137743;-0.036133;0.038086;1.033203;
137964;-0.036133;0.035156;1.033203;
138184;-0.036133;0.036133;1.031250;
138404;-0.034180;0.037109;1.031250;
138624;-0.036133;0.039062;1.032227;
138844;-0.036133;0.037109;1.033203;
139059;-0.035156;0.038086;1.031250;
139269;-0.034180;0.040039;1.033203;
139489;-0.034180;0.036133;1.031250;
139699;-0.036133;0.036133;1.031250;
139933;-0.034180;0.038086;1.030273;
140154;-0.036133;0.036133;1.031250;
140374;-0.035156;0.035156;1.031250;
140594;-0.035156;0.038086;1.032227;
140814;-0.034180;0.037109;1.032227;
141034;-0.035156;0.038086;1.031250;
141254;-0.034180;0.038086;1.032227;
141474;-0.034180;0.037109;1.031250;
141695;-0.035156;0.038086;1.031250;
141924;-0.036133;0.036133;1.030273;
142143;-0.034180;0.039062;1.032227;
142364;-0.035156;0.037109;1.030273;
142584;-0.036133;0.035156;1.031250;
142804;-0.034180;0.036133;1.031250;
143024;-0.035156;0.037109;1.031250;
143229;-0.036133;0.035156;1.029297;
143450;-0.035156;0.038086;1.031250;
143669;-0.035156;0.036133;1.031250;
143893;-0.034180;0.038086;1.031250;
144114;-0.036133;0.035156;1.031250;
144334;-0.036133;0.036133;1.031250;
144554;-0.036133;0.037109;1.031250;
144775;-0.035156;0.038086;1.032227;
145004;-0.035156;0.037109;1.032227;
145224;-0.036133;0.036133;1.031250;
145444;-0.036133;0.036133;1.031250;
145663;-0.034180;0.036133;1.031250;
145883;-0.036133;0.035156;1.030273;
146103;-0.035156;0.037109;1.031250;
146324;-0.035156;0.035156;1.031250;
146544;-0.036133;0.036133;1.033203;
146759;-0.035156;0.035156;1.031250;
146969;-0.035156;0.037109;1.032227;
147194;-0.035156;0.036133;1.032227;
147419;-0.035156;0.035156;1.030273;
147639;-0.036133;0.038086;1.033203;
147874;-0.035156;0.036133;1.030273;
148094;-0.034180;0.038086;1.032227;
148313;-0.035156;0.036133;1.032227;
148534;-0.035156;0.036133;1.029297;
148754;-0.036133;0.038086;1.033203;
148974;-0.036133;0.036133;1.030273;
149193;-0.035156;0.035156;1.032227;
149414;-0.035156;0.036133;1.032227;
149633;-0.034180;0.039062;1.033203;
149854;-0.036133;0.037109;1.032227;
150074;-0.035156;0.037109;1.031250;
150294;-0.035156;0.037109;1.032227;
150514;-0.035156;0.036133;1.030273;
150729;-0.035156;0.034180;1.030273;
150949;-0.034180;0.037109;1.031250;
151169;-0.035156;0.038086;1.032227;
151389;-0.035156;0.037109;1.030273;
151599;-0.035156;0.036133;1.030273;
151824;-0.034180;0.036133;1.033203;
152043;-0.034180;0.038086;1.031250;
152264;-0.036133;0.036133;1.032227;
152483;-0.035156;0.037109;1.030273;
152704;-0.035156;0.037109;1.032227;
152924;-0.035156;0.038086;1.032227;
153144;-0.036133;0.036133;1.031250;
153364;-0.035156;0.037109;1.031250;
153584;-0.034180;0.037109;1.032227;
153799;-0.035156;0.036133;1.033203;
154014;-0.034180;0.038086;1.032227;
154234;-0.034180;0.038086;1.032227;
154454;-0.035156;0.036133;1.031250;
154673;-0.035156;0.036133;1.031250;
154889;-0.036133;0.037109;1.032227;
155119;-0.036133;0.038086;1.031250;
155339;-0.035156;0.038086;1.031250;
155559;-0.034180;0.037109;1.031250;
155784;-0.035156;0.037109;1.032227;
156003;-0.034180;0.038086;1.032227;
156224;-0.035156;0.037109;1.032227;
156444;-0.036133;0.037109;1.031250;
156664;-0.035156;0.035156;1.032227;
156883;-0.035156;0.038086;1.030273;
157104;-0.035156;0.036133;1.033203;
157324;-0.035156;0.038086;1.032227;
157544;-0.034180;0.038086;1.032227;
157763;-0.035156;0.038086;1.031250;
157984;-0.035156;0.036133;1.032227;
158199;-0.035156;0.037109;1.032227;
158424;-0.033203;0.038086;1.031250;
158639;-0.035156;0.038086;1.031250;
158849;-0.035156;0.034180;1.031250;
159084;-0.036133;0.037109;1.032227;
159350;-0.035156;0.036133;1.031250;
159579;-0.034180;0.038086;1.031250;
159813;-0.036133;0.037109;1.030273;
160033;-0.035156;0.037109;1.032227;
160254;-0.035156;0.037109;1.032227;
160474;-0.035156;0.037109;1.033203;
160694;-0.035156;0.037109;1.033203;
160914;-0.036133;0.036133;1.033203;
161134;-0.034180;0.037109;1.032227;
161364;-0.036133;0.034180;1.032227;
161584;-0.036133;0.036133;1.031250;
161804;-0.035156;0.039062;1.032227;
162023;-0.036133;0.034180;1.032227;
162244;-0.035156;0.038086;1.031250;
162463;-0.033203;0.038086;1.032227;
162684;-0.035156;0.035156;1.031250;
162899;-0.035156;0.038086;1.031250;
163119;-0.036133;0.037109;1.032227;
163351;-0.035156;0.036133;1.032227;
163569;-0.035156;0.036133;1.030273;
163794;-0.036133;0.036133;1.032227;
164014;-0.035156;0.037109;1.031250;
164234;-0.035156;0.037109;1.033203;
164454;-0.034180;0.038086;1.032227;
164673;-0.034180;0.039062;1.031250;
164894;-0.034180;0.037109;1.033203;
165114;-0.036133;0.036133;1.031250;
165334;-0.035156;0.036133;1.030273;
165554;-0.035156;0.038086;1.032227;
165773;-0.034180;0.036133;1.031250;
165994;-0.036133;0.035156;1.031250;
166214;-0.036133;0.037109;1.033203;
166434;-0.035156;0.038086;1.032227;
166654;-0.035156;0.037109;1.032227;
166874;-0.034180;0.036133;1.031250;
167079;-0.035156;0.037109;1.031250;
167309;-0.036133;0.036133;1.031250;
167539;-0.034180;0.037109;1.031250;
167754;-0.036133;0.037109;1.031250;
167974;-0.035156;0.037109;1.031250;
168194;-0.034180;0.036133;1.032227;
168413;-0.034180;0.037109;1.032227;
168634;-0.034180;0.038086;1.031250;
168853;-0.034180;0.037109;1.031250;
169074;-0.035156;0.037109;1.033203;
169294;-0.036133;0.037109;1.032227;
169514;-0.034180;0.037109;1.033203;
169734;-0.036133;0.036133;1.032227;
169953;-0.036133;0.035156;1.031250;
170174;-0.034180;0.037109;1.031250;
170394;-0.034180;0.037109;1.032227;
170609;-0.036133;0.036133;1.032227;
170839;-0.034180;0.036133;1.031250;
171059;-0.037109;0.036133;1.032227;
171269;-0.035156;0.037109;1.033203;
171479;-0.035156;0.036133;1.033203;
171704;-0.035156;0.039062;1.032227;
171924;-0.035156;0.036133;1.031250;
172144;-0.037109;0.035156;1.032227;
172363;-0.036133;0.036133;1.032227;
172584;-0.034180;0.036133;1.031250;
172803;-0.035156;0.036133;1.031250;
173024;-0.035156;0.036133;1.033203;
173254;-0.035156;0.037109;1.032227;
173473;-0.035156;0.036133;1.032227;
173694;-0.035156;0.037109;1.030273;
173914;-0.034180;0.036133;1.032227;
174134;-0.035156;0.038086;1.032227;
174353;-0.036133;0.036133;1.032227;
174574;-0.037109;0.036133;1.033203;
174789;-0.036133;0.035156;1.032227;
175009;-0.034180;0.037109;1.031250;
175229;-0.034180;0.038086;1.032227;
175439;-0.036133;0.038086;1.032227;
175664;-0.035156;0.037109;1.032227;
175883;-0.035156;0.037109;1.031250;
176103;-0.035156;0.035156;1.030273;
176324;-0.036133;0.036133;1.031250;
176544;-0.035156;0.037109;1.031250;
176764;-0.034180;0.038086;1.033203;
176979;-0.034180;0.036133;1.033203;
177204;-0.035156;0.037109;1.032227;
177424;-0.035156;0.038086;1.033203;
177644;-0.035156;0.037109;1.032227;
177864;-0.034180;0.038086;1.033203;
178084;-0.035156;0.037109;1.032227;
178303;-0.035156;0.036133;1.032227;
178524;-0.036133;0.037109;1.031250;
178739;-0.034180;0.038086;1.031250;
178970;-0.036133;0.037109;1.032227;
179189;-0.035156;0.037109;1.033203;
179409;-0.035156;0.037109;1.032227;
179644;-0.035156;0.035156;1.031250;
179864;-0.035156;0.036133;1.031250;
180084;-0.035156;0.037109;1.032227;
180304;-0.035156;0.037109;1.032227;
180524;-0.036133;0.036133;1.032227;
180744;-0.035156;0.036133;1.032227;
180964;-0.034180;0.039062;1.032227;
181184;-0.034180;0.035156;1.032227;
181403;-0.034180;0.037109;1.031250;
181623;-0.035156;0.035156;1.032227;
181844;-0.035156;0.038086;1.033203;
182064;-0.037109;0.036133;1.032227;
182283;-0.035156;0.036133;1.032227;
182500;-0.036133;0.036133;1.030273;
182709;-0.036133;0.037109;1.032227;
182933;-0.035156;0.039062;1.032227;
183149;-0.035156;0.036133;1.031250;
183369;-0.033203;0.038086;1.031250;
183593;-0.035156;0.035156;1.032227;
183814;-0.035156;0.036133;1.034180;
184034;-0.035156;0.036133;1.031250;
184254;-0.035156;0.036133;1.033203;
184474;-0.035156;0.038086;1.031250;
184694;-0.035156;0.037109;1.032227;
184913;-0.035156;0.037109;1.031250;
185134;-0.035156;0.036133;1.033203;
185354;-0.034180;0.037109;1.031250;
185573;-0.036133;0.036133;1.031250;
185794;-0.036133;0.038086;1.032227;
186014;-0.034180;0.037109;1.027344;
186235;-0.035156;0.038086;1.033203;
186464;-0.032227;0.038086;1.030273;
186669;-0.037109;0.040039;1.036133;
186879;-0.033203;0.034180;1.037109;
187090;-0.039062;0.039062;1.034180;
187299;-0.037109;0.034180;1.028320;
187524;-0.029297;0.023438;1.077148;
187743;-0.037109;0.035156;1.035156;
187964;-0.036133;0.039062;1.033203;
188184;-0.034180;0.036133;1.032227;
188404;-0.036133;0.036133;1.031250;
188624;-0.034180;0.038086;1.032227;
188844;-0.035156;0.037109;1.032227;
189064;-0.034180;0.038086;1.033203;
189284;-0.035156;0.037109;1.031250;
189499;-0.035156;0.036133;1.030273;
189723;-0.036133;0.038086;1.032227;
189944;-0.035156;0.038086;1.033203;
190163;-0.035156;0.037109;1.033203;
190385;-0.035156;0.037109;1.032227;
190609;-0.034180;0.037109;1.032227;
190830;-0.036133;0.036133;1.033203;
191049;-0.034180;0.040039;1.032227;
191269;-0.035156;0.036133;1.032227;
191504;-0.035156;0.035156;1.032227;
191724;-0.034180;0.037109;1.031250;
191944;-0.035156;0.037109;1.033203;
192164;-0.037109;0.035156;1.032227;
192384;-0.034180;0.039062;1.033203;
192603;-0.035156;0.036133;1.031250;
192824;-0.035156;0.037109;1.030273;
193044;-0.035156;0.038086;1.032227;
193264;-0.035156;0.037109;1.032227;
193479;-0.034180;0.036133;1.032227;
193704;-0.038086;0.033203;1.001953;
193924;-0.031250;0.038086;1.092773;
194143;-0.035156;0.037109;1.034180;
194363;-0.035156;0.037109;1.031250;
194579;-0.035156;0.036133;1.033203;
194789;-0.035156;0.036133;1.032227;
195009;-0.034180;0.036133;1.032227;
195229;-0.035156;0.037109;1.032227;
195464;-0.035156;0.037109;1.031250;
195679;-0.036133;0.037109;1.032227;
195914;-0.036133;0.036133;1.032227;
196134;-0.035156;0.037109;1.033203;
196354;-0.037109;0.036133;1.032227;
196574;-0.035156;0.036133;1.031250;
196794;-0.036133;0.038086;1.033203;
197013;-0.035156;0.037109;1.032227;
197234;-0.035156;0.038086;1.033203;
197454;-0.036133;0.036133;1.032227;
197674;-0.034180;0.037109;1.032227;
197893;-0.036133;0.035156;1.033203;
198114;-0.035156;0.035156;1.032227;
198334;-0.035156;0.037109;1.034180;
198549;-0.035156;0.037109;1.032227;
198769;-0.036133;0.036133;1.033203;
198990;-0.035156;0.037109;1.033203;
199199;-0.034180;0.038086;1.031250;
199423;-0.035156;0.036133;1.032227;
199639;-0.036133;0.036133;1.031250;
199853;-0.034180;0.037109;1.034180;
200074;-0.035156;0.037109;1.033203;
200293;-0.035156;0.036133;1.034180;
200514;-0.035156;0.038086;1.032227;
200734;-0.035156;0.038086;1.034180;
200953;-0.034180;0.036133;1.032227;
201169;-0.036133;0.036133;1.032227;
201393;-0.034180;0.038086;1.032227;
201613;-0.034180;0.038086;1.033203;
201833;-0.035156;0.035156;1.031250;
202053;-0.035156;0.036133;1.031250;
202274;-0.035156;0.037109;1.032227;
202479;-0.034180;0.038086;1.032227;
202689;-0.034180;0.037109;1.032227;
202919;-0.035156;0.036133;1.032227;
203149;-0.035156;0.038086;1.033203;
203384;-0.036133;0.036133;1.032227;
203604;-0.036133;0.036133;1.032227;
203824;-0.034180;0.036133;1.033203;
204044;-0.035156;0.038086;1.033203;
204259;-0.035156;0.037109;1.032227;
204484;-0.036133;0.036133;1.033203;
204704;-0.034180;0.036133;1.032227;
204924;-0.035156;0.037109;1.033203;
205143;-0.035156;0.038086;1.030273;
205364;-0.035156;0.038086;1.032227;
205584;-0.033203;0.037109;1.032227;
205804;-0.036133;0.037109;1.032227;
206023;-0.035156;0.035156;1.031250;
206244;-0.035156;0.038086;1.033203;
206450;-0.035156;0.037109;1.033203;
206669;-0.034180;0.038086;1.033203;
206889;-0.035156;0.036133;1.033203;
207099;-0.035156;0.038086;1.033203;
207334;-0.034180;0.036133;1.031250;
207554;-0.035156;0.035156;1.033203;
207773;-0.034180;0.038086;1.032227;
207994;-0.034180;0.039062;1.034180;
208214;-0.034180;0.037109;1.033203;
208434;-0.034180;0.037109;1.032227;
208654;-0.036133;0.036133;1.034180;
208874;-0.036133;0.036133;1.032227;
209094;-0.034180;0.037109;1.032227;
209314;-0.035156;0.037109;1.033203;
209524;-0.033203;0.037109;1.033203;
209744;-0.036133;0.036133;1.032227;
209963;-0.033203;0.038086;1.032227;
210183;-0.035156;0.037109;1.033203;
210399;-0.034180;0.036133;1.034180;
210609;-0.034180;0.036133;1.031250;
210829;-0.036133;0.036133;1.031250;
211059;-0.035156;0.037109;1.032227;
211294;-0.034180;0.036133;1.031250;
211513;-0.035156;0.036133;1.031250;
211723;-0.036133;0.036133;1.033203;
211944;-0.034180;0.037109;1.032227;
212163;-0.034180;0.036133;1.031250;
212384;-0.034180;0.037109;1.032227;
212599;-0.035156;0.036133;1.034180;
212824;-0.035156;0.035156;1.032227;
213044;-0.036133;0.037109;1.034180;
213263;-0.036133;0.036133;1.033203;
213484;-0.034180;0.038086;1.032227;
213704;-0.036133;0.037109;1.032227;
213923;-0.035156;0.036133;1.031250;
214144;-0.035156;0.037109;1.032227;
214349;-0.034180;0.038086;1.033203;
214559;-0.034180;0.037109;1.033203;
214789;-0.034180;0.035156;1.032227;
215019;-0.035156;0.037109;1.032227;
215233;-0.035156;0.036133;1.033203;
215454;-0.034180;0.036133;1.033203;
215674;-0.035156;0.038086;1.033203;
215894;-0.035156;0.037109;1.031250;
216114;-0.035156;0.036133;1.033203;
216334;-0.035156;0.037109;1.033203;
216553;-0.035156;0.037109;1.032227;
216764;-0.035156;0.037109;1.033203;
216983;-0.033203;0.036133;1.033203;
217204;-0.035156;0.038086;1.032227;
217424;-0.036133;0.037109;1.033203;
217639;-0.035156;0.037109;1.033203;
217854;-0.034180;0.036133;1.031250;
218074;-0.034180;0.037109;1.032227;
218280;-0.034180;0.037109;1.033203;
218499;-0.035156;0.037109;1.032227;
218709;-0.035156;0.037109;1.031250;
218919;-0.036133;0.039062;1.033203;
219134;-0.034180;0.037109;1.033203;
219353;-0.034180;0.036133;1.033203;
219574;-0.035156;0.037109;1.033203;
219795;-0.034180;0.038086;1.033203;
220024;-0.035156;0.038086;1.032227;
220243;-0.034180;0.037109;1.033203;
220464;-0.035156;0.037109;1.031250;
220684;-0.035156;0.036133;1.033203;
220904;-0.034180;0.036133;1.032227;
221124;-0.035156;0.036133;1.032227;
221344;-0.035156;0.036133;1.033203;
221563;-0.034180;0.037109;1.033203;
221784;-0.035156;0.038086;1.033203;
221999;-0.034180;0.038086;1.033203;
222219;-0.035156;0.036133;1.032227;
222439;-0.035156;0.036133;1.032227;
222649;-0.035156;0.037109;1.033203;
222864;-0.035156;0.036133;1.033203;
223073;-0.036133;0.038086;1.033203;
223293;-0.034180;0.037109;1.032227;
223514;-0.035156;0.040039;1.033203;
223733;-0.035156;0.036133;1.032227;
223949;-0.035156;0.037109;1.030273;
224164;-0.035156;0.036133;1.033203;
224383;-0.036133;0.035156;1.032227;
224604;-0.036133;0.035156;1.033203;
224823;-0.034180;0.037109;1.032227;
225044;-0.035156;0.036133;1.032227;
225264;-0.034180;0.036133;1.033203;
225485;-0.037109;0.039062;1.057617;
225714;-0.038086;0.042969;1.046875;
225929;-0.036133;0.036133;1.035156;
226139;-0.034180;0.038086;1.038086;
226369;-0.036133;0.036133;1.032227;
226599;-0.035156;0.037109;1.033203;
226823;-0.034180;0.037109;1.033203;
227043;-0.034180;0.037109;1.032227;
227264;-0.034180;0.034180;1.030273;
227484;-0.037109;0.034180;1.034180;
227705;-0.034180;0.038086;1.033203;
227934;-0.038086;0.036133;1.030273;
228154;-0.034180;0.036133;1.039062;
228374;-0.037109;0.038086;1.033203;
228593;-0.033203;0.037109;1.040039;
228814;-0.034180;0.038086;1.035156;
229033;-0.033203;0.038086;1.035156;
229254;-0.033203;0.036133;1.034180;
229474;-0.034180;0.036133;1.034180;
229689;-0.036133;0.036133;1.032227;
229909;-0.034180;0.038086;1.034180;
230130;-0.035156;0.036133;1.030273;
230359;-0.035156;0.036133;1.033203;
230569;-0.034180;0.037109;1.041016;
230789;-0.038086;0.038086;1.035156;
231003;-0.037109;0.037109;1.021484;
231224;-0.035156;0.039062;1.032227;
231444;-0.033203;0.035156;1.041016;
231654;-0.038086;0.038086;1.023438;
231874;-0.033203;0.037109;1.042969;
232093;-0.037109;0.036133;1.020508;
232314;-0.072266;0.049805;0.935547;
232534;-0.034180;0.036133;1.032227;
232754;-0.035156;0.037109;1.032227;
232973;-0.034180;0.037109;1.033203;
233194;-0.035156;0.035156;1.032227;
233414;-0.034180;0.036133;1.032227;
233634;-0.034180;0.039062;1.035156;
233850;-0.034180;0.037109;1.035156;
234060;-0.034180;0.037109;1.032227;
234269;-0.034180;0.037109;1.030273;
234479;-0.035156;0.038086;1.032227;
234709;-0.036133;0.036133;1.030273;
234934;-0.037109;0.037109;1.029297;
235154;-0.034180;0.036133;1.033203;
235373;-0.034180;0.038086;1.035156;
235594;-0.035156;0.036133;1.034180;
235814;-0.036133;0.037109;1.030273;
236029;-0.035156;0.037109;1.033203;
236254;-0.034180;0.037109;1.033203;
236474;-0.033203;0.037109;1.040039;
236694;-0.034180;0.035156;1.032227;
236914;-0.036133;0.035156;1.032227;
237129;-0.032227;0.037109;1.041992;
237353;-0.039062;0.039062;1.028320;
237574;-0.032227;0.037109;1.042969;
237789;-0.034180;0.037109;1.041992;
238009;-0.037109;0.035156;1.020508;
238239;-0.032227;0.037109;1.044922;
238459;-0.034180;0.036133;1.032227;
238679;-0.034180;0.037109;1.033203;
238903;-0.033203;0.038086;1.032227;
239124;-0.034180;0.035156;1.033203;
239344;-0.034180;0.035156;1.032227;
239564;-0.036133;0.036133;1.033203;
239784;-0.034180;0.037109;1.034180;
240004;-0.038086;0.038086;1.014648;
240223;-0.029297;0.033203;1.021484;
240444;-0.041016;0.042969;1.011719;
240664;-0.038086;0.033203;1.013672;
240884;-0.027344;0.041016;1.066406;
241104;-0.040039;0.038086;1.011719;
241324;-0.044922;0.039062;1.033203;
241533;-0.033203;0.037109;1.039062;
241754;-0.035156;0.036133;1.032227;
241969;-0.035156;0.037109;1.034180;
242189;-0.033203;0.037109;1.032227;
242419;-0.035156;0.036133;1.032227;
242649;-0.033203;0.036133;1.031250;
242864;-0.035156;0.037109;1.034180;
243083;-0.034180;0.038086;1.033203;
243303;-0.036133;0.036133;1.036133;
243523;-0.035156;0.037109;1.034180;
243743;-0.034180;0.037109;1.033203;
243964;-0.035156;0.037109;1.034180;
244184;-0.035156;0.035156;1.032227;
244404;-0.034180;0.038086;1.034180;
244624;-0.034180;0.037109;1.032227;
244844;-0.033203;0.038086;1.031250;
245064;-0.034180;0.037109;1.035156;
245284;-0.035156;0.036133;1.032227;
245504;-0.034180;0.037109;1.033203;
245724;-0.033203;0.037109;1.033203;
245939;-0.036133;0.038086;1.035156;
246159;-0.036133;0.035156;1.032227;
246379;-0.035156;0.038086;1.034180;
246589;-0.034180;0.036133;1.033203;
246804;-0.034180;0.037109;1.032227;
247024;-0.034180;0.038086;1.034180;
247244;-0.034180;0.036133;1.033203;
247464;-0.034180;0.038086;1.032227;
247684;-0.035156;0.038086;1.035156;
247904;-0.035156;0.035156;1.034180;
248123;-0.034180;0.038086;1.035156;
248343;-0.034180;0.038086;1.034180;
248564;-0.035156;0.037109;1.032227;
248783;-0.033203;0.037109;1.032227;
249003;-0.034180;0.038086;1.032227;
249219;-0.035156;0.038086;1.033203;
249444;-0.034180;0.038086;1.033203;
249664;-0.035156;0.037109;1.035156;
249869;-0.034180;0.037109;1.033203;
250079;-0.035156;0.033203;1.033203;
250300;-0.035156;0.037109;1.034180;
250529;-0.034180;0.036133;1.032227;
250754;-0.034180;0.038086;1.034180;
250973;-0.035156;0.038086;1.032227;
251194;-0.035156;0.036133;1.034180;
251414;-0.034180;0.035156;1.032227;
251634;-0.035156;0.037109;1.034180;
251854;-0.034180;0.039062;1.033203;
252074;-0.035156;0.037109;1.035156;
252294;-0.034180;0.036133;1.032227;
252513;-0.034180;0.037109;1.031250;
252734;-0.036133;0.036133;1.033203;
252953;-0.033203;0.038086;1.031250;
253169;-0.035156;0.037109;1.035156;
253394;-0.033203;0.038086;1.032227;
253609;-0.034180;0.036133;1.033203;
253819;-0.034180;0.037109;1.034180;
254039;-0.036133;0.035156;1.034180;
254269;-0.035156;0.036133;1.033203;
254489;-0.035156;0.037109;1.035156;
254714;-0.035156;0.038086;1.031250;
254933;-0.035156;0.036133;1.033203;
255154;-0.033203;0.037109;1.034180;
255375;-0.035156;0.037109;1.032227;
255603;-0.036133;0.038086;1.033203;
255823;-0.033203;0.039062;1.033203;
256044;-0.035156;0.035156;1.034180;
256263;-0.034180;0.037109;1.031250;
256484;-0.035156;0.036133;1.032227;
256703;-0.035156;0.037109;1.034180;
256924;-0.034180;0.037109;1.032227;
257144;-0.034180;0.037109;1.033203;
257363;-0.039062;0.040039;1.017578;
257584;-0.035156;0.036133;1.039062;
257799;-0.034180;0.037109;1.033203;
258009;-0.034180;0.036133;1.034180;
258219;-0.033203;0.038086;1.033203;
258439;-0.035156;0.036133;1.034180;
258654;-0.035156;0.037109;1.035156;
258874;-0.036133;0.035156;1.033203;
259094;-0.034180;0.038086;1.033203;
259314;-0.036133;0.036133;1.037109;
259534;-0.033203;0.037109;1.039062;
259754;-0.038086;0.036133;1.032227;
259974;-0.035156;0.036133;1.033203;
260194;-0.037109;0.037109;1.031250;
260414;-0.035156;0.036133;1.031250;
260633;-0.034180;0.036133;1.036133;
260854;-0.033203;0.038086;1.032227;
261074;-0.035156;0.036133;1.034180;
261293;-0.034180;0.038086;1.032227;
261514;-0.035156;0.036133;1.033203;
261729;-0.034180;0.038086;1.033203;
261939;-0.034180;0.036133;1.031250;
262159;-0.034180;0.037109;1.033203;
262379;-0.035156;0.036133;1.034180;
262614;-0.034180;0.037109;1.032227;
262834;-0.034180;0.037109;1.033203;
263054;-0.034180;0.037109;1.033203;
263273;-0.035156;0.036133;1.033203;
263494;-0.035156;0.038086;1.034180;
263714;-0.035156;0.036133;1.033203;
263933;-0.034180;0.039062;1.035156;
264153;-0.033203;0.036133;1.033203;
264373;-0.034180;0.038086;1.034180;
264594;-0.034180;0.037109;1.032227;
264814;-0.035156;0.035156;1.032227;
265034;-0.036133;0.035156;1.034180;
265253;-0.035156;0.037109;1.034180;
265473;-0.035156;0.036133;1.033203;
265699;-0.035156;0.036133;1.035156;
265909;-0.034180;0.036133;1.032227;
266120;-0.034180;0.038086;1.033203;
266339;-0.035156;0.036133;1.034180;
266563;-0.036133;0.037109;1.034180;
266784;-0.035156;0.036133;1.033203;
267004;-0.035156;0.036133;1.033203;
267224;-0.035156;0.036133;1.034180;
267444;-0.034180;0.038086;1.033203;
267664;-0.034180;0.036133;1.033203;
267884;-0.036133;0.036133;1.033203;
268104;-0.035156;0.038086;1.034180;
268323;-0.034180;0.037109;1.033203;
268544;-0.034180;0.037109;1.034180;
268764;-0.035156;0.035156;1.033203;
268983;-0.034180;0.037109;1.034180;
269204;-0.036133;0.035156;1.032227;
269419;-0.036133;0.038086;1.034180;
269639;-0.035156;0.035156;1.033203;
269849;-0.034180;0.039062;1.034180;
270081;-0.034180;0.037109;1.034180;
270294;-0.035156;0.037109;1.032227;
270513;-0.036133;0.036133;1.034180;
270734;-0.035156;0.037109;1.033203;
270954;-0.034180;0.038086;1.034180;
271174;-0.034180;0.038086;1.034180;
271394;-0.033203;0.039062;1.034180;
271614;-0.034180;0.037109;1.034180;
271834;-0.035156;0.037109;1.035156;
272054;-0.035156;0.036133;1.033203;
272274;-0.035156;0.036133;1.032227;
272494;-0.035156;0.038086;1.034180;
272715;-0.033203;0.038086;1.032227;
272944;-0.034180;0.037109;1.033203;
273164;-0.034180;0.038086;1.034180;
273379;-0.033203;0.039062;1.033203;
273590;-0.034180;0.038086;1.032227;
273809;-0.035156;0.038086;1.034180;
274029;-0.034180;0.036133;1.032227;
274260;-0.034180;0.037109;1.034180;
274484;-0.033203;0.038086;1.034180;
274703;-0.035156;0.035156;1.034180;
274924;-0.034180;0.037109;1.033203;
275144;-0.033203;0.039062;1.035156;
275364;-0.035156;0.038086;1.034180;
275584;-0.036133;0.036133;1.033203;
275804;-0.035156;0.037109;1.032227;
276024;-0.034180;0.037109;1.035156;
276244;-0.035156;0.037109;1.031250;
276463;-0.034180;0.037109;1.034180;
276684;-0.034180;0.038086;1.033203;
276904;-0.035156;0.035156;1.034180;
277124;-0.036133;0.035156;1.033203;
277344;-0.035156;0.037109;1.034180;
277559;-0.034180;0.036133;1.033203;
277789;-0.034180;0.037109;1.036133;
278019;-0.036133;0.036133;1.033203;
278250;-0.034180;0.039062;1.033203;
278483;-0.034180;0.036133;1.033203;
278704;-0.034180;0.037109;1.033203;
278924;-0.034180;0.036133;1.032227;
279143;-0.035156;0.038086;1.033203;
279364;-0.034180;0.037109;1.032227;
279584;-0.035156;0.038086;1.032227;
279804;-0.033203;0.038086;1.035156;
280024;-0.035156;0.037109;1.034180;
280244;-0.034180;0.038086;1.033203;
280464;-0.035156;0.037109;1.034180;
280683;-0.035156;0.036133;1.031250;
280904;-0.033203;0.039062;1.033203;
281124;-0.033203;0.038086;1.032227;
281343;-0.034180;0.035156;1.034180;
281559;-0.034180;0.037109;1.033203;
281779;-0.033203;0.038086;1.034180;
281999;-0.033203;0.037109;1.033203;
282219;-0.035156;0.037109;1.034180;
282443;-0.034180;0.038086;1.032227;
282664;-0.035156;0.036133;1.033203;
282883;-0.033203;0.037109;1.033203;
283104;-0.032227;0.037109;1.035156;
283323;-0.034180;0.036133;1.034180;
283543;-0.034180;0.038086;1.034180;
283764;-0.034180;0.035156;1.035156;
283984;-0.035156;0.036133;1.033203;
284204;-0.033203;0.036133;1.033203;
284424;-0.035156;0.038086;1.032227;
284643;-0.033203;0.036133;1.033203;
284864;-0.035156;0.037109;1.032227;
285084;-0.034180;0.036133;1.032227;
285299;-0.036133;0.036133;1.035156;
285509;-0.034180;0.039062;1.034180;
285739;-0.035156;0.037109;1.034180;
285960;-0.034180;0.038086;1.035156;
286180;-0.034180;0.037109;1.035156;
286394;-0.035156;0.037109;1.034180;
286614;-0.034180;0.039062;1.035156;
286833;-0.034180;0.037109;1.033203;
287055;-0.035156;0.036133;1.032227;
287284;-0.034180;0.037109;1.034180;
287503;-0.034180;0.037109;1.032227;
287723;-0.034180;0.038086;1.035156;
287944;-0.034180;0.037109;1.033203;
288164;-0.034180;0.038086;1.034180;
288384;-0.035156;0.036133;1.034180;
288603;-0.033203;0.039062;1.034180;
288824;-0.035156;0.037109;1.033203;
289043;-0.033203;0.038086;1.033203;
289263;-0.036133;0.036133;1.035156;
289479;-0.034180;0.037109;1.032227;
289699;-0.034180;0.037109;1.035156;
289920;-0.035156;0.037109;1.033203;
290139;-0.033203;0.038086;1.034180;
290349;-0.034180;0.038086;1.032227;
290574;-0.034180;0.035156;1.034180;
290793;-0.033203;0.038086;1.034180;
291014;-0.034180;0.037109;1.034180;
291229;-0.035156;0.038086;1.033203;
291454;-0.035156;0.035156;1.034180;
291674;-0.034180;0.039062;1.034180;
291893;-0.033203;0.038086;1.033203;
292114;-0.034180;0.037109;1.036133;
292334;-0.034180;0.037109;1.033203;
292553;-0.034180;0.038086;1.034180;
292774;-0.036133;0.036133;1.034180;
292994;-0.032227;0.037109;1.034180;
293213;-0.033203;0.037109;1.033203;
293434;-0.033203;0.037109;1.035156;
293649;-0.033203;0.038086;1.035156;
293879;-0.035156;0.036133;1.033203;
294089;-0.034180;0.037109;1.033203;
294299;-0.034180;0.037109;1.033203;
294524;-0.035156;0.035156;1.034180;
294744;-0.034180;0.036133;1.033203;
294963;-0.035156;0.037109;1.034180;
295184;-0.034180;0.038086;1.034180;
295404;-0.034180;0.039062;1.033203;
295624;-0.035156;0.036133;1.034180;
295839;-0.035156;0.036133;1.034180;
296064;-0.035156;0.036133;1.034180;
296284;-0.035156;0.036133;1.034180;
296503;-0.034180;0.039062;1.034180;
296724;-0.034180;0.039062;1.035156;
296944;-0.035156;0.038086;1.035156;
297164;-0.035156;0.037109;1.033203;
297385;-0.035156;0.037109;1.036133;
297609;-0.035156;0.037109;1.034180;
297840;-0.035156;0.037109;1.033203;
298059;-0.035156;0.037109;1.034180;
298270;-0.035156;0.037109;1.034180;
298484;-0.034180;0.037109;1.033203;
298704;-0.034180;0.035156;1.033203;
298924;-0.034180;0.037109;1.035156;
299143;-0.035156;0.037109;1.033203;
299363;-0.035156;0.035156;1.035156;
299583;-0.035156;0.035156;1.033203;
299804;-0.034180;0.036133;1.034180;
300024;-0.034180;0.037109;1.035156;
300244;-0.035156;0.037109;1.035156;
300464;-0.033203;0.037109;1.033203;
300684;-0.034180;0.035156;1.035156;
300903;-0.034180;0.038086;1.035156;
301124;-0.034180;0.039062;1.035156;
301343;-0.035156;0.037109;1.034180;
301559;-0.034180;0.036133;1.035156;
301769;-0.034180;0.038086;1.036133;
301979;-0.035156;0.036133;1.033203;
302209;-0.034180;0.037109;1.034180;
302444;-0.034180;0.038086;1.034180;
302664;-0.035156;0.036133;1.034180;
302884;-0.034180;0.039062;1.035156;
303104;-0.034180;0.037109;1.034180;
303324;-0.036133;0.036133;1.033203;
303544;-0.034180;0.040039;1.035156;
303764;-0.033203;0.039062;1.034180;
303984;-0.034180;0.037109;1.034180;
304203;-0.035156;0.037109;1.033203;
304424;-0.035156;0.037109;1.035156;
304644;-0.034180;0.037109;1.032227;
304864;-0.034180;0.037109;1.035156;
305084;-0.035156;0.036133;1.034180;
305304;-0.034180;0.037109;1.034180;
305519;-0.034180;0.037109;1.035156;
305751;-0.035156;0.038086;1.032227;
305980;-0.034180;0.040039;1.033203;
306189;-0.035156;0.037109;1.033203;
306424;-0.035156;0.037109;1.034180;
306643;-0.035156;0.037109;1.034180;
306864;-0.033203;0.038086;1.035156;
307084;-0.034180;0.038086;1.034180;
307304;-0.036133;0.035156;1.034180;
307523;-0.034180;0.039062;1.035156;
307744;-0.036133;0.035156;1.033203;
307963;-0.035156;0.035156;1.035156;
308184;-0.034180;0.038086;1.034180;
308404;-0.033203;0.039062;1.034180;
308623;-0.034180;0.036133;1.033203;
308843;-0.034180;0.037109;1.033203;
309064;-0.033203;0.039062;1.034180;
309279;-0.034180;0.037109;1.034180;
309499;-0.035156;0.037109;1.035156;
309720;-0.033203;0.037109;1.036133;
309939;-0.034180;0.037109;1.032227;
310159;-0.034180;0.037109;1.036133;
310384;-0.034180;0.038086;1.032227;
310604;-0.034180;0.039062;1.035156;
310824;-0.034180;0.036133;1.036133;
311043;-0.035156;0.036133;1.032227;
311264;-0.034180;0.037109;1.035156;
311484;-0.033203;0.039062;1.033203;
311704;-0.034180;0.037109;1.034180;
311924;-0.034180;0.037109;1.035156;
312144;-0.034180;0.037109;1.034180;
312364;-0.035156;0.038086;1.034180;
312583;-0.032227;0.039062;1.034180;
312804;-0.035156;0.037109;1.034180;
313024;-0.033203;0.037109;1.034180;
313243;-0.034180;0.036133;1.033203;
313449;-0.034180;0.038086;1.032227;
313660;-0.034180;0.036133;1.035156;
313879;-0.033203;0.036133;1.032227;
314089;-0.036133;0.036133;1.033203;
314314;-0.033203;0.038086;1.034180;
314534;-0.034180;0.038086;1.034180;
314754;-0.034180;0.036133;1.033203;
314974;-0.033203;0.037109;1.034180;
315193;-0.035156;0.037109;1.034180;
315415;-0.034180;0.037109;1.033203;
315644;-0.034180;0.037109;1.033203;
315864;-0.034180;0.037109;1.035156;
316084;-0.034180;0.038086;1.035156;
316304;-0.035156;0.038086;1.034180;
316524;-0.033203;0.038086;1.034180;
316744;-0.035156;0.036133;1.032227;
316964;-0.033203;0.038086;1.035156;
317179;-0.033203;0.037109;1.035156;
317389;-0.034180;0.038086;1.036133;
317613;-0.034180;0.038086;1.033203;
317839;-0.034180;0.037109;1.035156;
318069;-0.034180;0.037109;1.033203;
318284;-0.033203;0.038086;1.034180;
318504;-0.033203;0.039062;1.034180;
318724;-0.036133;0.037109;1.033203;
318944;-0.035156;0.037109;1.033203;
319163;-0.033203;0.038086;1.035156;
319384;-0.034180;0.038086;1.035156;
319604;-0.034180;0.037109;1.033203;
319824;-0.035156;0.036133;1.034180;
320044;-0.034180;0.037109;1.034180;
320264;-0.034180;0.037109;1.034180;
320474;-0.033203;0.038086;1.035156;
320694;-0.035156;0.038086;1.034180;
320914;-0.034180;0.037109;1.033203;
321133;-0.035156;0.038086;1.035156;
321349;-0.035156;0.037109;1.033203;
321579;-0.033203;0.038086;1.035156;
321809;-0.034180;0.038086;1.035156;
322029;-0.035156;0.036133;1.034180;
322254;-0.033203;0.038086;1.035156;
322473;-0.034180;0.037109;1.033203;
322694;-0.035156;0.038086;1.033203;
322913;-0.035156;0.037109;1.033203;
323133;-0.034180;0.037109;1.033203;
323354;-0.033203;0.036133;1.034180;
323573;-0.034180;0.037109;1.034180;
323784;-0.033203;0.037109;1.035156;
324004;-0.035156;0.036133;1.035156;
324224;-0.034180;0.038086;1.034180;
324444;-0.034180;0.038086;1.035156;
324659;-0.034180;0.038086;1.034180;
324883;-0.035156;0.037109;1.033203;
325104;-0.035156;0.036133;1.035156;
325319;-0.035156;0.037109;1.034180;
325539;-0.035156;0.038086;1.035156;
325749;-0.035156;0.037109;1.035156;
325969;-0.034180;0.036133;1.034180;
326194;-0.036133;0.037109;1.034180;
326413;-0.034180;0.038086;1.035156;
326634;-0.034180;0.037109;1.032227;
326854;-0.035156;0.038086;1.034180;
327074;-0.035156;0.036133;1.033203;
327293;-0.034180;0.035156;1.033203;
327514;-0.035156;0.038086;1.035156;
327734;-0.034180;0.038086;1.035156;
327953;-0.034180;0.038086;1.034180;
328174;-0.033203;0.038086;1.034180;
328394;-0.033203;0.038086;1.034180;
328613;-0.036133;0.035156;1.034180;
328829;-0.036133;0.036133;1.035156;
329053;-0.036133;0.037109;1.033203;
329259;-0.035156;0.035156;1.034180;
329480;-0.035156;0.037109;1.035156;
329690;-0.034180;0.038086;1.034180;
329909;-0.033203;0.038086;1.034180;
330134;-0.033203;0.038086;1.034180;
330354;-0.034180;0.038086;1.035156;
330574;-0.034180;0.037109;1.035156;
330794;-0.035156;0.036133;1.034180;
331009;-0.034180;0.037109;1.035156;
331233;-0.034180;0.038086;1.034180;
331453;-0.034180;0.037109;1.033203;
331674;-0.034180;0.039062;1.034180;
331894;-0.034180;0.037109;1.036133;
332114;-0.035156;0.037109;1.033203;
332334;-0.034180;0.038086;1.034180;
332549;-0.034180;0.039062;1.034180;
332774;-0.035156;0.035156;1.033203;
332989;-0.035156;0.038086;1.035156;
333199;-0.035156;0.038086;1.035156;
333419;-0.034180;0.038086;1.034180;
333639;-0.035156;0.036133;1.033203;
333864;-0.035156;0.037109;1.036133;
334083;-0.034180;0.038086;1.033203;
334304;-0.036133;0.038086;1.036133;
334524;-0.034180;0.037109;1.034180;
334743;-0.035156;0.038086;1.035156;
334959;-0.035156;0.036133;1.034180;
335184;-0.035156;0.039062;1.035156;
335404;-0.033203;0.037109;1.033203;
335624;-0.034180;0.037109;1.035156;
335843;-0.034180;0.038086;1.034180;
336064;-0.035156;0.038086;1.034180;
336284;-0.035156;0.036133;1.034180;
336503;-0.035156;0.037109;1.032227;
336723;-0.035156;0.037109;1.035156;
336940;-0.035156;0.036133;1.034180;
337159;-0.034180;0.036133;1.033203;
337379;-0.034180;0.038086;1.035156;
337611;-0.034180;0.039062;1.033203;
337834;-0.035156;0.036133;1.034180;
338054;-0.035156;0.038086;1.035156;
338264;-0.035156;0.035156;1.034180;
338484;-0.034180;0.038086;1.034180;
338703;-0.035156;0.037109;1.035156;
338923;-0.034180;0.038086;1.034180;
339139;-0.032227;0.038086;1.035156;
339364;-0.034180;0.038086;1.035156;
339584;-0.035156;0.038086;1.033203;
339804;-0.034180;0.036133;1.035156;
340023;-0.035156;0.037109;1.034180;
340244;-0.034180;0.040039;1.034180;
340463;-0.035156;0.038086;1.033203;
340684;-0.033203;0.037109;1.034180;
340889;-0.034180;0.039062;1.033203;
341109;-0.035156;0.038086;1.035156;
341330;-0.033203;0.038086;1.035156;
341539;-0.034180;0.036133;1.034180;
341774;-0.034180;0.038086;1.034180;
341994;-0.035156;0.037109;1.034180;
342214;-0.035156;0.036133;1.035156;
342434;-0.034180;0.037109;1.034180;
342654;-0.035156;0.036133;1.033203;
342874;-0.035156;0.038086;1.033203;
343094;-0.035156;0.037109;1.035156;
343314;-0.034180;0.038086;1.033203;
343533;-0.034180;0.037109;1.034180;
343753;-0.034180;0.038086;1.033203;
343974;-0.035156;0.038086;1.033203;
344194;-0.034180;0.036133;1.034180;
344409;-0.034180;0.037109;1.035156;
344629;-0.035156;0.038086;1.035156;
344839;-0.034180;0.039062;1.036133;
345069;-0.035156;0.039062;1.035156;
345279;-0.033203;0.037109;1.032227;
345514;-0.035156;0.037109;1.036133;
345734;-0.035156;0.037109;1.034180;
345954;-0.035156;0.037109;1.035156;
346173;-0.034180;0.038086;1.035156;
346393;-0.035156;0.037109;1.036133;
346614;-0.035156;0.038086;1.035156;
346834;-0.035156;0.037109;1.035156;
347054;-0.034180;0.034180;1.035156;
347274;-0.035156;0.037109;1.036133;
347489;-0.035156;0.037109;1.035156;
347714;-0.035156;0.036133;1.034180;
347934;-0.034180;0.037109;1.034180;
348154;-0.034180;0.038086;1.035156;
348373;-0.034180;0.038086;1.035156;
348589;-0.035156;0.037109;1.036133;
348810;-0.033203;0.038086;1.035156;
349019;-0.035156;0.037109;1.036133;
349240;-0.034180;0.038086;1.034180;
349454;-0.035156;0.037109;1.034180;
349675;-0.035156;0.037109;1.033203;
349904;-0.033203;0.038086;1.036133;
350124;-0.034180;0.038086;1.035156;
350344;-0.034180;0.037109;1.036133;
350563;-0.034180;0.037109;1.034180;
350784;-0.035156;0.039062;1.034180;
351004;-0.035156;0.037109;1.033203;
351224;-0.035156;0.037109;1.034180;
351443;-0.033203;0.038086;1.034180;
351664;-0.033203;0.038086;1.033203;
351883;-0.035156;0.037109;1.033203;
352104;-0.034180;0.038086;1.033203;
352324;-0.033203;0.038086;1.035156;
352530;-0.033203;0.039062;1.033203;
352749;-0.034180;0.039062;1.035156;
352959;-0.034180;0.037109;1.034180;
353189;-0.034180;0.038086;1.035156;
353424;-0.035156;0.036133;1.034180;
353644;-0.034180;0.037109;1.033203;
353863;-0.033203;0.037109;1.035156;
354084;-0.034180;0.036133;1.033203;
354303;-0.034180;0.037109;1.036133;
354524;-0.034180;0.039062;1.035156;
354744;-0.035156;0.038086;1.034180;
354964;-0.034180;0.036133;1.034180;
355183;-0.033203;0.038086;1.037109;
355403;-0.034180;0.036133;1.036133;
355624;-0.035156;0.036133;1.034180;
355844;-0.036133;0.036133;1.034180;
356064;-0.035156;0.037109;1.034180;
356279;-0.034180;0.038086;1.033203;
356490;-0.035156;0.038086;1.035156;
356719;-0.034180;0.038086;1.036133;
356940;-0.035156;0.036133;1.034180;
357179;-0.033203;0.038086;1.035156;
357404;-0.036133;0.035156;1.033203;
357624;-0.034180;0.036133;1.033203;
357844;-0.034180;0.038086;1.035156;
358054;-0.034180;0.037109;1.035156;
358273;-0.034180;0.038086;1.034180;
358494;-0.034180;0.037109;1.036133;
358714;-0.034180;0.038086;1.036133;
358934;-0.035156;0.036133;1.034180;
359154;-0.035156;0.036133;1.033203;
359373;-0.035156;0.036133;1.034180;
359594;-0.035156;0.038086;1.035156;
359814;-0.034180;0.037109;1.035156;
360034;-0.035156;0.037109;1.034180;
360254;-0.034180;0.036133;1.035156;
360469;-0.033203;0.039062;1.036133;
360699;-0.033203;0.039062;1.035156;
360919;-0.035156;0.037109;1.036133;
361130;-0.035156;0.035156;1.035156;
361344;-0.035156;0.038086;1.035156;
361563;-0.034180;0.038086;1.036133;
361784;-0.036133;0.036133;1.033203;
362003;-0.035156;0.035156;1.034180;
362224;-0.033203;0.037109;1.034180;
362444;-0.034180;0.035156;1.034180;
362664;-0.034180;0.037109;1.035156;
362884;-0.035156;0.037109;1.035156;
363103;-0.035156;0.038086;1.035156;
363324;-0.034180;0.037109;1.035156;
363544;-0.034180;0.037109;1.034180;
363764;-0.033203;0.037109;1.037109;
363984;-0.034180;0.038086;1.034180;
364204;-0.035156;0.035156;1.036133;
364419;-0.035156;0.037109;1.036133;
364629;-0.034180;0.038086;1.032227;
364850;-0.034180;0.037109;1.035156;
365069;-0.033203;0.037109;1.033203;
365299;-0.035156;0.037109;1.033203;
365513;-0.034180;0.038086;1.034180;
365734;-0.034180;0.037109;1.035156;
365955;-0.034180;0.038086;1.033203;
366184;-0.033203;0.037109;1.034180;
366404;-0.035156;0.036133;1.036133;
366624;-0.035156;0.037109;1.036133;
366843;-0.034180;0.036133;1.034180;
367064;-0.035156;0.037109;1.034180;
367284;-0.034180;0.038086;1.035156;
367504;-0.033203;0.040039;1.034180;
367724;-0.035156;0.038086;1.034180;
367944;-0.033203;0.039062;1.035156;
368164;-0.035156;0.038086;1.034180;
368379;-0.035156;0.038086;1.034180;
368590;-0.034180;0.037109;1.033203;
368809;-0.034180;0.039062;1.034180;
369019;-0.035156;0.036133;1.036133;
369249;-0.034180;0.037109;1.033203;
369473;-0.034180;0.036133;1.035156;
369689;-0.034180;0.036133;1.034180;
369914;-0.034180;0.037109;1.033203;
370133;-0.034180;0.038086;1.036133;
370353;-0.035156;0.037109;1.036133;
370573;-0.034180;0.038086;1.035156;
370794;-0.035156;0.038086;1.034180;
371014;-0.035156;0.036133;1.034180;
371234;-0.035156;0.038086;1.035156;
371454;-0.033203;0.039062;1.035156;
371674;-0.034180;0.038086;1.034180;
371894;-0.034180;0.036133;1.034180;
372114;-0.035156;0.036133;1.033203;
372334;-0.034180;0.038086;1.036133;
372549;-0.033203;0.039062;1.033203;
372769;-0.035156;0.037109;1.035156;
372999;-0.036133;0.036133;1.034180;
373219;-0.035156;0.036133;1.033203;
373434;-0.035156;0.038086;1.036133;
373653;-0.034180;0.038086;1.034180;
373874;-0.036133;0.037109;1.033203;
374094;-0.035156;0.036133;1.034180;
374309;-0.035156;0.039062;1.033203;
374534;-0.035156;0.038086;1.036133;
374754;-0.033203;0.037109;1.034180;
374974;-0.036133;0.038086;1.036133;
375194;-0.034180;0.037109;1.034180;
375414;-0.034180;0.038086;1.034180;
375634;-0.032227;0.038086;1.036133;
375855;-0.035156;0.038086;1.033203;
376083;-0.036133;0.038086;1.034180;
376304;-0.035156;0.037109;1.035156;
376519;-0.035156;0.037109;1.035156;
376739;-0.035156;0.037109;1.036133;
376959;-0.034180;0.038086;1.035156;
377170;-0.034180;0.037109;1.035156;
377394;-0.035156;0.037109;1.035156;
377614;-0.034180;0.037109;1.034180;
377834;-0.034180;0.037109;1.034180;
378055;-0.035156;0.037109;1.034180;
378284;-0.035156;0.038086;1.035156;
378504;-0.035156;0.039062;1.035156;
378724;-0.033203;0.038086;1.034180;
378944;-0.034180;0.038086;1.036133;
379164;-0.034180;0.038086;1.034180;
379383;-0.034180;0.036133;1.035156;
379604;-0.034180;0.037109;1.035156;
379824;-0.035156;0.037109;1.033203;
380044;-0.035156;0.037109;1.035156;
380263;-0.034180;0.037109;1.035156;
380469;-0.034180;0.038086;1.033203;
380679;-0.034180;0.037109;1.035156;
380909;-0.035156;0.037109;1.034180;
381139;-0.036133;0.039062;1.034180;
381364;-0.034180;0.037109;1.033203;
381584;-0.034180;0.039062;1.035156;
381804;-0.034180;0.038086;1.035156;
382023;-0.035156;0.037109;1.034180;
382244;-0.034180;0.039062;1.034180;
382524;-0.034180;0.038086;1.035156;
382754;-0.034180;0.038086;1.035156;
382974;-0.034180;0.036133;1.035156;
383195;-0.035156;0.036133;1.034180;
383424;-0.034180;0.039062;1.036133;
383643;-0.035156;0.037109;1.036133;
383863;-0.035156;0.038086;1.036133;
384083;-0.034180;0.037109;1.036133;
384304;-0.034180;0.037109;1.033203;
384519;-0.034180;0.037109;1.036133;
384741;-0.035156;0.036133;1.034180;
384969;-0.034180;0.038086;1.035156;
385189;-0.036133;0.036133;1.034180;
385399;-0.034180;0.039062;1.034180;
385624;-0.034180;0.038086;1.034180;
385844;-0.035156;0.037109;1.034180;
386063;-0.035156;0.038086;1.034180;
386283;-0.035156;0.037109;1.036133;
386504;-0.035156;0.037109;1.035156;
386723;-0.035156;0.038086;1.035156;
386944;-0.035156;0.038086;1.036133;
387153;-0.035156;0.039062;1.034180;
387374;-0.034180;0.038086;1.034180;
387594;-0.035156;0.037109;1.035156;
387813;-0.035156;0.039062;1.037109;
388034;-0.035156;0.037109;1.035156;
388254;-0.033203;0.038086;1.035156;
388474;-0.035156;0.037109;1.035156;
388690;-0.035156;0.037109;1.035156;
388899;-0.033203;0.037109;1.033203;
389119;-0.035156;0.038086;1.035156;
389340;-0.034180;0.037109;1.034180;
389569;-0.035156;0.038086;1.034180;
389789;-0.034180;0.037109;1.034180;
390014;-0.035156;0.038086;1.036133;
390234;-0.033203;0.039062;1.035156;
390453;-0.034180;0.038086;1.035156;
390674;-0.035156;0.036133;1.034180;
390894;-0.035156;0.036133;1.036133;
391114;-0.035156;0.037109;1.036133;
391334;-0.034180;0.040039;1.034180;
391553;-0.035156;0.039062;1.036133;
391774;-0.034180;0.036133;1.033203;
391984;-0.036133;0.037109;1.034180;
392204;-0.034180;0.038086;1.034180;
392424;-0.034180;0.038086;1.033203;
392643;-0.035156;0.037109;1.033203;
392859;-0.034180;0.038086;1.035156;
393079;-0.034180;0.038086;1.035156;
393299;-0.033203;0.038086;1.035156;
393513;-0.034180;0.037109;1.035156;
393719;-0.033203;0.037109;1.035156;
393934;-0.034180;0.038086;1.033203;
394149;-0.034180;0.036133;1.033203;
394374;-0.034180;0.037109;1.034180;
394594;-0.034180;0.038086;1.036133;
394813;-0.034180;0.037109;1.035156;
395033;-0.035156;0.037109;1.035156;
395254;-0.034180;0.038086;1.034180;
395474;-0.034180;0.038086;1.036133;
395694;-0.032227;0.039062;1.034180;
395913;-0.034180;0.037109;1.034180;
396133;-0.035156;0.036133;1.036133;
396354;-0.034180;0.037109;1.035156;
396573;-0.034180;0.039062;1.034180;
396794;-0.035156;0.037109;1.035156;
397009;-0.034180;0.036133;1.034180;
397240;-0.034180;0.038086;1.034180;
397459;-0.034180;0.039062;1.034180;
397679;-0.034180;0.036133;1.034180;
397914;-0.035156;0.037109;1.035156;
398133;-0.034180;0.038086;1.033203;
398354;-0.034180;0.036133;1.035156;
398573;-0.034180;0.038086;1.034180;
398794;-0.035156;0.036133;1.032227;
399014;-0.034180;0.038086;1.037109;
399234;-0.034180;0.038086;1.035156;
399444;-0.035156;0.037109;1.035156;
399663;-0.035156;0.037109;1.035156;
399884;-0.033203;0.039062;1.036133;
400104;-0.033203;0.039062;1.035156;
400324;-0.035156;0.038086;1.036133;
400544;-0.034180;0.037109;1.036133;
400759;-0.033203;0.038086;1.035156;
400989;-0.034180;0.036133;1.035156;
401219;-0.034180;0.039062;1.034180;
401439;-0.035156;0.037109;1.036133;
401674;-0.034180;0.037109;1.034180;
401893;-0.033203;0.037109;1.033203;
402114;-0.035156;0.037109;1.035156;
402333;-0.034180;0.037109;1.035156;
402554;-0.035156;0.037109;1.033203;
402774;-0.035156;0.038086;1.036133;
402994;-0.034180;0.037109;1.035156;
403213;-0.035156;0.039062;1.034180;
403434;-0.034180;0.038086;1.035156;
403654;-0.036133;0.036133;1.034180;
403874;-0.034180;0.036133;1.036133;
404093;-0.035156;0.035156;1.035156;
404314;-0.034180;0.038086;1.036133;
404534;-0.035156;0.038086;1.035156;
404749;-0.035156;0.039062;1.036133;
404969;-0.034180;0.038086;1.032227;
405189;-0.033203;0.037109;1.035156;
405410;-0.035156;0.038086;1.035156;
405634;-0.035156;0.036133;1.035156;
405854;-0.035156;0.037109;1.036133;
406074;-0.033203;0.037109;1.034180;
406294;-0.035156;0.037109;1.037109;
406509;-0.034180;0.036133;1.034180;
406734;-0.036133;0.036133;1.035156;
406954;-0.035156;0.038086;1.034180;
407173;-0.033203;0.038086;1.037109;
407393;-0.035156;0.037109;1.035156;
407614;-0.035156;0.037109;1.037109;
407833;-0.033203;0.039062;1.033203;
408054;-0.035156;0.037109;1.037109;
408273;-0.033203;0.038086;1.033203;
408494;-0.034180;0.038086;1.035156;
408711;-0.033203;0.036133;1.034180;
408929;-0.033203;0.038086;1.036133;
409149;-0.034180;0.037109;1.034180;
409359;-0.034180;0.038086;1.033203;
409579;-0.034180;0.037109;1.037109;
409804;-0.035156;0.037109;1.036133;
410024;-0.034180;0.037109;1.035156;
410243;-0.035156;0.037109;1.035156;
410464;-0.033203;0.038086;1.034180;
410684;-0.032227;0.038086;1.034180;
410904;-0.035156;0.035156;1.035156;
411125;-0.034180;0.038086;1.035156;
411354;-0.034180;0.037109;1.036133;
411574;-0.033203;0.038086;1.034180;
411794;-0.034180;0.039062;1.035156;
412014;-0.034180;0.038086;1.033203;
412234;-0.035156;0.037109;1.037109;
412454;-0.034180;0.037109;1.034180;
412669;-0.034180;0.038086;1.035156;
412889;-0.035156;0.036133;1.035156;
413099;-0.035156;0.036133;1.035156;
413309;-0.035156;0.036133;1.032227;
413524;-0.034180;0.039062;1.035156;
413743;-0.035156;0.037109;1.035156;
413964;-0.035156;0.039062;1.035156;
414184;-0.034180;0.038086;1.034180;
414404;-0.034180;0.037109;1.034180;
414624;-0.035156;0.037109;1.036133;
414843;-0.035156;0.037109;1.034180;
415063;-0.035156;0.037109;1.036133;
415283;-0.034180;0.038086;1.033203;
415504;-0.036133;0.037109;1.036133;
415724;-0.035156;0.037109;1.036133;
415944;-0.035156;0.037109;1.036133;
416164;-0.034180;0.036133;1.034180;
416384;-0.034180;0.037109;1.037109;
416599;-0.033203;0.039062;1.035156;
416809;-0.033203;0.039062;1.036133;
417019;-0.035156;0.036133;1.035156;
417239;-0.034180;0.036133;1.035156;
417474;-0.034180;0.036133;1.037109;
417693;-0.035156;0.036133;1.035156;
417914;-0.035156;0.036133;1.034180;
418134;-0.034180;0.038086;1.035156;
418355;-0.034180;0.038086;1.034180;
418584;-0.034180;0.038086;1.036133;
418804;-0.034180;0.037109;1.036133;
419024;-0.034180;0.038086;1.035156;
419243;-0.034180;0.038086;1.034180;
419464;-0.035156;0.036133;1.033203;
419684;-0.034180;0.037109;1.036133;
419904;-0.034180;0.037109;1.035156;
420124;-0.034180;0.036133;1.036133;
420340;-0.034180;0.037109;1.034180;
420549;-0.035156;0.037109;1.034180;
420769;-0.034180;0.037109;1.035156;
420989;-0.035156;0.038086;1.036133;
421224;-0.035156;0.037109;1.033203;
421443;-0.035156;0.036133;1.036133;
421665;-0.034180;0.037109;1.034180;
421894;-0.034180;0.039062;1.035156;
422114;-0.034180;0.038086;1.035156;
422334;-0.034180;0.038086;1.036133;
422554;-0.035156;0.037109;1.035156;
422774;-0.034180;0.038086;1.037109;
422994;-0.036133;0.037109;1.035156;
423214;-0.034180;0.037109;1.034180;
423433;-0.035156;0.038086;1.034180;
423654;-0.033203;0.038086;1.033203;
423873;-0.035156;0.036133;1.034180;
424093;-0.034180;0.037109;1.034180;
424309;-0.034180;0.037109;1.034180;
424519;-0.036133;0.036133;1.034180;
424729;-0.035156;0.038086;1.035156;
424959;-0.034180;0.038086;1.034180;
425173;-0.035156;0.037109;1.034180;
425394;-0.034180;0.038086;1.035156;
425614;-0.035156;0.037109;1.034180;
425834;-0.034180;0.037109;1.035156;
426054;-0.035156;0.037109;1.037109;
426273;-0.035156;0.038086;1.035156;
426493;-0.034180;0.037109;1.034180;
426713;-0.035156;0.038086;1.036133;
426933;-0.035156;0.037109;1.034180;
427154;-0.035156;0.037109;1.034180;
427374;-0.036133;0.038086;1.034180;
427595;-0.035156;0.038086;1.035156;
427824;-0.035156;0.036133;1.034180;
428039;-0.035156;0.037109;1.035156;
428249;-0.035156;0.036133;1.034180;
428459;-0.035156;0.035156;1.036133;
428671;-0.034180;0.037109;1.034180;
428879;-0.035156;0.038086;1.036133;
429093;-0.035156;0.038086;1.034180;
429314;-0.035156;0.036133;1.034180;
429534;-0.034180;0.037109;1.036133;
429749;-0.035156;0.037109;1.034180;
429974;-0.035156;0.036133;1.035156;
430193;-0.035156;0.037109;1.034180;
430414;-0.034180;0.037109;1.035156;
430634;-0.034180;0.035156;1.034180;
430854;-0.035156;0.037109;1.035156;
431073;-0.036133;0.037109;1.034180;
431294;-0.034180;0.038086;1.033203;
431513;-0.034180;0.037109;1.035156;
431734;-0.034180;0.038086;1.036133;
431955;-0.035156;0.038086;1.036133;
432169;-0.033203;0.038086;1.034180;
432379;-0.034180;0.039062;1.035156;
432599;-0.034180;0.038086;1.036133;
432819;-0.034180;0.038086;1.036133;
433044;-0.034180;0.039062;1.034180;
433264;-0.034180;0.038086;1.036133;
433484;-0.033203;0.039062;1.035156;
433704;-0.034180;0.037109;1.035156;
433924;-0.035156;0.037109;1.035156;
434144;-0.036133;0.038086;1.036133;
434364;-0.034180;0.037109;1.034180;
434584;-0.034180;0.039062;1.036133;
434803;-0.034180;0.038086;1.035156;
435024;-0.035156;0.037109;1.037109;
435244;-0.034180;0.038086;1.036133;
435464;-0.036133;0.036133;1.036133;
435684;-0.035156;0.036133;1.034180;
435905;-0.035156;0.039062;1.036133;
436129;-0.036133;0.037109;1.035156;
436340;-0.036133;0.036133;1.035156;
436559;-0.036133;0.037109;1.035156;
436779;-0.035156;0.038086;1.035156;
437014;-0.034180;0.037109;1.035156;
437233;-0.034180;0.039062;1.036133;
437454;-0.035156;0.037109;1.034180;
437674;-0.034180;0.038086;1.037109;
437893;-0.034180;0.038086;1.033203;
438114;-0.037109;0.036133;1.034180;
438334;-0.034180;0.036133;1.034180;
438554;-0.033203;0.036133;1.035156;
438774;-0.035156;0.037109;1.033203;
438989;-0.035156;0.036133;1.034180;
439213;-0.035156;0.037109;1.034180;
439434;-0.034180;0.038086;1.035156;
439654;-0.034180;0.036133;1.033203;
439873;-0.034180;0.038086;1.036133;
440089;-0.035156;0.036133;1.034180;
440309;-0.034180;0.038086;1.034180;
440523;-0.033203;0.038086;1.035156;
440739;-0.034180;0.039062;1.034180;
440969;-0.034180;0.038086;1.036133;
441205;-0.034180;0.037109;1.034180;
441433;-0.036133;0.036133;1.035156;
441654;-0.034180;0.037109;1.035156;
441873;-0.033203;0.039062;1.036133;
442093;-0.034180;0.038086;1.035156;
442314;-0.034180;0.037109;1.036133;
442534;-0.033203;0.038086;1.036133;
442754;-0.036133;0.036133;1.035156;
442974;-0.033203;0.039062;1.036133;
443194;-0.032227;0.038086;1.035156;
443414;-0.034180;0.038086;1.035156;
443634;-0.035156;0.038086;1.035156;
443854;-0.032227;0.038086;1.036133;
444074;-0.035156;0.039062;1.035156;
444289;-0.034180;0.037109;1.036133;
444519;-0.034180;0.039062;1.035156;
444729;-0.034180;0.037109;1.035156;
444959;-0.034180;0.037109;1.036133;
445179;-0.032227;0.038086;1.034180;
445413;-0.034180;0.038086;1.036133;
445634;-0.035156;0.038086;1.035156;
445854;-0.034180;0.038086;1.036133;
446073;-0.034180;0.037109;1.035156;
446294;-0.034180;0.037109;1.033203;
446514;-0.033203;0.037109;1.035156;
446734;-0.035156;0.037109;1.035156;
446954;-0.034180;0.037109;1.035156;
447173;-0.034180;0.037109;1.035156;
447394;-0.034180;0.037109;1.034180;
447613;-0.034180;0.038086;1.034180;
447834;-0.036133;0.037109;1.035156;
448053;-0.035156;0.036133;1.035156;
448269;-0.034180;0.037109;1.033203;
448489;-0.033203;0.037109;1.033203;
448699;-0.033203;0.039062;1.034180;
448919;-0.035156;0.036133;1.036133;
449130;-0.034180;0.037109;1.034180;
449354;-0.035156;0.037109;1.035156;
449574;-0.035156;0.037109;1.034180;
449794;-0.033203;0.037109;1.036133;
450014;-0.034180;0.038086;1.036133;
450234;-0.033203;0.038086;1.035156;
450454;-0.035156;0.036133;1.036133;
450674;-0.035156;0.037109;1.035156;
450894;-0.034180;0.040039;1.036133;
451114;-0.035156;0.037109;1.035156;
451335;-0.034180;0.038086;1.035156;
451564;-0.034180;0.039062;1.034180;
451784;-0.033203;0.038086;1.037109;
452004;-0.034180;0.036133;1.035156;
452223;-0.036133;0.037109;1.035156;
452439;-0.035156;0.036133;1.035156;
452649;-0.035156;0.038086;1.035156;
452859;-0.036133;0.038086;1.036133;
453079;-0.034180;0.038086;1.034180;
453299;-0.035156;0.037109;1.034180;
453514;-0.034180;0.037109;1.037109;
453734;-0.034180;0.038086;1.035156;
453954;-0.034180;0.038086;1.037109;
454174;-0.035156;0.037109;1.036133;
454394;-0.034180;0.038086;1.035156;
454615;-0.035156;0.036133;1.035156;
454844;-0.035156;0.037109;1.035156;
455064;-0.034180;0.036133;1.033203;
455284;-0.034180;0.037109;1.035156;
455504;-0.034180;0.038086;1.036133;
455724;-0.034180;0.039062;1.035156;
455944;-0.034180;0.036133;1.034180;
456164;-0.034180;0.036133;1.034180;
456385;-0.033203;0.036133;1.034180;
456609;-0.032227;0.037109;1.034180;
456820;-0.035156;0.037109;1.033203;
457039;-0.034180;0.037109;1.035156;
457249;-0.034180;0.037109;1.036133;
457474;-0.034180;0.037109;1.035156;
457694;-0.033203;0.039062;1.035156;
457914;-0.034180;0.038086;1.035156;
458134;-0.034180;0.037109;1.034180;
458354;-0.034180;0.037109;1.036133;
458574;-0.033203;0.038086;1.035156;
458794;-0.034180;0.039062;1.037109;
459014;-0.034180;0.036133;1.034180;
459233;-0.034180;0.037109;1.033203;
459454;-0.033203;0.039062;1.036133;
459673;-0.034180;0.040039;1.034180;
459894;-0.034180;0.038086;1.035156;
460114;-0.034180;0.037109;1.034180;
460332;-0.036133;0.037109;1.037109;
460559;-0.034180;0.039062;1.035156;
460789;-0.034180;0.038086;1.036133;
461010;-0.033203;0.037109;1.036133;
461234;-0.035156;0.036133;1.035156;
461454;-0.036133;0.037109;1.035156;
461673;-0.035156;0.037109;1.035156;
461893;-0.034180;0.039062;1.036133;
462114;-0.035156;0.038086;1.032227;
462333;-0.035156;0.037109;1.036133;
462554;-0.035156;0.038086;1.035156;
462774;-0.035156;0.037109;1.036133;
462994;-0.032227;0.040039;1.035156;
463209;-0.034180;0.037109;1.036133;
463434;-0.034180;0.038086;1.036133;
463653;-0.033203;0.039062;1.037109;
463874;-0.036133;0.037109;1.034180;
464094;-0.032227;0.039062;1.035156;
464299;-0.034180;0.038086;1.035156;
464519;-0.035156;0.038086;1.035156;
464739;-0.035156;0.037109;1.035156;
464969;-0.034180;0.039062;1.033203;
465194;-0.034180;0.038086;1.034180;
465414;-0.034180;0.037109;1.036133;
465633;-0.033203;0.038086;1.035156;
465854;-0.034180;0.036133;1.035156;
466074;-0.035156;0.037109;1.034180;
466293;-0.034180;0.039062;1.035156;
466514;-0.033203;0.037109;1.034180;
466734;-0.034180;0.037109;1.034180;
466953;-0.034180;0.039062;1.034180;
467175;-0.034180;0.038086;1.036133;
467403;-0.035156;0.036133;1.035156;
467623;-0.037109;0.036133;1.035156;
467844;-0.034180;0.038086;1.034180;
468063;-0.035156;0.037109;1.036133;
468269;-0.035156;0.039062;1.035156;
468489;-0.034180;0.039062;1.035156;
468719;-0.035156;0.037109;1.036133;
468929;-0.034180;0.036133;1.036133;
469144;-0.034180;0.038086;1.036133;
469364;-0.035156;0.034180;1.036133;
469584;-0.034180;0.037109;1.035156;
469804;-0.035156;0.040039;1.035156;
470024;-0.034180;0.038086;1.035156;
470244;-0.034180;0.038086;1.035156;
470459;-0.034180;0.035156;1.034180;
470684;-0.034180;0.038086;1.034180;
470904;-0.035156;0.036133;1.035156;
471123;-0.034180;0.039062;1.036133;
471344;-0.034180;0.038086;1.035156;
471564;-0.034180;0.037109;1.036133;
471783;-0.035156;0.038086;1.034180;
471999;-0.035156;0.037109;1.034180;
472209;-0.034180;0.037109;1.035156;
472429;-0.035156;0.038086;1.036133;
472640;-0.033203;0.038086;1.035156;
472849;-0.034180;0.038086;1.035156;
473074;-0.033203;0.038086;1.035156;
473293;-0.035156;0.038086;1.036133;
473514;-0.035156;0.038086;1.035156;
473734;-0.034180;0.038086;1.035156;
473954;-0.034180;0.037109;1.033203;
474174;-0.035156;0.039062;1.035156;
474394;-0.034180;0.036133;1.034180;
474614;-0.034180;0.038086;1.035156;
474833;-0.034180;0.039062;1.035156;
475054;-0.035156;0.037109;1.036133;
475274;-0.033203;0.038086;1.036133;
475494;-0.034180;0.037109;1.035156;
475714;-0.035156;0.038086;1.036133;
475935;-0.035156;0.036133;1.036133;
476149;-0.034180;0.039062;1.034180;
476360;-0.035156;0.037109;1.034180;
476570;-0.034180;0.037109;1.034180;
476789;-0.035156;0.037109;1.035156;
477013;-0.035156;0.037109;1.034180;
477234;-0.035156;0.037109;1.036133;
477454;-0.035156;0.037109;1.036133;
477674;-0.032227;0.038086;1.036133;
477894;-0.034180;0.037109;1.035156;
478114;-0.035156;0.035156;1.035156;
478334;-0.034180;0.037109;1.034180;
478554;-0.033203;0.039062;1.035156;
478773;-0.035156;0.038086;1.034180;
478994;-0.033203;0.036133;1.035156;
479214;-0.034180;0.038086;1.036133;
479434;-0.034180;0.037109;1.037109;
479653;-0.035156;0.037109;1.037109;
479869;-0.034180;0.035156;1.036133;
480084;-0.034180;0.037109;1.036133;
480300;-0.034180;0.037109;1.034180;
480519;-0.035156;0.038086;1.037109;
480729;-0.035156;0.038086;1.036133;
480944;-0.036133;0.035156;1.035156;
481163;-0.033203;0.035156;1.036133;
481384;-0.034180;0.037109;1.034180;
481604;-0.034180;0.038086;1.037109;
481824;-0.033203;0.039062;1.035156;
482044;-0.034180;0.036133;1.036133;
482264;-0.034180;0.037109;1.034180;
482484;-0.035156;0.037109;1.037109;
482704;-0.035156;0.036133;1.034180;
482923;-0.034180;0.036133;1.035156;
483143;-0.035156;0.037109;1.036133;
483359;-0.035156;0.037109;1.035156;
483584;-0.033203;0.038086;1.035156;
483799;-0.033203;0.037109;1.036133;
484009;-0.034180;0.037109;1.034180;
484219;-0.033203;0.040039;1.036133;
484449;-0.034180;0.037109;1.034180;
484669;-0.035156;0.038086;1.035156;
484894;-0.034180;0.037109;1.036133;
485114;-0.035156;0.036133;1.036133;
485334;-0.034180;0.039062;1.035156;
485554;-0.033203;0.040039;1.035156;
485773;-0.034180;0.037109;1.035156;
485994;-0.033203;0.038086;1.036133;
486214;-0.035156;0.038086;1.036133;
486434;-0.033203;0.036133;1.037109;
486664;-0.034180;0.036133;1.036133;
486883;-0.035156;0.037109;1.034180;
487104;-0.036133;0.037109;1.036133;
487324;-0.033203;0.038086;1.036133;
487544;-0.033203;0.038086;1.035156;
487759;-0.034180;0.038086;1.036133;
487989;-0.034180;0.039062;1.036133;
488200;-0.035156;0.037109;1.035156;
488429;-0.034180;0.036133;1.035156;
488639;-0.034180;0.037109;1.035156;
488874;-0.034180;0.037109;1.035156;
489094;-0.033203;0.038086;1.035156;
489314;-0.034180;0.039062;1.036133;
489534;-0.034180;0.038086;1.036133;
489754;-0.033203;0.038086;1.035156;
489973;-0.034180;0.035156;1.034180;
490194;-0.034180;0.037109;1.037109;
490414;-0.036133;0.036133;1.035156;
490634;-0.034180;0.039062;1.034180;
490844;-0.034180;0.037109;1.035156;
491064;-0.035156;0.039062;1.036133;
491284;-0.034180;0.038086;1.034180;
491504;-0.036133;0.037109;1.036133;
491720;-0.035156;0.038086;1.035156;
491949;-0.034180;0.040039;1.036133;
492169;-0.033203;0.038086;1.035156;
492389;-0.035156;0.036133;1.035156;
492599;-0.034180;0.036133;1.035156;
492813;-0.035156;0.036133;1.035156;
493034;-0.033203;0.039062;1.035156;
493254;-0.034180;0.039062;1.035156;
493473;-0.033203;0.039062;1.035156;
493689;-0.035156;0.037109;1.036133;
493914;-0.034180;0.037109;1.037109;
494134;-0.034180;0.036133;1.033203;
494354;-0.035156;0.037109;1.034180;
494573;-0.034180;0.037109;1.035156;
494794;-0.035156;0.037109;1.036133;
495014;-0.034180;0.036133;1.037109;
495234;-0.035156;0.037109;1.035156;
495454;-0.035156;0.038086;1.034180;
495670;-0.033203;0.038086;1.035156;
495899;-0.034180;0.038086;1.034180;
496110;-0.035156;0.038086;1.036133;
496340;-0.035156;0.037109;1.033203;
496549;-0.035156;0.037109;1.038086;
496784;-0.034180;0.038086;1.036133;
496994;-0.034180;0.038086;1.036133;
497213;-0.034180;0.037109;1.035156;
497434;-0.034180;0.037109;1.037109;
497654;-0.034180;0.037109;1.034180;
497869;-0.035156;0.036133;1.037109;
498084;-0.034180;0.038086;1.035156;
498303;-0.035156;0.037109;1.033203;
498524;-0.034180;0.036133;1.035156;
498744;-0.035156;0.037109;1.035156;
498964;-0.033203;0.039062;1.037109;
499184;-0.033203;0.037109;1.035156;
499399;-0.036133;0.038086;1.037109;
499609;-0.033203;0.038086;1.036133;
499829;-0.034180;0.038086;1.036133;
500049;-0.035156;0.036133;1.035156;
500259;-0.035156;0.038086;1.036133;
500469;-0.034180;0.037109;1.035156;
500694;-0.035156;0.035156;1.035156;
500913;-0.036133;0.036133;1.036133;
501134;-0.034180;0.037109;1.035156;
501353;-0.036133;0.037109;1.034180;
501573;-0.034180;0.039062;1.037109;
501794;-0.034180;0.039062;1.037109;
502014;-0.035156;0.037109;1.036133;
502223;-0.035156;0.037109;1.036133;
502444;-0.033203;0.038086;1.035156;
502664;-0.033203;0.040039;1.035156;
502884;-0.034180;0.038086;1.035156;
503099;-0.033203;0.038086;1.035156;
503314;-0.034180;0.037109;1.036133;
503529;-0.035156;0.036133;1.034180;
503749;-0.035156;0.037109;1.035156;
503980;-0.034180;0.037109;1.036133;
504209;-0.035156;0.038086;1.035156;
504424;-0.035156;0.037109;1.037109;
504644;-0.034180;0.038086;1.038086;
504864;-0.035156;0.037109;1.035156;
505084;-0.035156;0.037109;1.035156;
505304;-0.034180;0.037109;1.036133;
505524;-0.033203;0.039062;1.038086;
505744;-0.034180;0.036133;1.036133;
505964;-0.036133;0.036133;1.035156;
506184;-0.034180;0.038086;1.037109;
506403;-0.034180;0.038086;1.035156;
506624;-0.033203;0.038086;1.037109;
506844;-0.034180;0.037109;1.034180;
507064;-0.035156;0.038086;1.035156;
507283;-0.033203;0.039062;1.037109;
507499;-0.033203;0.037109;1.036133;
507709;-0.034180;0.037109;1.034180;
507921;-0.036133;0.037109;1.036133;
508154;-0.036133;0.037109;1.035156;
508374;-0.033203;0.038086;1.036133;
508594;-0.034180;0.037109;1.036133;
508824;-0.035156;0.037109;1.035156;
509044;-0.035156;0.038086;1.038086;
509264;-0.034180;0.039062;1.036133;
509484;-0.034180;0.037109;1.036133;
509704;-0.032227;0.038086;1.035156;
509924;-0.035156;0.037109;1.035156;
510144;-0.034180;0.037109;1.035156;
510363;-0.035156;0.036133;1.035156;
510584;-0.035156;0.038086;1.035156;
510803;-0.034180;0.038086;1.036133;
511024;-0.034180;0.038086;1.036133;
511244;-0.034180;0.038086;1.037109;
511459;-0.035156;0.037109;1.035156;
511679;-0.034180;0.037109;1.036133;
511899;-0.033203;0.038086;1.035156;
512109;-0.033203;0.037109;1.035156;
512324;-0.034180;0.039062;1.036133;
512544;-0.035156;0.037109;1.037109;
512763;-0.035156;0.038086;1.036133;
512983;-0.033203;0.038086;1.035156;
513204;-0.034180;0.038086;1.036133;
513424;-0.034180;0.038086;1.034180;
513644;-0.035156;0.038086;1.037109;
513864;-0.035156;0.038086;1.035156;
514084;-0.034180;0.036133;1.034180;
514304;-0.033203;0.038086;1.035156;
514524;-0.034180;0.039062;1.035156;
514744;-0.034180;0.039062;1.036133;
514964;-0.035156;0.037109;1.036133;
515183;-0.035156;0.036133;1.035156;
515399;-0.035156;0.036133;1.036133;
515609;-0.033203;0.037109;1.037109;
515819;-0.033203;0.039062;1.035156;
516029;-0.035156;0.038086;1.036133;
516254;-0.035156;0.037109;1.036133;
516474;-0.035156;0.035156;1.036133;
516693;-0.032227;0.038086;1.035156;
516914;-0.034180;0.037109;1.038086;
517133;-0.035156;0.037109;1.036133;
517354;-0.034180;0.036133;1.035156;
517569;-0.034180;0.036133;1.034180;
517794;-0.035156;0.035156;1.034180;
518014;-0.034180;0.037109;1.035156;
518234;-0.035156;0.038086;1.035156;
518454;-0.033203;0.038086;1.036133;
518674;-0.034180;0.036133;1.035156;
518893;-0.034180;0.037109;1.035156;
519114;-0.034180;0.038086;1.037109;
519329;-0.034180;0.037109;1.037109;
519539;-0.034180;0.037109;1.036133;
519749;-0.034180;0.037109;1.035156;
519960;-0.034180;0.038086;1.035156;
520169;-0.033203;0.038086;1.035156;
520404;-0.035156;0.036133;1.035156;
520624;-0.034180;0.038086;1.036133;
520839;-0.033203;0.038086;1.036133;
521054;-0.035156;0.037109;1.037109;
521274;-0.034180;0.035156;1.035156;
521494;-0.034180;0.037109;1.038086;
521714;-0.034180;0.039062;1.037109;
521934;-0.036133;0.036133;1.035156;
522154;-0.034180;0.037109;1.035156;
522374;-0.034180;0.036133;1.035156;
522594;-0.035156;0.037109;1.037109;
522814;-0.033203;0.037109;1.037109;
523033;-0.033203;0.038086;1.037109;
523253;-0.034180;0.038086;1.037109;
523469;-0.033203;0.038086;1.035156;
523690;-0.034180;0.037109;1.034180;
523899;-0.035156;0.036133;1.034180;
524119;-0.034180;0.038086;1.036133;
524332;-0.035156;0.036133;1.036133;
524564;-0.034180;0.039062;1.036133;
524784;-0.034180;0.038086;1.035156;
525004;-0.035156;0.038086;1.036133;
525224;-0.034180;0.038086;1.037109;
525444;-0.033203;0.036133;1.037109;
525664;-0.034180;0.040039;1.037109;
525874;-0.035156;0.035156;1.036133;
526094;-0.033203;0.037109;1.037109;
526313;-0.035156;0.037109;1.034180;
526534;-0.034180;0.038086;1.036133;
526749;-0.035156;0.035156;1.034180;
526974;-0.034180;0.036133;1.036133;
527193;-0.034180;0.037109;1.033203;
527413;-0.035156;0.037109;1.037109;
527634;-0.034180;0.036133;1.035156;
527850;-0.034180;0.038086;1.035156;
528079;-0.033203;0.037109;1.035156;
528289;-0.034180;0.038086;1.035156;
528499;-0.034180;0.039062;1.034180;
528709;-0.034180;0.038086;1.035156;
528933;-0.034180;0.038086;1.035156;
529153;-0.034180;0.038086;1.036133;
529374;-0.035156;0.037109;1.034180;
529594;-0.034180;0.037109;1.035156;
529814;-0.034180;0.038086;1.036133;
530033;-0.035156;0.037109;1.036133;
530254;-0.034180;0.038086;1.037109;
530474;-0.033203;0.038086;1.035156;
530693;-0.033203;0.036133;1.035156;
530913;-0.035156;0.037109;1.035156;
531134;-0.035156;0.036133;1.035156;
531354;-0.034180;0.036133;1.034180;
531573;-0.034180;0.038086;1.033203;
531789;-0.036133;0.038086;1.033203;
532004;-0.034180;0.036133;1.034180;
532209;-0.034180;0.039062;1.036133;
532419;-0.035156;0.037109;1.035156;
532654;-0.034180;0.037109;1.035156;
532874;-0.034180;0.038086;1.035156;
533094;-0.034180;0.038086;1.035156;
533314;-0.034180;0.037109;1.032227;
533534;-0.035156;0.036133;1.037109;
533754;-0.036133;0.037109;1.034180;
533973;-0.034180;0.037109;1.035156;
534194;-0.033203;0.036133;1.036133;
534414;-0.033203;0.038086;1.035156;
534634;-0.034180;0.040039;1.039062;
534853;-0.034180;0.037109;1.037109;
535073;-0.034180;0.037109;1.033203;
535293;-0.035156;0.037109;1.036133;
535514;-0.035156;0.038086;1.035156;
535729;-0.034180;0.037109;1.034180;
535949;-0.034180;0.038086;1.034180;
536169;-0.035156;0.036133;1.036133;
536379;-0.034180;0.037109;1.036133;
536599;-0.034180;0.037109;1.036133;
536819;-0.035156;0.038086;1.035156;
537044;-0.036133;0.037109;1.037109;
537264;-0.033203;0.038086;1.034180;
537479;-0.034180;0.037109;1.036133;
537690;-0.034180;0.040039;1.035156;
537914;-0.035156;0.038086;1.036133;
538134;-0.033203;0.039062;1.037109;
538349;-0.033203;0.038086;1.035156;
538574;-0.033203;0.037109;1.037109;
538793;-0.034180;0.038086;1.036133;
539014;-0.034180;0.038086;1.037109;
539219;-0.033203;0.038086;1.035156;
539443;-0.034180;0.038086;1.035156;
539659;-0.035156;0.036133;1.035156;
539879;-0.034180;0.037109;1.035156;
540090;-0.034180;0.036133;1.036133;
540309;-0.035156;0.037109;1.036133;
540529;-0.032227;0.038086;1.035156;
540749;-0.034180;0.038086;1.036133;
540973;-0.035156;0.036133;1.036133;
541179;-0.034180;0.037109;1.035156;
541394;-0.034180;0.037109;1.035156;
541614;-0.034180;0.038086;1.037109;
541834;-0.034180;0.039062;1.037109;
542039;-0.034180;0.038086;1.036133;
542274;-0.034180;0.038086;1.035156;
542494;-0.035156;0.037109;1.035156;
542710;-0.035156;0.038086;1.035156;
542934;-0.034180;0.036133;1.035156;
543154;-0.035156;0.038086;1.036133;
543369;-0.034180;0.038086;1.035156;
543589;-0.033203;0.039062;1.036133;
543803;-0.034180;0.038086;1.036133;
544019;-0.033203;0.038086;1.036133;
544239;-0.034180;0.036133;1.035156;
544449;-0.034180;0.038086;1.034180;
544669;-0.034180;0.038086;1.037109;
544879;-0.033203;0.035156;1.035156;
545089;-0.034180;0.037109;1.035156;
545299;-0.035156;0.037109;1.036133;
545509;-0.034180;0.036133;1.036133;
545724;-0.035156;0.038086;1.034180;
545943;-0.034180;0.037109;1.035156;
546159;-0.033203;0.039062;1.036133;
546374;-0.034180;0.036133;1.034180;
546594;-0.034180;0.036133;1.035156;
546812;-0.033203;0.037109;1.038086;
547039;-0.033203;0.037109;1.034180;
547264;-0.034180;0.037109;1.036133;
547484;-0.035156;0.036133;1.035156;
547699;-0.033203;0.037109;1.033203;
547933;-0.036133;0.036133;1.035156;
548153;-0.035156;0.038086;1.037109;
548369;-0.034180;0.037109;1.033203;
548579;-0.033203;0.039062;1.036133;
548790;-0.033203;0.039062;1.035156;
549009;-0.035156;0.036133;1.037109;
549239;-0.034180;0.037109;1.035156;
549459;-0.033203;0.037109;1.036133;
549670;-0.034180;0.036133;1.035156;
549899;-0.033203;0.037109;1.036133;
550124;-0.034180;0.036133;1.035156;
550343;-0.034180;0.036133;1.036133;
550559;-0.035156;0.037109;1.035156;
550769;-0.033203;0.038086;1.036133;
550994;-0.035156;0.036133;1.034180;
551214;-0.035156;0.036133;1.034180;
551429;-0.034180;0.037109;1.035156;
551653;-0.033203;0.038086;1.038086;
551873;-0.033203;0.039062;1.036133;
552089;-0.035156;0.037109;1.036133;
552304;-0.033203;0.038086;1.035156;
552524;-0.033203;0.038086;1.036133;
552729;-0.033203;0.038086;1.035156;
552939;-0.035156;0.037109;1.036133;
553169;-0.034180;0.036133;1.036133;
553399;-0.034180;0.036133;1.037109;
553609;-0.034180;0.037109;1.035156;
553830;-0.035156;0.037109;1.037109;
554049;-0.033203;0.038086;1.037109;
554283;-0.032227;0.038086;1.036133;
554500;-0.034180;0.038086;1.037109;
554724;-0.035156;0.038086;1.035156;
554944;-0.034180;0.037109;1.036133;
555164;-0.035156;0.038086;1.037109;
555369;-0.035156;0.036133;1.036133;
555584;-0.034180;0.039062;1.037109;
555804;-0.032227;0.039062;1.035156;
556019;-0.033203;0.036133;1.034180;
556239;-0.035156;0.037109;1.036133;
556464;-0.034180;0.038086;1.036133;
556683;-0.033203;0.038086;1.035156;
556899;-0.033203;0.036133;1.038086;
557109;-0.033203;0.039062;1.036133;
557339;-0.035156;0.037109;1.036133;
557550;-0.035156;0.038086;1.036133;
557769;-0.034180;0.039062;1.035156;
557979;-0.032227;0.036133;1.033203;
558200;-0.035156;0.037109;1.036133;
558429;-0.033203;0.038086;1.034180;
558653;-0.035156;0.037109;1.035156;
558874;-0.033203;0.037109;1.035156;
559089;-0.033203;0.037109;1.035156;
559314;-0.034180;0.037109;1.038086;
559534;-0.033203;0.036133;1.036133;
559754;-0.034180;0.039062;1.037109;
559974;-0.034180;0.038086;1.035156;
560193;-0.033203;0.038086;1.035156;
560414;-0.034180;0.038086;1.035156;
560634;-0.035156;0.037109;1.038086;
560854;-0.034180;0.037109;1.036133;
561069;-0.034180;0.038086;1.036133;
561289;-0.034180;0.038086;1.034180;
561509;-0.033203;0.038086;1.034180;
561729;-0.034180;0.037109;1.035156;
561959;-0.035156;0.037109;1.035156;
562194;-0.035156;0.036133;1.036133;
562413;-0.033203;0.035156;1.034180;
562634;-0.034180;0.037109;1.037109;
562854;-0.034180;0.036133;1.038086;
563074;-0.033203;0.036133;1.036133;
563294;-0.034180;0.036133;1.035156;
563514;-0.035156;0.037109;1.038086;
563734;-0.035156;0.036133;1.036133;
563953;-0.034180;0.036133;1.035156;
564174;-0.034180;0.037109;1.034180;
564394;-0.035156;0.037109;1.037109;
564614;-0.034180;0.036133;1.035156;
564833;-0.034180;0.035156;1.037109;
565054;-0.034180;0.037109;1.036133;
565259;-0.034180;0.036133;1.036133;
565489;-0.033203;0.038086;1.037109;
565699;-0.033203;0.038086;1.038086;
565929;-0.035156;0.036133;1.035156;
566153;-0.033203;0.039062;1.036133;
566374;-0.033203;0.037109;1.037109;
566593;-0.034180;0.036133;1.036133;
566813;-0.033203;0.038086;1.036133;
567034;-0.035156;0.038086;1.038086;
567253;-0.035156;0.037109;1.033203;
567474;-0.034180;0.037109;1.034180;
567694;-0.034180;0.037109;1.036133;
567915;-0.033203;0.036133;1.038086;
568144;-0.033203;0.039062;1.033203;
568363;-0.034180;0.039062;1.037109;
568584;-0.034180;0.036133;1.035156;
568804;-0.034180;0.036133;1.034180;
569025;-0.034180;0.038086;1.035156;
569244;-0.033203;0.037109;1.035156;
569449;-0.033203;0.036133;1.034180;
569659;-0.033203;0.038086;1.036133;
569869;-0.034180;0.037109;1.036133;
570090;-0.034180;0.037109;1.037109;
570314;-0.033203;0.038086;1.035156;
570533;-0.033203;0.037109;1.036133;
570754;-0.034180;0.038086;1.037109;
570974;-0.034180;0.037109;1.037109;
571194;-0.033203;0.037109;1.035156;
571414;-0.033203;0.039062;1.036133;
571634;-0.035156;0.039062;1.038086;
571844;-0.034180;0.038086;1.036133;
572064;-0.035156;0.039062;1.037109;
572284;-0.035156;0.038086;1.037109;
572504;-0.034180;0.038086;1.035156;
572719;-0.035156;0.038086;1.037109;
572934;-0.033203;0.038086;1.034180;
573149;-0.035156;0.038086;1.037109;
573369;-0.034180;0.036133;1.035156;
573589;-0.033203;0.039062;1.037109;
573809;-0.035156;0.038086;1.035156;
574029;-0.035156;0.037109;1.036133;
574254;-0.035156;0.038086;1.036133;
574474;-0.035156;0.037109;1.035156;
574694;-0.034180;0.037109;1.035156;
574914;-0.034180;0.039062;1.035156;
575134;-0.035156;0.037109;1.035156;
575354;-0.034180;0.038086;1.037109;
575574;-0.035156;0.037109;1.035156;
575793;-0.033203;0.037109;1.035156;
576015;-0.033203;0.038086;1.034180;
576243;-0.036133;0.037109;1.036133;
576464;-0.034180;0.038086;1.037109;
576684;-0.034180;0.037109;1.034180;
576904;-0.034180;0.036133;1.036133;
577124;-0.033203;0.038086;1.036133;
577339;-0.035156;0.037109;1.038086;
577549;-0.035156;0.038086;1.037109;
577760;-0.033203;0.037109;1.037109;
577969;-0.033203;0.034180;1.037109;
578179;-0.033203;0.037109;1.036133;
578404;-0.033203;0.036133;1.035156;
578624;-0.035156;0.037109;1.035156;
578844;-0.034180;0.039062;1.036133;
579064;-0.034180;0.038086;1.036133;
579284;-0.034180;0.036133;1.037109;
579504;-0.032227;0.038086;1.037109;
579723;-0.035156;0.037109;1.036133;
579944;-0.035156;0.037109;1.035156;
580164;-0.033203;0.038086;1.036133;
580384;-0.035156;0.037109;1.036133;
580604;-0.035156;0.036133;1.036133;
580819;-0.033203;0.038086;1.037109;
581044;-0.033203;0.038086;1.036133;
581261;-0.033203;0.036133;1.035156;
