Time;acc_x;acc_y;acc_z;

1992;0.037109;0.025391;1.168945;
2133;0.039062;0.022461;1.186523;
2273;0.040039;0.024414;1.208984;
2413;0.043945;0.020508;1.227539;
2553;0.045898;0.019531;1.254883;
2694;0.045898;0.023438;1.274414;
2834;0.053711;0.018555;1.311523;
2973;0.053711;0.021484;1.332031;
3114;0.057617;0.019531;1.355469;
3254;0.059570;0.017578;1.375977;
3394;0.060547;0.013672;1.386719;
3534;0.059570;0.018555;1.392578;
3673;0.061523;0.017578;1.390625;
3814;0.061523;0.017578;1.387695;
3954;0.058594;0.014648;1.385742;
4093;0.061523;0.017578;1.392578;
4233;0.060547;0.015625;1.394531;
4374;0.058594;0.015625;1.381836;
4514;0.058594;0.014648;1.370117;
4660;0.057617;0.016602;1.366211;
4809;0.056641;0.014648;1.352539;
4954;0.056641;0.016602;1.350586;
5089;0.058594;0.020508;1.351562;
5230;0.056641;0.016602;1.346680;
5380;0.053711;0.021484;1.333008;
5529;0.056641;0.020508;1.326172;
5683;0.051758;0.020508;1.312500;
5819;0.051758;0.019531;1.304688;
5960;0.050781;0.016602;1.299805;
6099;0.048828;0.016602;1.288086;
6254;0.049805;0.015625;1.285156;
6394;0.046875;0.016602;1.277344;
6534;0.049805;0.018555;1.277344;
6675;0.048828;0.022461;1.279297;
6820;0.044922;0.017578;1.266602;
6974;0.047852;0.019531;1.258789;
7113;0.045898;0.014648;1.247070;
7254;0.042969;0.014648;1.236328;
7399;0.041992;0.014648;1.228516;
7549;0.042969;0.018555;1.221680;
7690;0.042969;0.013672;1.208008;
7839;0.040039;0.018555;1.193359;
7990;0.040039;0.016602;1.193359;
8119;0.040039;0.016602;1.177734;
8259;0.038086;0.018555;1.168945;
8399;0.038086;0.016602;1.154297;
8549;0.035156;0.016602;1.143555;
8681;0.036133;0.013672;1.125977;
8829;0.034180;0.018555;1.123047;
8981;0.032227;0.020508;1.121094;
9123;0.032227;0.022461;1.108398;
9264;0.030273;0.019531;1.112305;
9404;0.032227;0.017578;1.110352;
9545;0.030273;0.017578;1.102539;
9704;0.030273;0.017578;1.099609;
9843;0.031250;0.016602;1.087891;
9984;0.028320;0.017578;1.079102;
10124;0.030273;0.014648;1.064453;
10259;0.029297;0.018555;1.074219;
10404;0.027344;0.021484;1.066406;
10544;0.029297;0.017578;1.068359;
10694;0.028320;0.017578;1.063477;
10834;0.029297;0.019531;1.061523;
10971;0.026367;0.016602;1.062500;
11109;0.027344;0.020508;1.064453;
11259;0.030273;0.019531;1.060547;
11409;0.028320;0.021484;1.065430;
11549;0.027344;0.018555;1.057617;
11689;0.026367;0.014648;1.041992;
11829;0.024414;0.013672;1.018555;
11979;0.023438;0.018555;0.994141;
12124;0.020508;0.020508;0.963867;
12264;0.017578;0.015625;0.945312;
12409;0.016602;0.017578;0.938477;
12564;0.018555;0.020508;0.936523;
12704;0.018555;0.015625;0.936523;
12844;0.019531;0.021484;0.945312;
12979;0.018555;0.019531;0.946289;
13134;0.018555;0.014648;0.958984;
13273;0.019531;0.015625;0.955078;
13413;0.020508;0.019531;0.963867;
13554;0.021484;0.019531;0.971680;
13694;0.018555;0.019531;0.978516;
13833;0.020508;0.018555;0.998047;
13974;0.022461;0.020508;1.013672;
14120;0.022461;0.017578;1.012695;
14269;0.022461;0.016602;1.019531;
14419;0.024414;0.016602;1.027344;
14569;0.023438;0.017578;1.031250;
14719;0.024414;0.021484;1.033203;
14869;0.022461;0.020508;1.019531;
15009;0.022461;0.017578;1.016602;
15149;0.023438;0.017578;1.021484;
15279;0.024414;0.019531;1.022461;
15419;0.024414;0.024414;1.032227;
15564;0.021484;0.022461;1.039062;
15703;0.023438;0.016602;1.028320;
15843;0.023438;0.020508;1.026367;
15979;0.020508;0.019531;1.026367;
16119;0.023438;0.019531;1.025391;
16264;0.024414;0.022461;1.035156;
16404;0.023438;0.017578;1.043945;
16544;0.023438;0.019531;1.060547;
16684;0.026367;0.018555;1.068359;
16819;0.027344;0.016602;1.073242;
16974;0.028320;0.018555;1.086914;
17114;0.027344;0.018555;1.088867;
17264;0.028320;0.014648;1.097656;
17399;0.027344;0.011719;1.093750;
17549;0.028320;0.012695;1.098633;
17700;0.028320;0.015625;1.117188;
17849;0.029297;0.021484;1.128906;
17999;0.029297;0.017578;1.134766;
18149;0.030273;0.020508;1.147461;
18301;0.032227;0.022461;1.178711;
18439;0.034180;0.023438;1.185547;
18589;0.035156;0.022461;1.205078;
18743;0.034180;0.017578;1.212891;
18884;0.037109;0.019531;1.213867;
19024;0.038086;0.015625;1.232422;
19159;0.034180;0.016602;1.230469;
19304;0.036133;0.015625;1.240234;
19444;0.039062;0.018555;1.248047;
19584;0.037109;0.015625;1.241211;
19724;0.036133;0.015625;1.261719;
19874;0.041992;0.008789;1.267578;
20014;0.041016;0.022461;1.282227;
20150;0.045898;0.017578;1.295898;
20299;0.041992;0.014648;1.287109;
20449;0.041992;0.014648;1.291992;
20589;0.045898;0.013672;1.303711;
20719;0.043945;0.011719;1.306641;
20869;0.047852;0.017578;1.328125;
21009;0.048828;0.017578;1.329102;
21159;0.048828;0.014648;1.322266;
21314;0.048828;0.012695;1.313477;
21449;0.049805;0.015625;1.325195;
21589;0.046875;0.012695;1.319336;
21733;0.046875;0.017578;1.307617;
21874;0.044922;0.017578;1.304688;
22014;0.045898;0.018555;1.300781;
22149;0.043945;0.017578;1.287109;
22304;0.041992;0.023438;1.280273;
22444;0.038086;0.019531;1.260742;
22584;0.038086;0.019531;1.244141;
22723;0.037109;0.020508;1.222656;
22859;0.035156;0.019531;1.201172;
23004;0.030273;0.018555;1.178711;
23144;0.029297;0.021484;1.156250;
23279;0.029297;0.015625;1.123047;
23419;0.027344;0.019531;1.120117;
23570;0.026367;0.017578;1.096680;
23719;0.026367;0.019531;1.076172;
23869;0.022461;0.011719;1.069336;
24019;0.023438;0.022461;1.074219;
24169;0.023438;0.013672;1.057617;
24299;0.021484;0.019531;1.064453;
24449;0.021484;0.016602;1.075195;
24593;0.022461;0.024414;1.062500;
24734;0.016602;0.020508;1.042969;
24874;0.019531;0.026367;1.041992;
25009;0.017578;0.021484;1.042969;
25164;0.019531;0.026367;1.048828;
25304;0.018555;0.019531;1.066406;
25444;0.021484;0.022461;1.061523;
25584;0.023438;0.012695;1.078125;
25721;0.020508;0.019531;1.080078;
25864;0.019531;0.013672;1.083984;
26003;0.023438;0.017578;1.085938;
26139;0.021484;0.016602;1.095703;
26289;0.023438;0.020508;1.110352;
26439;0.026367;0.016602;1.100586;
26579;0.024414;0.018555;1.100586;
26729;0.024414;0.023438;1.100586;
26879;0.024414;0.016602;1.082031;
27019;0.024414;0.024414;1.076172;
27169;0.024414;0.026367;1.059570;
27324;0.020508;0.024414;1.053711;
27464;0.019531;0.028320;1.046875;
27604;0.017578;0.023438;1.032227;
27744;0.015625;0.032227;1.031250;
27879;0.018555;0.030273;1.026367;
28034;0.014648;0.029297;1.011719;
28174;0.015625;0.029297;1.004883;
28314;0.015625;0.030273;1.000000;
28454;0.013672;0.030273;0.981445;
28589;0.013672;0.028320;0.964844;
28744;0.011719;0.028320;0.945312;
28883;0.011719;0.032227;0.956055;
29019;0.011719;0.026367;0.946289;
29159;0.010742;0.025391;0.943359;
29309;0.012695;0.029297;0.938477;
29459;0.012695;0.026367;0.938477;
29599;0.008789;0.026367;0.941406;
29749;0.010742;0.032227;0.939453;
29889;0.011719;0.028320;0.936523;
30019;0.013672;0.028320;0.931641;
30159;0.011719;0.029297;0.926758;
30314;0.009766;0.030273;0.930664;
30453;0.011719;0.034180;0.926758;
30594;0.011719;0.034180;0.924805;
30729;0.011719;0.035156;0.953125;
30864;0.013672;0.040039;0.968750;
31003;0.012695;0.037109;0.986328;
31144;0.013672;0.037109;1.009766;
31285;0.014648;0.036133;1.022461;
31429;0.016602;0.040039;1.032227;
31583;0.016602;0.038086;1.042969;
31734;0.018555;0.037109;1.044922;
31874;0.017578;0.032227;1.028320;
32009;0.017578;0.030273;1.014648;
32164;0.015625;0.028320;0.994141;
32299;0.013672;0.028320;0.967773;
32439;0.011719;0.025391;0.939453;
32579;0.009766;0.028320;0.906250;
32739;0.006836;0.021484;0.875977;
32889;0.006836;0.022461;0.842773;
33039;0.006836;0.023438;0.830078;
33169;0.002930;0.023438;0.811523;
33319;0.003906;0.023438;0.797852;
33459;0.003906;0.024414;0.780273;
33609;0.000000;0.024414;0.762695;
33764;0.000000;0.026367;0.754883;
33904;-0.001953;0.026367;0.730469;
34039;-0.001953;0.029297;0.723633;
34194;0.000977;0.025391;0.710938;
34334;0.000000;0.027344;0.708008;
34474;-0.001953;0.028320;0.717773;
34614;0.000000;0.030273;0.752930;
34749;-0.000977;0.029297;0.791992;
34899;0.004883;0.030273;0.851562;
35044;0.005859;0.031250;0.910156;
35193;0.008789;0.032227;0.965820;
35334;0.012695;0.029297;1.020508;
35469;0.019531;0.029297;1.069336;
35614;0.019531;0.027344;1.103516;
35754;0.021484;0.024414;1.123047;
35901;0.023438;0.025391;1.121094;
36039;0.023438;0.024414;1.130859;
36179;0.022461;0.025391;1.129883;
36319;0.021484;0.025391;1.124023;
36469;0.020508;0.024414;1.105469;
36609;0.022461;0.026367;1.095703;
36739;0.017578;0.024414;1.080078;
36879;0.016602;0.028320;1.051758;
37019;0.012695;0.027344;1.002930;
37163;0.010742;0.032227;0.968750;
37304;0.008789;0.034180;0.925781;
37454;0.003906;0.034180;0.890625;
37589;0.002930;0.032227;0.837891;
37739;0.003906;0.030273;0.809570;
37884;0.001953;0.031250;0.789062;
38024;-0.001953;0.026367;0.761719;
38164;-0.000977;0.026367;0.750977;
38303;0.000000;0.025391;0.741211;
38439;-0.000977;0.029297;0.750000;
38584;-0.002930;0.024414;0.750000;
38724;-0.002930;0.026367;0.750977;
38864;-0.002930;0.022461;0.750000;
39014;-0.000977;0.025391;0.755859;
39150;-0.002930;0.023438;0.761719;
39289;0.000000;0.025391;0.781250;
39439;-0.002930;0.023438;0.789062;
39569;0.000000;0.024414;0.799805;
39719;0.000000;0.020508;0.801758;
39859;0.000977;0.025391;0.821289;
39999;0.000977;0.027344;0.832031;
40139;0.002930;0.028320;0.853516;
40289;0.002930;0.029297;0.867188;
40429;0.001953;0.032227;0.889648;
40574;0.001953;0.031250;0.897461;
40714;0.005859;0.031250;0.910156;
40854;0.003906;0.036133;0.940430;
40994;0.005859;0.034180;0.956055;
41129;0.007812;0.027344;0.970703;
41284;0.007812;0.028320;0.985352;
41424;0.009766;0.022461;0.994141;
41564;0.008789;0.028320;1.003906;
41704;0.010742;0.025391;1.020508;
41839;0.009766;0.027344;1.024414;
41994;0.012695;0.020508;1.027344;
42134;0.012695;0.023438;1.037109;
42274;0.010742;0.016602;1.032227;
42409;0.008789;0.026367;1.030273;
42559;0.013672;0.029297;1.069336;
42709;0.012695;0.035156;1.085938;
42859;0.012695;0.032227;1.129883;
43009;0.019531;0.031250;1.164062;
43159;0.015625;0.032227;1.194336;
43309;0.021484;0.019531;1.234375;
43459;0.023438;0.033203;1.259766;
43603;0.030273;0.028320;1.294922;
43744;0.023438;0.024414;1.339844;
43884;0.036133;0.019531;1.368164;
44019;0.037109;0.020508;1.393555;
44174;0.037109;0.016602;1.420898;
44313;0.039062;0.008789;1.452148;
44453;0.042969;0.012695;1.458984;
44593;0.041016;0.008789;1.454102;
44729;0.041016;0.014648;1.468750;
44870;0.045898;0.018555;1.465820;
45024;0.041016;0.018555;1.468750;
45165;0.041992;0.022461;1.447266;
45309;0.038086;0.018555;1.430664;
45459;0.037109;0.011719;1.438477;
45609;0.042969;0.020508;1.447266;
45759;0.035156;0.027344;1.427734;
45899;0.038086;0.028320;1.427734;
46049;0.041016;0.019531;1.439453;
46200;0.038086;0.021484;1.414062;
46339;0.036133;0.021484;1.388672;
46490;0.034180;0.027344;1.385742;
46629;0.034180;0.022461;1.381836;
46784;0.036133;0.026367;1.350586;
46924;0.031250;0.022461;1.323242;
47073;0.028320;0.024414;1.302734;
47209;0.028320;0.021484;1.254883;
47364;0.019531;0.022461;1.205078;
47504;0.017578;0.023438;1.170898;
47644;0.015625;0.021484;1.127930;
47779;0.012695;0.025391;1.107422;
47929;0.007812;0.029297;1.057617;
48084;0.005859;0.025391;1.026367;
48223;0.007812;0.031250;1.022461;
48363;0.001953;0.032227;1.002930;
48509;0.004883;0.030273;0.988281;
48660;0.003906;0.027344;0.973633;
48789;0.001953;0.025391;0.951172;
48939;0.001953;0.028320;0.936523;
49079;0.000000;0.027344;0.930664;
49229;0.001953;0.026367;0.914062;
49380;0.002930;0.030273;0.925781;
49519;0.000000;0.023438;0.931641;
49673;0.000000;0.026367;0.940430;
49814;0.000977;0.021484;0.953125;
49954;0.007812;0.027344;0.982422;
50099;0.003906;0.021484;0.991211;
50244;0.006836;0.020508;0.999023;
50393;0.007812;0.023438;1.009766;
50534;0.003906;0.021484;1.026367;
50674;0.004883;0.028320;1.026367;
50809;0.006836;0.022461;1.032227;
50963;0.004883;0.028320;1.032227;
51104;0.004883;0.033203;1.037109;
51249;0.008789;0.032227;1.036133;
51379;0.009766;0.031250;1.021484;
51523;0.004883;0.031250;1.015625;
51659;0.015625;0.030273;0.989258;
51809;0.018555;0.030273;0.954102;
51949;0.021484;0.029297;0.942383;
52089;0.026367;0.034180;0.919922;
52239;0.025391;0.026367;0.911133;
52380;0.025391;0.030273;0.880859;
52529;0.024414;0.036133;0.880859;
52669;0.026367;0.029297;0.880859;
52819;0.024414;0.022461;0.888672;
52973;0.023438;0.027344;0.901367;
53113;0.022461;0.020508;0.916992;
53254;0.024414;0.021484;0.937500;
53399;0.029297;0.022461;0.963867;
53539;0.032227;0.023438;0.998047;
53694;0.037109;0.014648;1.033203;
53834;0.041016;0.021484;1.041992;
53973;0.034180;0.018555;1.059570;
54109;0.039062;0.027344;1.042969;
54254;0.034180;0.023438;1.021484;
54393;0.033203;0.028320;1.015625;
54535;0.031250;0.024414;1.003906;
54669;0.033203;0.032227;0.994141;
54809;0.031250;0.032227;0.983398;
54960;0.027344;0.036133;0.993164;
55109;0.029297;0.033203;1.000977;
55250;0.031250;0.030273;1.029297;
55400;0.032227;0.027344;1.076172;
55549;0.037109;0.026367;1.121094;
55699;0.037109;0.038086;1.151367;
55839;0.041992;0.025391;1.182617;
55984;0.042969;0.026367;1.217773;
56124;0.042969;0.024414;1.219727;
56264;0.042969;0.028320;1.203125;
56409;0.045898;0.018555;1.190430;
56539;0.039062;0.024414;1.166992;
56674;0.041016;0.024414;1.128906;
56814;0.036133;0.022461;1.083008;
56953;0.030273;0.019531;1.028320;
57093;0.030273;0.030273;0.978516;
57219;0.027344;0.026367;0.939453;
57364;0.026367;0.031250;0.915039;
57504;0.023438;0.030273;0.883789;
57645;0.020508;0.031250;0.877930;
57789;0.021484;0.027344;0.851562;
57941;0.020508;0.033203;0.846680;
58090;0.018555;0.027344;0.860352;
58229;0.018555;0.029297;0.881836;
58380;0.023438;0.025391;0.941406;
58519;0.028320;0.032227;0.981445;
58670;0.029297;0.033203;1.015625;
58809;0.033203;0.033203;1.053711;
58959;0.028320;0.022461;1.061523;
59099;0.034180;0.032227;1.093750;
59249;0.036133;0.027344;1.143555;
59399;0.035156;0.032227;1.168945;
59554;0.039062;0.028320;1.182617;
59694;0.045898;0.031250;1.186523;
59843;0.040039;0.025391;1.157227;
59984;0.041016;0.026367;1.125000;
60119;0.043945;0.026367;1.088867;
60274;0.045898;0.017578;1.063477;
60414;0.046875;0.027344;1.004883;
60554;0.053711;0.026367;0.981445;
60694;0.048828;0.031250;0.968750;
60829;0.052734;0.029297;0.993164;
60969;0.053711;0.029297;1.011719;
61123;0.055664;0.029297;1.039062;
61263;0.054688;0.033203;1.077148;
61399;0.051758;0.026367;1.111328;
61549;0.057617;0.027344;1.144531;
61689;0.058594;0.034180;1.183594;
61839;0.053711;0.028320;1.198242;
61979;0.059570;0.023438;1.220703;
62119;0.057617;0.025391;1.217773;
62269;0.067383;0.022461;1.226562;
62409;0.057617;0.030273;1.241211;
62549;0.060547;0.011719;1.250977;
62699;0.060547;0.030273;1.215820;
62844;0.053711;0.019531;1.165039;
62985;0.059570;0.039062;1.156250;
63129;0.048828;0.025391;1.127930;
63274;0.046875;0.029297;1.088867;
63414;0.054688;0.037109;1.091797;
63554;0.043945;0.037109;1.071289;
63694;0.047852;0.028320;1.042969;
63829;0.047852;0.035156;1.041992;
63984;0.046875;0.034180;1.042969;
64133;0.044922;0.028320;1.044922;
64274;0.049805;0.022461;1.061523;
64415;0.049805;0.031250;1.050781;
64564;0.044922;0.029297;1.071289;
64704;0.047852;0.032227;1.078125;
64829;0.047852;0.025391;1.072266;
64969;0.047852;0.036133;1.071289;
65119;0.044922;0.029297;1.052734;
65270;0.043945;0.033203;1.029297;
65421;0.046875;0.034180;1.009766;
65560;0.042969;0.031250;0.994141;
65689;0.043945;0.030273;0.958008;
65839;0.041992;0.029297;0.958008;
65979;0.041016;0.029297;0.928711;
66134;0.040039;0.028320;0.922852;
66273;0.038086;0.034180;0.926758;
66414;0.035156;0.027344;0.913086;
66563;0.035156;0.031250;0.914062;
66699;0.038086;0.028320;0.907227;
66844;0.039062;0.034180;0.916016;
66984;0.037109;0.030273;0.922852;
67123;0.039062;0.030273;0.932617;
67259;0.040039;0.028320;0.959961;
67409;0.037109;0.033203;0.987305;
67554;0.045898;0.021484;0.999023;
67693;0.045898;0.022461;1.016602;
67829;0.041016;0.021484;1.028320;
67969;0.043945;0.032227;1.041016;
68119;0.045898;0.021484;1.040039;
68259;0.041992;0.026367;1.046875;
68399;0.043945;0.024414;1.060547;
68549;0.044922;0.029297;1.048828;
68699;0.043945;0.019531;1.028320;
68839;0.043945;0.031250;1.042969;
68989;0.042969;0.024414;1.030273;
69144;0.043945;0.034180;1.028320;
69283;0.042969;0.033203;1.036133;
69424;0.041016;0.034180;1.023438;
69573;0.041016;0.031250;1.028320;
69714;0.042969;0.032227;1.043945;
69854;0.043945;0.027344;1.041016;
69995;0.044922;0.033203;1.063477;
70144;0.043945;0.028320;1.083984;
70284;0.043945;0.030273;1.077148;
70423;0.041016;0.031250;1.083984;
70563;0.048828;0.027344;1.111328;
70704;0.043945;0.025391;1.107422;
70844;0.042969;0.030273;1.095703;
70983;0.044922;0.022461;1.098633;
71119;0.042969;0.022461;1.115234;
71271;0.042969;0.033203;1.115234;
71419;0.047852;0.029297;1.131836;
71570;0.044922;0.026367;1.125000;
71719;0.041992;0.025391;1.102539;
71860;0.048828;0.026367;1.125977;
72004;0.040039;0.029297;1.124023;
72144;0.043945;0.041992;1.103516;
72283;0.050781;0.029297;1.095703;
72424;0.041992;0.021484;1.099609;
72564;0.044922;0.027344;1.083008;
72703;0.047852;0.031250;1.083008;
72843;0.039062;0.029297;1.077148;
72984;0.045898;0.033203;1.077148;
73124;0.043945;0.034180;1.071289;
73264;0.040039;0.033203;1.073242;
73404;0.044922;0.038086;1.066406;
73543;0.040039;0.027344;1.074219;
73684;0.040039;0.027344;1.064453;
73833;0.045898;0.030273;1.068359;
73969;0.042969;0.041992;1.076172;
74119;0.040039;0.030273;1.084961;
74259;0.044922;0.029297;1.072266;
74399;0.042969;0.028320;1.060547;
74539;0.041992;0.026367;1.056641;
74679;0.045898;0.021484;1.042969;
74829;0.042969;0.027344;1.035156;
74974;0.041016;0.028320;1.015625;
75114;0.039062;0.028320;0.991211;
75254;0.036133;0.024414;0.979492;
75394;0.037109;0.032227;0.949219;
75534;0.035156;0.028320;0.938477;
75674;0.035156;0.022461;0.946289;
75814;0.035156;0.031250;0.921875;
75954;0.038086;0.028320;0.931641;
76094;0.033203;0.031250;0.934570;
76234;0.033203;0.026367;0.915039;
76374;0.034180;0.035156;0.914062;
76514;0.033203;0.026367;0.915039;
76654;0.032227;0.032227;0.911133;
76794;0.036133;0.030273;0.944336;
76929;0.033203;0.030273;0.939453;
77069;0.034180;0.026367;0.972656;
77219;0.037109;0.027344;1.010742;
77369;0.040039;0.025391;1.029297;
77509;0.039062;0.025391;1.052734;
77659;0.041016;0.028320;1.073242;
77809;0.041016;0.033203;1.091797;
77950;0.041992;0.030273;1.083008;
78105;0.042969;0.034180;1.059570;
78264;0.042969;0.032227;1.026367;
78414;0.038086;0.035156;0.998047;
78554;0.036133;0.027344;0.975586;
78694;0.033203;0.031250;0.937500;
78834;0.031250;0.031250;0.913086;
78973;0.031250;0.027344;0.874023;
79113;0.031250;0.031250;0.872070;
79263;0.027344;0.028320;0.877930;
79403;0.031250;0.028320;0.896484;
79544;0.031250;0.028320;0.917969;
79679;0.031250;0.030273;0.934570;
79824;0.029297;0.027344;0.975586;
79974;0.033203;0.026367;1.011719;
80099;0.037109;0.034180;1.037109;
80239;0.035156;0.028320;1.058594;
80389;0.039062;0.030273;1.083008;
80539;0.041016;0.030273;1.106445;
80689;0.040039;0.028320;1.126953;
80839;0.041016;0.027344;1.126953;
80989;0.041016;0.034180;1.138672;
81119;0.040039;0.029297;1.128906;
81269;0.043945;0.030273;1.127930;
81409;0.040039;0.028320;1.113281;
81564;0.039062;0.029297;1.078125;
81704;0.038086;0.031250;1.066406;
81843;0.035156;0.036133;1.060547;
81989;0.034180;0.028320;1.046875;
82144;0.037109;0.032227;1.045898;
82284;0.038086;0.027344;1.047852;
82423;0.036133;0.028320;1.042969;
82564;0.034180;0.024414;1.047852;
82689;0.034180;0.028320;1.059570;
82844;0.035156;0.028320;1.062500;
82984;0.038086;0.023438;1.082031;
83134;0.039062;0.031250;1.095703;
83270;0.041016;0.032227;1.115234;
83419;0.040039;0.024414;1.111328;
83569;0.038086;0.029297;1.116211;
83700;0.038086;0.037109;1.132812;
83849;0.041992;0.027344;1.117188;
83999;0.036133;0.028320;1.114258;
84149;0.036133;0.029297;1.106445;
84299;0.037109;0.031250;1.100586;
84443;0.038086;0.024414;1.095703;
84584;0.036133;0.033203;1.078125;
84723;0.035156;0.029297;1.071289;
84863;0.033203;0.024414;1.068359;
85014;0.041992;0.024414;1.071289;
85154;0.036133;0.028320;1.052734;
85294;0.033203;0.025391;1.034180;
85434;0.036133;0.033203;1.050781;
85574;0.028320;0.028320;1.010742;
85714;0.033203;0.026367;1.017578;
85844;0.029297;0.029297;0.989258;
85984;0.031250;0.029297;1.019531;
86124;0.030273;0.029297;0.995117;
86264;0.031250;0.031250;0.993164;
86395;0.030273;0.032227;0.969727;
86539;0.028320;0.034180;0.957031;
86679;0.027344;0.027344;0.963867;
86829;0.028320;0.028320;0.962891;
86969;0.030273;0.026367;0.958984;
87119;0.030273;0.026367;0.980469;
87269;0.029297;0.030273;0.969727;
87409;0.031250;0.032227;0.999023;
87564;0.031250;0.031250;1.017578;
87713;0.033203;0.031250;1.039062;
87854;0.032227;0.036133;1.043945;
87989;0.033203;0.031250;1.052734;
88143;0.034180;0.027344;1.055664;
88283;0.034180;0.030273;1.040039;
88423;0.037109;0.025391;1.061523;
88564;0.033203;0.024414;1.057617;
88704;0.034180;0.025391;1.038086;
88844;0.034180;0.025391;1.039062;
88984;0.033203;0.031250;1.034180;
89123;0.034180;0.025391;1.034180;
89264;0.032227;0.031250;1.027344;
89404;0.030273;0.033203;1.008789;
89539;0.032227;0.031250;1.004883;
89689;0.031250;0.030273;1.008789;
89829;0.029297;0.032227;1.002930;
89979;0.031250;0.030273;1.001953;
90129;0.031250;0.033203;1.000977;
90269;0.028320;0.034180;0.993164;
90414;0.028320;0.027344;0.995117;
90553;0.031250;0.027344;0.988281;
90694;0.024414;0.029297;0.996094;
90833;0.024414;0.031250;1.004883;
90974;0.024414;0.027344;1.015625;
91114;0.025391;0.025391;1.011719;
91254;0.021484;0.027344;1.001953;
91394;0.019531;0.034180;0.974609;
91534;0.016602;0.026367;0.961914;
91674;0.016602;0.022461;0.952148;
91814;0.012695;0.026367;0.897461;
91954;0.013672;0.023438;0.899414;
92094;0.012695;0.019531;0.928711;
92234;0.013672;0.017578;0.924805;
92369;0.008789;0.018555;0.922852;
92519;0.013672;0.030273;0.947266;
92649;0.010742;0.036133;0.952148;
92789;0.009766;0.036133;0.972656;
92919;0.012695;0.031250;0.970703;
93059;0.008789;0.023438;0.961914;
93210;0.015625;0.029297;0.944336;
93349;0.011719;0.026367;0.989258;
93489;0.016602;0.029297;1.016602;
93644;0.017578;0.038086;1.034180;
93794;0.017578;0.039062;1.064453;
93934;0.021484;0.039062;1.062500;
94074;0.017578;0.035156;1.056641;
94214;0.024414;0.033203;1.073242;
94354;0.022461;0.025391;1.057617;
94493;0.013672;0.029297;1.020508;
94634;0.017578;0.029297;1.010742;
94774;0.014648;0.029297;1.006836;
94914;0.008789;0.022461;0.976562;
95054;0.015625;0.025391;0.955078;
95194;0.015625;0.037109;0.953125;
95333;0.007812;0.022461;0.925781;
95474;0.011719;0.027344;0.922852;
95609;0.013672;0.025391;0.914062;
95750;0.009766;0.024414;0.905273;
95889;0.008789;0.034180;0.901367;
96019;0.012695;0.029297;0.886719;
96149;0.002930;0.022461;0.890625;
96289;0.001953;0.029297;0.899414;
96429;0.001953;0.029297;0.885742;
96579;-0.009766;0.037109;0.895508;
96734;-0.007812;0.028320;0.912109;
96874;-0.009766;0.022461;0.896484;
97024;-0.003906;0.024414;0.919922;
97163;-0.011719;0.018555;0.920898;
97303;-0.006836;0.029297;0.929688;
97453;-0.006836;0.019531;0.965820;
97594;-0.014648;0.015625;0.982422;
97734;-0.009766;0.017578;1.015625;
97873;-0.000977;0.021484;1.063477;
98014;-0.010742;0.018555;1.092773;
98163;-0.007812;0.039062;1.132812;
98304;-0.008789;0.024414;1.174805;
98444;-0.000977;0.022461;1.220703;
98585;0.000000;0.029297;1.246094;
98729;-0.003906;0.038086;1.255859;
98879;-0.004883;0.041992;1.221680;
99009;-0.007812;0.041016;1.211914;
99159;-0.006836;0.040039;1.212891;
99299;-0.008789;0.037109;1.203125;
99439;-0.001953;0.030273;1.220703;
99579;0.000977;0.026367;1.226562;
99724;0.001953;0.017578;1.242188;
99864;-0.002930;0.027344;1.259766;
100004;0.000977;0.028320;1.304688;
100153;0.001953;0.017578;1.336914;
100294;0.006836;0.019531;1.366211;
100434;0.007812;0.027344;1.358398;
100574;0.006836;0.015625;1.355469;
100713;0.000000;0.023438;1.342773;
100859;0.004883;0.022461;1.326172;
101003;-0.005859;0.028320;1.282227;
101144;0.002930;0.022461;1.259766;
101284;-0.001953;0.033203;1.206055;
101423;-0.005859;0.023438;1.164062;
101564;-0.013672;0.027344;1.122070;
101689;-0.005859;0.019531;1.102539;
101839;-0.011719;0.027344;1.076172;
101989;-0.006836;0.023438;1.069336;
102139;-0.011719;0.029297;1.057617;
102270;-0.008789;0.027344;1.070312;
102409;-0.009766;0.026367;1.085938;
102554;-0.011719;0.021484;1.083008;
102694;-0.006836;0.029297;1.073242;
102833;-0.006836;0.021484;1.059570;
102984;-0.007812;0.021484;1.058594;
103123;-0.010742;0.025391;1.057617;
103264;-0.013672;0.019531;1.033203;
103414;-0.007812;0.021484;1.042969;
103550;-0.009766;0.020508;1.041016;
103703;-0.008789;0.016602;1.018555;
103844;-0.010742;0.023438;1.025391;
103984;-0.011719;0.019531;1.028320;
104124;-0.010742;0.030273;1.017578;
104263;-0.010742;0.029297;1.003906;
104403;-0.013672;0.034180;0.992188;
104539;-0.018555;0.035156;0.968750;
104689;-0.012695;0.036133;0.958984;
104829;-0.017578;0.031250;0.945312;
104979;-0.017578;0.035156;0.934570;
105120;-0.012695;0.033203;0.941406;
105259;-0.013672;0.034180;0.941406;
105409;-0.015625;0.036133;0.940430;
105554;-0.018555;0.027344;0.940430;
105693;-0.015625;0.021484;0.940430;
105834;-0.012695;0.022461;0.930664;
105973;-0.017578;0.014648;0.922852;
106114;-0.017578;0.021484;0.950195;
106254;-0.013672;0.026367;0.990234;
106394;-0.011719;0.014648;1.027344;
106533;-0.008789;0.029297;1.041016;
106674;-0.008789;0.025391;1.048828;
106814;-0.008789;0.028320;1.093750;
106954;-0.008789;0.023438;1.113281;
107093;-0.004883;0.030273;1.110352;
107233;-0.002930;0.022461;1.111328;
107374;-0.008789;0.020508;1.086914;
107511;-0.005859;0.014648;1.093750;
107639;-0.009766;0.026367;1.065430;
107789;-0.007812;0.025391;1.026367;
107919;-0.007812;0.024414;1.012695;
108070;-0.008789;0.022461;1.000000;
108209;-0.015625;0.023438;0.985352;
108349;-0.016602;0.024414;0.984375;
108499;-0.011719;0.022461;0.958008;
108639;-0.012695;0.037109;0.933594;
108783;-0.014648;0.031250;0.920898;
108924;-0.017578;0.034180;0.918945;
109064;-0.013672;0.037109;0.913086;
109204;-0.017578;0.035156;0.920898;
109344;-0.010742;0.035156;0.923828;
109484;-0.017578;0.036133;0.916016;
109624;-0.016602;0.032227;0.935547;
109764;-0.013672;0.034180;0.953125;
109903;-0.015625;0.028320;0.956055;
110044;-0.010742;0.030273;0.958008;
110183;-0.009766;0.027344;0.968750;
110333;-0.014648;0.021484;0.983398;
110474;-0.013672;0.017578;0.982422;
110609;-0.012695;0.020508;0.986328;
110749;-0.006836;0.015625;0.995117;
110899;-0.009766;0.016602;0.994141;
111049;-0.012695;0.013672;0.998047;
111189;-0.010742;0.013672;0.986328;
111329;-0.014648;0.012695;0.994141;
111479;-0.012695;0.014648;1.003906;
111613;-0.007812;0.018555;1.014648;
111754;-0.011719;0.022461;0.999023;
111894;-0.014648;0.020508;1.018555;
112034;-0.013672;0.029297;1.021484;
112169;-0.008789;0.029297;1.048828;
112314;-0.011719;0.031250;1.056641;
112454;-0.010742;0.032227;1.048828;
112594;-0.014648;0.037109;1.054688;
112734;-0.014648;0.042969;1.047852;
112873;-0.008789;0.037109;1.048828;
113013;-0.010742;0.037109;1.038086;
113164;-0.013672;0.030273;1.017578;
113314;-0.012695;0.031250;1.007812;
113453;-0.010742;0.030273;1.001953;
113589;-0.014648;0.040039;1.005859;
113739;-0.011719;0.034180;1.011719;
113879;-0.011719;0.033203;0.997070;
114019;-0.011719;0.021484;0.977539;
114169;-0.011719;0.027344;0.979492;
114321;-0.017578;0.025391;0.984375;
114469;-0.014648;0.021484;0.998047;
114614;-0.011719;0.016602;1.033203;
114753;-0.009766;0.024414;1.052734;
114894;-0.007812;0.020508;1.051758;
115034;-0.010742;0.019531;1.068359;
115174;-0.009766;0.023438;1.076172;
115313;-0.011719;0.028320;1.085938;
115454;-0.007812;0.022461;1.097656;
115594;-0.007812;0.029297;1.112305;
115734;-0.004883;0.025391;1.091797;
115874;-0.008789;0.029297;1.087891;
116013;-0.010742;0.020508;1.076172;
116153;-0.007812;0.007812;1.062500;
116303;-0.008789;0.018555;1.041016;
116444;-0.007812;0.017578;1.029297;
116579;-0.010742;0.022461;1.025391;
116729;-0.013672;0.024414;1.007812;
116869;-0.011719;0.030273;1.009766;
117009;-0.011719;0.021484;1.022461;
117139;-0.008789;0.026367;1.047852;
117289;-0.013672;0.033203;1.041016;
117429;-0.014648;0.033203;1.066406;
117584;-0.013672;0.023438;1.084961;
117724;-0.010742;0.032227;1.080078;
117863;-0.010742;0.022461;1.089844;
118004;-0.010742;0.036133;1.111328;
118144;-0.003906;0.025391;1.109375;
118284;-0.009766;0.029297;1.098633;
118424;-0.007812;0.028320;1.088867;
118563;-0.006836;0.036133;1.073242;
118704;-0.009766;0.031250;1.075195;
118844;-0.011719;0.042969;1.070312;
118984;-0.009766;0.021484;1.057617;
119124;-0.010742;0.026367;1.053711;
119263;-0.008789;0.019531;1.064453;
119404;-0.010742;0.028320;1.066406;
119549;-0.008789;0.025391;1.050781;
119679;-0.007812;0.027344;1.053711;
119829;-0.009766;0.024414;1.055664;
119969;-0.007812;0.024414;1.064453;
120119;-0.007812;0.024414;1.059570;
120269;-0.006836;0.022461;1.082031;
120409;-0.004883;0.024414;1.084961;
120554;-0.003906;0.024414;1.083984;
120693;-0.007812;0.031250;1.081055;
120834;-0.007812;0.026367;1.085938;
120974;-0.002930;0.025391;1.102539;
121114;-0.002930;0.026367;1.095703;
121254;0.002930;0.020508;1.089844;
121394;-0.000977;0.020508;1.095703;
121534;0.009766;0.017578;1.099609;
121674;0.008789;0.025391;1.105469;
121814;0.014648;0.020508;1.090820;
121953;0.014648;0.018555;1.073242;
122094;0.017578;0.024414;1.085938;
122233;0.016602;0.021484;1.071289;
122373;0.016602;0.025391;1.071289;
122509;0.013672;0.030273;1.069336;
122659;0.010742;0.032227;1.059570;
122799;0.013672;0.021484;1.031250;
122939;0.007812;0.031250;1.040039;
123090;0.007812;0.032227;1.018555;
123221;0.002930;0.027344;1.025391;
123359;0.006836;0.030273;1.009766;
123504;0.003906;0.030273;1.000000;
123644;0.002930;0.030273;0.986328;
123783;0.004883;0.030273;0.981445;
123923;0.001953;0.027344;0.963867;
124063;0.005859;0.023438;0.977539;
124214;0.007812;0.027344;0.972656;
124354;0.005859;0.023438;0.964844;
124489;0.003906;0.024414;0.941406;
124634;0.006836;0.027344;0.943359;
124773;0.003906;0.029297;0.919922;
124923;0.002930;0.027344;0.916992;
125064;0.001953;0.033203;0.927734;
125204;0.001953;0.028320;0.935547;
125354;0.001953;0.034180;0.945312;
125489;0.009766;0.029297;0.964844;
125639;0.004883;0.029297;0.963867;
125780;0.004883;0.019531;0.951172;
125919;0.005859;0.023438;0.958984;
126069;0.005859;0.023438;0.954102;
126209;0.003906;0.025391;0.927734;
126349;0.006836;0.022461;0.920898;
126494;0.001953;0.023438;0.909180;
126634;0.000000;0.021484;0.906250;
126774;0.000977;0.022461;0.910156;
126913;0.003906;0.022461;0.925781;
127054;-0.000977;0.026367;0.931641;
127193;0.003906;0.024414;0.938477;
127344;0.001953;0.028320;0.950195;
127484;0.001953;0.031250;0.966797;
127619;0.001953;0.028320;0.974609;
127763;0.002930;0.025391;0.980469;
127904;0.002930;0.028320;0.990234;
128044;0.004883;0.021484;1.010742;
128184;0.000977;0.028320;1.019531;
128324;0.006836;0.021484;1.015625;
128459;0.005859;0.022461;1.018555;
128599;0.006836;0.022461;1.019531;
128749;0.004883;0.023438;1.023438;
128889;0.009766;0.023438;1.032227;
129019;0.004883;0.022461;1.036133;
129169;0.009766;0.025391;1.035156;
129319;0.003906;0.023438;1.040039;
129474;0.008789;0.022461;1.022461;
129613;0.003906;0.024414;1.046875;
129754;0.008789;0.023438;1.031250;
129894;0.002930;0.025391;1.040039;
130034;0.006836;0.023438;1.034180;
130174;0.005859;0.026367;1.043945;
130314;0.005859;0.023438;1.041992;
130449;0.005859;0.024414;1.062500;
130594;0.007812;0.021484;1.075195;
130734;0.005859;0.025391;1.105469;
130873;0.008789;0.024414;1.102539;
131013;0.007812;0.028320;1.118164;
131154;0.011719;0.023438;1.124023;
131294;0.009766;0.022461;1.124023;
131429;0.009766;0.022461;1.131836;
131571;0.009766;0.018555;1.107422;
131709;0.006836;0.020508;1.099609;
131859;0.009766;0.023438;1.074219;
132009;0.008789;0.021484;1.067383;
132149;0.008789;0.016602;1.044922;
132289;0.007812;0.020508;1.009766;
132444;0.003906;0.025391;1.016602;
132584;0.002930;0.023438;0.993164;
132724;0.002930;0.025391;0.990234;
132863;0.007812;0.021484;0.987305;
133004;0.007812;0.019531;0.994141;
133144;0.014648;0.019531;0.994141;
133284;0.026367;0.023438;1.014648;
133434;0.035156;0.016602;1.020508;
133569;0.037109;0.019531;1.027344;
133714;0.041992;0.020508;1.036133;
133864;0.043945;0.024414;1.059570;
134003;0.047852;0.021484;1.069336;
134143;0.054688;0.024414;1.084961;
134284;0.056641;0.030273;1.077148;
134424;0.054688;0.031250;1.067383;
134559;0.064453;0.024414;1.071289;
134709;0.063477;0.036133;1.063477;
134859;0.070312;0.027344;1.058594;
134989;0.073242;0.029297;1.047852;
135139;0.075195;0.025391;1.037109;
135279;0.078125;0.024414;1.030273;
135419;0.083008;0.024414;1.026367;
135564;0.086914;0.030273;1.024414;
135704;0.087891;0.026367;1.036133;
135844;0.091797;0.029297;1.028320;
135984;0.093750;0.033203;1.050781;
136124;0.087891;0.025391;1.026367;
136265;0.088867;0.027344;1.031250;
136424;0.090820;0.029297;1.023438;
136564;0.088867;0.029297;1.032227;
136704;0.087891;0.022461;0.996094;
136843;0.088867;0.026367;0.996094;
136984;0.087891;0.025391;0.970703;
137133;0.083008;0.020508;0.949219;
137274;0.086914;0.012695;0.949219;
137414;0.084961;0.019531;0.952148;
137559;0.083984;0.020508;0.949219;
137699;0.086914;0.013672;0.928711;
137849;0.085938;0.017578;0.903320;
137989;0.083008;0.024414;0.874023;
138120;0.082031;0.013672;0.842773;
138259;0.081055;0.016602;0.857422;
138409;0.077148;0.021484;0.864258;
138554;0.078125;0.024414;0.895508;
138694;0.083008;0.015625;0.916016;
138834;0.083984;0.031250;0.939453;
138974;0.086914;0.030273;0.958984;
139113;0.082031;0.026367;0.962891;
139253;0.081055;0.026367;0.973633;
139394;0.083008;0.029297;1.001953;
139534;0.081055;0.019531;0.991211;
139673;0.083984;0.023438;0.994141;
139814;0.085938;0.025391;0.986328;
139953;0.085938;0.021484;0.991211;
140093;0.082031;0.022461;0.992188;
140234;0.083008;0.022461;1.006836;
140374;0.083984;0.025391;1.043945;
140509;0.084961;0.027344;1.058594;
140659;0.083008;0.027344;1.036133;
140800;0.082031;0.028320;1.044922;
140949;0.081055;0.024414;1.042969;
141100;0.083008;0.020508;1.075195;
141239;0.083984;0.025391;1.091797;
141389;0.082031;0.023438;1.120117;
141544;0.085938;0.023438;1.125977;
141684;0.087891;0.028320;1.098633;
141824;0.081055;0.026367;1.101562;
141964;0.083008;0.027344;1.101562;
142103;0.085938;0.027344;1.113281;
142244;0.084961;0.029297;1.108398;
142384;0.083008;0.024414;1.083984;
142534;0.079102;0.023438;1.067383;
142674;0.078125;0.022461;1.055664;
142824;0.079102;0.025391;1.062500;
142964;0.082031;0.026367;1.071289;
143103;0.083008;0.023438;1.065430;
143254;0.086914;0.027344;1.070312;
143393;0.078125;0.022461;1.057617;
143519;0.083008;0.021484;1.068359;
143670;0.081055;0.023438;1.075195;
143809;0.082031;0.024414;1.053711;
143949;0.081055;0.020508;1.014648;
144089;0.079102;0.023438;0.997070;
144239;0.075195;0.028320;0.993164;
144379;0.076172;0.026367;0.983398;
144533;0.077148;0.025391;0.981445;
144674;0.078125;0.023438;0.961914;
144814;0.076172;0.026367;0.946289;
144963;0.076172;0.022461;0.949219;
145104;0.073242;0.031250;0.964844;
145244;0.073242;0.028320;0.969727;
145384;0.074219;0.029297;0.967773;
145524;0.078125;0.029297;0.952148;
145674;0.072266;0.027344;0.941406;
145814;0.072266;0.021484;0.953125;
145954;0.075195;0.027344;0.961914;
146094;0.077148;0.024414;0.970703;
146234;0.076172;0.027344;0.965820;
146374;0.074219;0.022461;0.953125;
146509;0.075195;0.030273;0.992188;
146649;0.076172;0.025391;1.010742;
146799;0.075195;0.024414;1.008789;
146949;0.078125;0.023438;1.003906;
147099;0.072266;0.022461;1.001953;
147229;0.073242;0.020508;1.018555;
147379;0.079102;0.023438;1.055664;
147534;0.080078;0.022461;1.067383;
147674;0.075195;0.029297;1.069336;
147814;0.079102;0.023438;1.050781;
147954;0.075195;0.023438;1.049805;
148094;0.079102;0.029297;1.077148;
148234;0.079102;0.029297;1.094727;
148373;0.078125;0.024414;1.072266;
148514;0.075195;0.022461;1.064453;
148663;0.077148;0.028320;1.083008;
148804;0.075195;0.025391;1.110352;
148945;0.077148;0.027344;1.117188;
149094;0.076172;0.024414;1.106445;
149234;0.076172;0.015625;1.083008;
149374;0.075195;0.015625;1.074219;
149519;0.074219;0.021484;1.082031;
149659;0.075195;0.021484;1.082031;
149814;0.073242;0.024414;1.065430;
149949;0.075195;0.018555;1.037109;
150089;0.076172;0.026367;1.034180;
150239;0.070312;0.026367;1.051758;
150369;0.072266;0.025391;1.054688;
150519;0.073242;0.028320;1.025391;
150659;0.070312;0.033203;1.013672;
150814;0.071289;0.021484;1.000000;
150954;0.070312;0.034180;1.023438;
151093;0.070312;0.028320;1.033203;
151234;0.072266;0.026367;1.027344;
151374;0.068359;0.019531;1.004883;
151513;0.071289;0.026367;1.031250;
151654;0.073242;0.028320;1.041016;
151794;0.075195;0.025391;1.042969;
151934;0.069336;0.027344;1.042969;
152084;0.071289;0.026367;1.071289;
152223;0.071289;0.026367;1.097656;
152363;0.073242;0.025391;1.125977;
152504;0.073242;0.030273;1.143555;
152644;0.074219;0.025391;1.190430;
152789;0.074219;0.028320;1.239258;
152929;0.080078;0.030273;1.319336;
153069;0.082031;0.019531;1.355469;
153221;0.086914;0.019531;1.428711;
153359;0.088867;0.024414;1.487305;
153509;0.091797;0.017578;1.541016;
153664;0.093750;0.024414;1.591797;
153804;0.098633;0.019531;1.649414;
153954;0.101562;0.019531;1.670898;
154094;0.101562;0.015625;1.686523;
154234;0.099609;0.013672;1.707031;
154374;0.102539;0.016602;1.753906;
154513;0.107422;0.018555;1.776367;
154654;0.109375;0.019531;1.802734;
154794;0.108398;0.024414;1.831055;
154934;0.105469;0.023438;1.843750;
155074;0.112305;0.029297;1.884766;
155213;0.117188;0.026367;1.910156;
155354;0.114258;0.017578;1.920898;
155504;0.118164;0.017578;1.937500;
155639;0.119141;0.022461;1.953125;
155779;0.117188;0.025391;1.941406;
155919;0.117188;0.016602;1.932617;
156049;0.118164;0.021484;1.935547;
156189;0.119141;0.016602;1.926758;
156329;0.121094;0.029297;1.916016;
156469;0.117188;0.020508;1.894531;
156619;0.114258;0.016602;1.882812;
156774;0.111328;0.017578;1.877930;
156914;0.115234;0.022461;1.874023;
157054;0.114258;0.022461;1.858398;
157194;0.114258;0.020508;1.845703;
157334;0.112305;0.021484;1.838867;
157484;0.115234;0.018555;1.839844;
157624;0.114258;0.026367;1.830078;
157764;0.115234;0.022461;1.836914;
157913;0.114258;0.019531;1.837891;
158054;0.118164;0.017578;1.850586;
158194;0.115234;0.013672;1.847656;
158334;0.118164;0.014648;1.862305;
158484;0.116211;0.021484;1.865234;
158623;0.113281;0.020508;1.849609;
158749;0.117188;0.024414;1.862305;
158889;0.118164;0.022461;1.861328;
159039;0.114258;0.020508;1.874023;
159189;0.122070;0.014648;1.856445;
159334;0.122070;0.017578;1.859375;
159474;0.116211;0.011719;1.863281;
159609;0.121094;0.007812;1.868164;
159749;0.123047;0.011719;1.852539;
159890;0.119141;0.008789;1.845703;
160034;0.125000;0.010742;1.845703;
160174;0.124023;0.016602;1.837891;
160313;0.120117;0.031250;1.833008;
160454;0.130859;0.022461;1.822266;
160594;0.121094;0.017578;1.830078;
160734;0.126953;0.029297;1.843750;
160873;0.122070;0.021484;1.836914;
161023;0.127930;0.017578;1.808594;
161164;0.121094;0.027344;1.793945;
161304;0.129883;0.026367;1.795898;
161454;0.125000;0.014648;1.814453;
161593;0.125000;0.017578;1.823242;
161734;0.126953;0.022461;1.808594;
161874;0.134766;0.014648;1.793945;
162009;0.134766;0.012695;1.857422;
162149;0.134766;0.013672;1.855469;
162299;0.138672;0.024414;1.826172;
162449;0.129883;0.023438;1.830078;
162589;0.142578;0.012695;1.865234;
162729;0.142578;0.013672;1.880859;
162859;0.141602;0.006836;1.864258;
163010;0.140625;0.023438;1.849609;
163154;0.148438;0.016602;1.831055;
163295;0.141602;0.026367;1.826172;
163444;0.140625;0.023438;1.847656;
163584;0.143555;0.020508;1.855469;
163733;0.148438;0.022461;1.865234;
163874;0.147461;0.029297;1.886719;
164014;0.145508;0.014648;1.890625;
164163;0.149414;0.027344;1.864258;
164303;0.151367;0.010742;1.878906;
164453;0.154297;0.013672;1.884766;
164594;0.150391;0.005859;1.865234;
164734;0.160156;0.018555;1.897461;
164884;0.153320;0.011719;1.893555;
165025;0.161133;0.019531;1.913086;
165169;0.156250;0.014648;1.890625;
165319;0.164062;0.014648;1.914062;
165469;0.156250;0.011719;1.911133;
165599;0.162109;0.022461;1.924805;
165749;0.161133;0.017578;1.920898;
165889;0.160156;0.018555;1.934570;
166034;0.162109;0.026367;1.923828;
166174;0.163086;0.018555;1.882812;
166314;0.166016;0.010742;1.880859;
166465;0.165039;0.014648;1.871094;
166613;0.166016;0.011719;1.871094;
166754;0.169922;0.003906;1.873047;
166903;0.168945;0.002930;1.874023;
167044;0.166992;0.006836;1.856445;
167184;0.169922;0.012695;1.851562;
167324;0.166992;0.019531;1.833008;
167463;0.167969;0.018555;1.822266;
167604;0.169922;0.016602;1.813477;
167743;0.168945;0.021484;1.818359;
167884;0.168945;0.025391;1.808594;
168019;0.173828;0.017578;1.783203;
168169;0.168945;0.019531;1.794922;
168299;0.171875;0.015625;1.790039;
168449;0.176758;0.012695;1.798828;
168599;0.177734;0.018555;1.810547;
168749;0.179688;0.016602;1.817383;
168889;0.183594;0.012695;1.832031;
169024;0.186523;0.018555;1.822266;
169163;0.186523;0.027344;1.832031;
169304;0.186523;0.017578;1.831055;
169444;0.191406;0.014648;1.847656;
169584;0.190430;0.014648;1.824219;
169724;0.195312;0.016602;1.845703;
169864;0.195312;0.013672;1.853516;
170004;0.195312;0.024414;1.855469;
170144;0.198242;0.013672;1.846680;
170294;0.195312;0.007812;1.836914;
170434;0.201172;0.020508;1.851562;
170574;0.204102;0.014648;1.848633;
170713;0.202148;0.015625;1.841797;
170854;0.205078;0.016602;1.835938;
170999;0.204102;0.018555;1.834961;
171139;0.203125;0.016602;1.830078;
171289;0.202148;0.020508;1.799805;
171440;0.199219;0.020508;1.769531;
171580;0.207031;0.018555;1.791992;
171719;0.206055;0.022461;1.750000;
171869;0.201172;0.017578;1.731445;
172024;0.193359;0.019531;1.718750;
172163;0.189453;0.036133;1.694336;
172304;0.185547;0.015625;1.674805;
172445;0.179688;0.023438;1.644531;
172593;0.166992;0.017578;1.610352;
172734;0.160156;0.014648;1.594727;
172873;0.149414;0.008789;1.547852;
173013;0.146484;0.007812;1.509766;
173154;0.128906;0.009766;1.428711;
173294;0.117188;0.011719;1.365234;
173434;0.097656;0.018555;1.240234;
173574;0.082031;0.019531;1.168945;
173714;0.065430;0.021484;0.987305;
173853;0.049805;0.031250;0.911133;
173989;0.037109;0.033203;0.759766;
174139;0.030273;0.038086;0.675781;
174269;0.018555;0.034180;0.565430;
174419;0.012695;0.033203;0.468750;
174569;0.007812;0.033203;0.375000;
174719;0.004883;0.031250;0.287109;
174870;0.000977;0.034180;0.209961;
175024;0.002930;0.025391;0.144531;
175174;0.000000;0.025391;0.112305;
175314;0.000977;0.025391;0.080078;
175454;0.004883;0.027344;0.046875;
175594;0.002930;0.024414;0.028320;
175734;0.000000;0.026367;0.006836;
175879;-0.002930;0.024414;0.010742;
176024;0.000000;0.025391;0.011719;
176163;0.002930;0.029297;0.008789;
176304;-0.004883;0.028320;0.003906;
176439;-0.002930;0.027344;0.010742;
176594;-0.002930;0.024414;-0.003906;
176734;-0.000977;0.027344;0.009766;
176874;-0.004883;0.027344;-0.003906;
177009;-0.004883;0.029297;0.000977;
177159;-0.002930;0.032227;0.002930;
177309;-0.005859;0.029297;0.000977;
177449;-0.006836;0.030273;-0.007812;
177589;-0.005859;0.031250;-0.002930;
177729;-0.004883;0.033203;-0.003906;
177879;-0.005859;0.031250;0.005859;
178029;-0.010742;0.027344;-0.008789;
178169;-0.010742;0.031250;-0.013672;
178324;-0.012695;0.030273;-0.004883;
178464;-0.008789;0.030273;0.003906;
178604;-0.005859;0.029297;-0.005859;
178744;-0.006836;0.028320;-0.001953;
178869;-0.011719;0.030273;-0.017578;
179024;-0.011719;0.027344;0.001953;
179173;-0.010742;0.033203;0.007812;
179313;-0.009766;0.031250;0.007812;
179454;-0.011719;0.026367;0.001953;
179594;-0.009766;0.032227;0.006836;
179734;-0.012695;0.027344;0.000000;
179874;-0.011719;0.031250;0.000977;
180020;-0.009766;0.030273;0.013672;
180159;-0.014648;0.033203;-0.000977;
180299;-0.013672;0.032227;0.000000;
180439;-0.012695;0.030273;0.024414;
180579;-0.015625;0.028320;0.006836;
180719;-0.011719;0.030273;0.020508;
180869;-0.013672;0.029297;0.014648;
181009;-0.013672;0.029297;0.024414;
181149;-0.015625;0.028320;0.001953;
181304;-0.009766;0.029297;0.023438;
181454;-0.012695;0.028320;0.010742;
181595;-0.013672;0.030273;0.011719;
181744;-0.015625;0.030273;0.004883;
181884;-0.015625;0.029297;0.005859;
182024;-0.015625;0.027344;0.013672;
182164;-0.016602;0.030273;0.013672;
182304;-0.012695;0.025391;0.012695;
182443;-0.014648;0.028320;0.019531;
182584;-0.012695;0.027344;0.020508;
182734;-0.016602;0.028320;0.029297;
182874;-0.014648;0.028320;0.026367;
183014;-0.013672;0.027344;0.020508;
183154;-0.014648;0.029297;0.023438;
183299;-0.015625;0.027344;0.028320;
183449;-0.013672;0.025391;0.024414;
183599;-0.013672;0.026367;0.032227;
183749;-0.015625;0.025391;0.031250;
183891;-0.013672;0.024414;0.030273;
184029;-0.016602;0.028320;0.027344;
184169;-0.018555;0.028320;0.028320;
184319;-0.018555;0.027344;0.027344;
184474;-0.016602;0.025391;0.025391;
184613;-0.017578;0.024414;0.025391;
184754;-0.016602;0.028320;0.029297;
184894;-0.012695;0.026367;0.028320;
185034;-0.017578;0.028320;0.026367;
185174;-0.018555;0.027344;0.026367;
185314;-0.015625;0.025391;0.028320;
185449;-0.015625;0.025391;0.025391;
185579;-0.017578;0.026367;0.011719;
185724;-0.017578;0.024414;0.014648;
185864;-0.017578;0.025391;0.019531;
186004;-0.016602;0.026367;0.011719;
186139;-0.015625;0.027344;0.012695;
186284;-0.018555;0.024414;0.023438;
186419;-0.016602;0.027344;0.013672;
186559;-0.017578;0.027344;0.013672;
186699;-0.018555;0.022461;0.019531;
186839;-0.019531;0.024414;0.012695;
186989;-0.013672;0.026367;0.022461;
187139;-0.022461;0.026367;0.005859;
187269;-0.017578;0.026367;0.025391;
187419;-0.020508;0.028320;0.010742;
187559;-0.016602;0.030273;0.024414;
187714;-0.017578;0.025391;0.025391;
187854;-0.017578;0.031250;0.024414;
187994;-0.018555;0.030273;0.027344;
188129;-0.017578;0.025391;0.015625;
188274;-0.019531;0.026367;0.014648;
188423;-0.016602;0.027344;0.028320;
188564;-0.019531;0.027344;0.013672;
188699;-0.016602;0.029297;0.036133;
188844;-0.020508;0.025391;0.012695;
188984;-0.019531;0.026367;0.017578;
189124;-0.017578;0.026367;0.024414;
189264;-0.019531;0.030273;0.010742;
189399;-0.015625;0.024414;0.013672;
189539;-0.019531;0.029297;0.000977;
189679;-0.022461;0.026367;0.009766;
189829;-0.018555;0.026367;0.006836;
189969;-0.019531;0.023438;0.011719;
190119;-0.020508;0.028320;0.004883;
190259;-0.019531;0.025391;0.005859;
190404;-0.008789;0.011719;0.036133;
190543;-0.020508;0.027344;0.001953;
190684;-0.022461;0.029297;0.000977;
190824;-0.019531;0.026367;0.000977;
190964;-0.017578;0.030273;-0.002930;
191104;-0.021484;0.031250;-0.003906;
191244;-0.024414;0.030273;-0.002930;
191384;-0.020508;0.029297;0.002930;
191524;-0.023438;0.029297;0.001953;
191664;-0.024414;0.028320;0.003906;
191804;-0.020508;0.030273;0.000000;
191944;-0.024414;0.029297;0.003906;
192084;-0.023438;0.028320;0.003906;
192223;-0.021484;0.026367;0.010742;
192359;-0.022461;0.027344;0.009766;
192509;-0.025391;0.028320;0.019531;
192664;-0.021484;0.028320;0.023438;
192799;-0.024414;0.027344;0.024414;
192949;-0.023438;0.031250;0.018555;
193099;-0.024414;0.028320;0.019531;
193241;-0.026367;0.027344;0.023438;
193379;-0.024414;0.032227;0.022461;
193519;-0.025391;0.028320;0.018555;
193669;-0.026367;0.030273;0.016602;
193824;-0.026367;0.026367;0.019531;
193964;-0.023438;0.033203;0.020508;
194104;-0.025391;0.029297;0.015625;
194243;-0.027344;0.024414;0.018555;
194384;-0.026367;0.022461;0.010742;
194533;-0.026367;0.028320;0.008789;
194674;-0.028320;0.030273;0.000977;
194823;-0.028320;0.024414;-0.001953;
194969;-0.027344;0.028320;-0.006836;
195114;-0.027344;0.031250;-0.003906;
195254;-0.030273;0.030273;-0.012695;
195404;-0.031250;0.026367;-0.010742;
195545;-0.030273;0.025391;-0.000977;
195689;-0.033203;0.026367;-0.008789;
195839;-0.028320;0.031250;-0.004883;
195969;-0.033203;0.024414;-0.003906;
196119;-0.034180;0.026367;-0.009766;
196259;-0.032227;0.029297;0.000977;
196409;-0.030273;0.030273;0.002930;
196564;-0.030273;0.029297;0.000000;
196699;-0.032227;0.023438;0.004883;
196854;-0.036133;0.027344;0.003906;
196994;-0.032227;0.030273;0.012695;
197134;-0.035156;0.032227;0.005859;
197274;-0.036133;0.026367;0.014648;
197413;-0.038086;0.027344;0.017578;
197554;-0.035156;0.029297;0.012695;
197694;-0.034180;0.030273;0.026367;
197834;-0.037109;0.028320;0.020508;
197974;-0.038086;0.027344;0.018555;
198114;-0.036133;0.025391;0.017578;
198253;-0.040039;0.028320;-0.000977;
198404;-0.041016;0.030273;0.000000;
198539;-0.041992;0.023438;0.000977;
198669;-0.043945;0.023438;0.010742;
198799;-0.040039;0.031250;0.071289;
198950;-0.039062;0.024414;0.132812;
199089;-0.050781;0.038086;0.121094;
199229;-0.037109;0.029297;0.248047;
199369;-0.046875;0.029297;0.322266;
199519;-0.041992;0.023438;0.444336;
199673;-0.029297;0.026367;0.567383;
199814;-0.023438;0.028320;0.678711;
199954;-0.015625;0.029297;0.822266;
200093;-0.002930;0.026367;0.926758;
200233;0.006836;0.031250;1.047852;
200374;0.006836;0.022461;1.128906;
200514;0.011719;0.020508;1.228516;
200654;0.013672;0.023438;1.276367;
200794;0.022461;0.019531;1.341797;
200934;0.027344;0.015625;1.390625;
201073;0.034180;0.017578;1.435547;
201223;0.039062;0.016602;1.458984;
201364;0.045898;0.018555;1.498047;
201504;0.048828;0.019531;1.533203;
201650;0.047852;0.028320;1.551758;
201779;0.049805;0.031250;1.592773;
201929;0.050781;0.036133;1.622070;
202069;0.049805;0.039062;1.661133;
202209;0.051758;0.045898;1.685547;
202359;0.043945;0.039062;1.705078;
202489;0.044922;0.052734;1.725586;
202644;0.043945;0.044922;1.716797;
202784;0.044922;0.039062;1.724609;
202924;0.052734;0.030273;1.743164;
203064;0.047852;0.027344;1.757812;
203204;0.047852;0.027344;1.748047;
203344;0.048828;0.029297;1.729492;
203484;0.050781;0.030273;1.746094;
203624;0.044922;0.025391;1.736328;
203763;0.043945;0.026367;1.768555;
203904;0.041016;0.021484;1.719727;
204043;0.038086;0.031250;1.725586;
204183;0.038086;0.022461;1.728516;
204319;0.036133;0.029297;1.732422;
204463;0.037109;0.028320;1.743164;
204599;0.032227;0.026367;1.763672;
204749;0.035156;0.028320;1.762695;
204899;0.034180;0.024414;1.792969;
205049;0.036133;0.026367;1.818359;
205199;0.035156;0.023438;1.835938;
205340;0.039062;0.025391;1.840820;
205479;0.037109;0.028320;1.854492;
205633;0.036133;0.029297;1.852539;
205783;0.037109;0.030273;1.864258;
205924;0.033203;0.025391;1.856445;
206064;0.031250;0.023438;1.848633;
206204;0.027344;0.025391;1.845703;
206343;0.026367;0.027344;1.838867;
206484;0.021484;0.025391;1.808594;
206624;0.017578;0.029297;1.794922;
206763;0.013672;0.028320;1.795898;
206904;0.012695;0.033203;1.773438;
207039;0.009766;0.028320;1.757812;
207183;0.008789;0.031250;1.753906;
207334;0.007812;0.025391;1.746094;
207474;0.006836;0.025391;1.754883;
207619;0.007812;0.025391;1.752930;
207769;0.005859;0.033203;1.754883;
207909;0.004883;0.034180;1.776367;
208059;0.002930;0.031250;1.779297;
208199;0.001953;0.030273;1.780273;
208339;0.000000;0.028320;1.794922;
208494;-0.000977;0.028320;1.803711;
208644;-0.000977;0.019531;1.802734;
208784;-0.000977;0.017578;1.810547;
208934;0.003906;0.012695;1.823242;
209073;-0.001953;0.013672;1.831055;
209213;0.000977;0.007812;1.839844;
209354;0.001953;0.013672;1.844727;
209494;-0.005859;0.015625;1.844727;
209634;-0.003906;0.015625;1.845703;
209774;-0.008789;0.016602;1.841797;
209913;-0.006836;0.019531;1.850586;
210054;-0.006836;0.022461;1.838867;
210204;-0.008789;0.029297;1.848633;
210344;-0.006836;0.025391;1.853516;
210479;-0.010742;0.028320;1.832031;
210629;-0.012695;0.027344;1.837891;
210759;-0.012695;0.026367;1.837891;
210909;-0.012695;0.027344;1.834961;
211049;-0.015625;0.026367;1.811523;
211192;-0.016602;0.027344;1.804688;
211329;-0.018555;0.025391;1.805664;
211479;-0.017578;0.025391;1.801758;
211624;-0.017578;0.023438;1.808594;
211764;-0.018555;0.014648;1.803711;
211904;-0.020508;0.010742;1.794922;
212043;-0.019531;0.013672;1.790039;
212184;-0.023438;0.015625;1.791992;
212324;-0.025391;0.020508;1.793945;
212464;-0.024414;0.018555;1.796875;
212604;-0.025391;0.023438;1.797852;
212744;-0.029297;0.024414;1.793945;
212884;-0.027344;0.027344;1.791016;
213034;-0.028320;0.028320;1.804688;
213174;-0.027344;0.028320;1.815430;
213314;-0.030273;0.019531;1.801758;
213454;-0.028320;0.023438;1.813477;
213589;-0.029297;0.020508;1.816406;
213739;-0.028320;0.023438;1.815430;
213890;-0.031250;0.024414;1.798828;
214019;-0.032227;0.029297;1.778320;
214159;-0.037109;0.018555;1.766602;
214309;-0.040039;0.020508;1.728516;
214459;-0.046875;0.019531;1.676758;
214614;-0.044922;0.024414;1.644531;
214764;-0.048828;0.024414;1.627930;
214903;-0.053711;0.021484;1.593750;
215044;-0.055664;0.023438;1.571289;
215183;-0.055664;0.026367;1.547852;
215325;-0.057617;0.026367;1.528320;
215474;-0.060547;0.025391;1.516602;
215623;-0.060547;0.026367;1.511719;
215763;-0.059570;0.026367;1.500977;
215904;-0.061523;0.020508;1.493164;
216044;-0.063477;0.020508;1.487305;
216184;-0.064453;0.017578;1.486328;
216334;-0.064453;0.019531;1.491211;
216485;-0.062500;0.016602;1.489258;
216629;-0.064453;0.022461;1.497070;
216760;-0.062500;0.025391;1.491211;
216899;-0.064453;0.023438;1.493164;
217049;-0.064453;0.027344;1.492188;
217199;-0.065430;0.025391;1.487305;
217349;-0.066406;0.028320;1.483398;
217494;-0.067383;0.022461;1.464844;
217634;-0.069336;0.016602;1.438477;
217774;-0.069336;0.013672;1.403320;
217924;-0.073242;0.009766;1.373047;
218064;-0.073242;0.008789;1.373047;
218204;-0.077148;0.014648;1.357422;
218353;-0.073242;0.015625;1.387695;
218494;-0.073242;0.013672;1.401367;
218634;-0.071289;0.014648;1.438477;
218783;-0.068359;0.016602;1.477539;
218923;-0.062500;0.026367;1.536133;
219073;-0.062500;0.020508;1.590820;
219213;-0.055664;0.027344;1.630859;
219354;-0.054688;0.028320;1.670898;
219499;-0.054688;0.027344;1.693359;
219629;-0.052734;0.031250;1.702148;
219779;-0.055664;0.026367;1.692383;
219919;-0.057617;0.028320;1.679688;
220069;-0.054688;0.028320;1.658203;
220209;-0.059570;0.025391;1.606445;
220349;-0.061523;0.020508;1.577148;
220493;-0.062500;0.021484;1.543945;
220634;-0.069336;0.018555;1.492188;
220774;-0.069336;0.019531;1.457031;
220914;-0.073242;0.019531;1.406250;
221054;-0.077148;0.024414;1.378906;
221194;-0.077148;0.022461;1.343750;
221333;-0.078125;0.023438;1.309570;
221484;-0.081055;0.026367;1.286133;
221623;-0.082031;0.024414;1.276367;
221764;-0.083984;0.033203;1.262695;
221904;-0.085938;0.026367;1.240234;
222044;-0.083984;0.024414;1.237305;
222184;-0.085938;0.027344;1.242188;
222324;-0.083008;0.028320;1.249023;
222459;-0.083008;0.025391;1.255859;
222599;-0.083008;0.030273;1.268555;
222739;-0.080078;0.020508;1.291992;
222889;-0.078125;0.023438;1.334961;
223029;-0.080078;0.021484;1.354492;
223180;-0.073242;0.024414;1.409180;
223329;-0.069336;0.018555;1.456055;
223484;-0.070312;0.020508;1.471680;
223633;-0.067383;0.018555;1.486328;
223774;-0.068359;0.016602;1.475586;
223914;-0.069336;0.026367;1.457031;
224053;-0.074219;0.025391;1.412109;
224194;-0.078125;0.021484;1.357422;
224334;-0.080078;0.023438;1.307617;
224474;-0.081055;0.023438;1.251953;
224614;-0.085938;0.025391;1.216797;
224753;-0.086914;0.027344;1.178711;
224894;-0.088867;0.022461;1.148438;
225034;-0.089844;0.025391;1.129883;
225174;-0.088867;0.022461;1.109375;
225314;-0.086914;0.022461;1.113281;
225459;-0.090820;0.022461;1.117188;
225609;-0.087891;0.024414;1.129883;
225759;-0.088867;0.027344;1.143555;
225910;-0.086914;0.027344;1.168945;
226049;-0.088867;0.027344;1.170898;
226189;-0.085938;0.023438;1.180664;
226339;-0.085938;0.023438;1.188477;
226484;-0.083984;0.026367;1.197266;
226624;-0.085938;0.024414;1.202148;
226764;-0.082031;0.017578;1.217773;
226903;-0.079102;0.023438;1.231445;
227043;-0.080078;0.022461;1.255859;
227184;-0.077148;0.019531;1.278320;
227323;-0.076172;0.019531;1.282227;
227464;-0.074219;0.019531;1.293945;
227604;-0.070312;0.015625;1.285156;
227744;-0.070312;0.023438;1.273438;
227884;-0.072266;0.018555;1.261719;
228024;-0.067383;0.019531;1.250000;
228164;-0.070312;0.018555;1.235352;
228304;-0.072266;0.018555;1.196289;
228449;-0.065430;0.018555;1.176758;
228599;-0.071289;0.023438;1.163086;
228739;-0.068359;0.025391;1.146484;
228889;-0.066406;0.028320;1.137695;
229040;-0.058594;0.026367;1.130859;
229169;-0.058594;0.027344;1.125977;
229321;-0.053711;0.027344;1.114258;
229464;-0.047852;0.022461;1.100586;
229604;-0.043945;0.032227;1.102539;
229754;-0.041016;0.028320;1.098633;
229894;-0.034180;0.031250;1.103516;
230034;-0.029297;0.031250;1.086914;
230174;-0.024414;0.028320;1.090820;
230309;-0.019531;0.028320;1.081055;
230463;-0.017578;0.026367;1.075195;
230604;-0.017578;0.032227;1.072266;
230744;-0.017578;0.031250;1.052734;
230884;-0.015625;0.033203;1.051758;
231024;-0.017578;0.028320;1.043945;
231164;-0.014648;0.025391;1.039062;
231304;-0.016602;0.023438;1.037109;
231439;-0.016602;0.024414;1.022461;
231589;-0.018555;0.022461;1.004883;
231739;-0.020508;0.028320;1.008789;
231890;-0.017578;0.023438;1.000000;
232039;-0.018555;0.023438;0.994141;
232181;-0.021484;0.020508;0.980469;
232319;-0.020508;0.024414;0.980469;
232474;-0.021484;0.022461;0.986328;
232614;-0.018555;0.026367;0.981445;
232753;-0.016602;0.022461;0.987305;
232894;-0.021484;0.026367;0.989258;
233033;-0.020508;0.021484;1.001953;
233174;-0.016602;0.025391;1.006836;
233313;-0.017578;0.017578;1.013672;
233454;-0.016602;0.021484;1.033203;
233594;-0.015625;0.025391;1.032227;
233734;-0.015625;0.020508;1.030273;
233869;-0.017578;0.018555;1.037109;
234024;-0.011719;0.025391;1.039062;
234164;-0.016602;0.021484;1.018555;
234304;-0.014648;0.018555;1.022461;
234440;-0.017578;0.022461;1.018555;
234579;-0.017578;0.018555;1.006836;
234729;-0.016602;0.022461;1.020508;
234861;-0.019531;0.024414;1.008789;
235009;-0.022461;0.024414;1.019531;
235149;-0.020508;0.021484;1.008789;
235289;-0.019531;0.019531;1.006836;
235434;-0.017578;0.023438;1.011719;
235574;-0.015625;0.023438;1.012695;
235723;-0.014648;0.021484;1.012695;
235865;-0.014648;0.021484;1.012695;
236013;-0.017578;0.022461;1.023438;
236154;-0.015625;0.017578;1.007812;
236294;-0.009766;0.018555;1.014648;
236434;-0.017578;0.019531;1.006836;
236574;-0.016602;0.011719;0.985352;
236713;-0.021484;0.023438;0.993164;
236854;-0.018555;0.018555;0.993164;
237003;-0.020508;0.024414;0.996094;
237144;-0.018555;0.022461;0.997070;
237284;-0.020508;0.021484;0.986328;
237429;-0.019531;0.026367;0.995117;
237570;-0.016602;0.024414;0.994141;
237719;-0.022461;0.024414;1.000977;
237869;-0.016602;0.023438;0.994141;
237999;-0.017578;0.021484;1.001953;
238149;-0.014648;0.018555;1.004883;
238279;-0.014648;0.024414;1.017578;
238433;-0.013672;0.022461;1.022461;
238574;-0.015625;0.029297;1.023438;
238714;-0.012695;0.023438;1.040039;
238849;-0.017578;0.024414;1.037109;
238994;-0.016602;0.026367;1.056641;
239143;-0.012695;0.024414;1.058594;
239283;-0.016602;0.024414;1.047852;
239424;-0.018555;0.021484;1.055664;
239564;-0.015625;0.020508;1.065430;
239703;-0.013672;0.024414;1.067383;
239844;-0.014648;0.021484;1.081055;
239984;-0.013672;0.022461;1.090820;
240124;-0.011719;0.017578;1.095703;
240264;-0.011719;0.021484;1.122070;
240399;-0.011719;0.018555;1.117188;
240549;-0.010742;0.018555;1.126953;
240689;-0.013672;0.025391;1.115234;
240829;-0.010742;0.022461;1.127930;
240959;-0.012695;0.026367;1.112305;
241109;-0.014648;0.025391;1.108398;
241259;-0.013672;0.026367;1.106445;
241414;-0.012695;0.025391;1.103516;
241564;-0.013672;0.021484;1.103516;
241704;-0.012695;0.023438;1.106445;
241840;-0.008789;0.026367;1.114258;
241984;-0.013672;0.026367;1.117188;
242124;-0.010742;0.021484;1.106445;
242263;-0.010742;0.024414;1.119141;
242403;-0.009766;0.023438;1.124023;
242543;-0.009766;0.021484;1.120117;
242684;-0.007812;0.022461;1.112305;
242824;-0.011719;0.023438;1.107422;
242964;-0.011719;0.025391;1.112305;
243104;-0.014648;0.026367;1.097656;
243244;-0.012695;0.027344;1.100586;
243389;-0.010742;0.027344;1.105469;
243529;-0.012695;0.028320;1.099609;
243680;-0.018555;0.027344;1.082031;
243820;-0.012695;0.023438;1.079102;
243959;-0.010742;0.029297;1.066406;
244109;-0.011719;0.024414;1.056641;
244239;-0.007812;0.027344;1.053711;
244394;-0.009766;0.027344;1.038086;
244534;-0.011719;0.030273;1.019531;
244674;-0.016602;0.024414;0.976562;
244824;-0.017578;0.024414;0.937500;
244963;-0.021484;0.024414;0.896484;
245104;-0.026367;0.029297;0.868164;
245244;-0.026367;0.029297;0.833984;
245383;-0.024414;0.029297;0.816406;
245524;-0.026367;0.029297;0.798828;
245660;-0.021484;0.027344;0.804688;
245804;-0.022461;0.029297;0.811523;
245944;-0.022461;0.028320;0.835938;
246093;-0.014648;0.026367;0.860352;
246234;-0.016602;0.028320;0.890625;
246380;-0.020508;0.026367;0.916016;
246529;-0.019531;0.022461;0.923828;
246669;-0.016602;0.029297;0.955078;
246819;-0.015625;0.024414;0.970703;
246959;-0.017578;0.029297;0.980469;
247099;-0.016602;0.029297;0.989258;
247249;-0.019531;0.029297;0.998047;
247394;-0.018555;0.031250;0.999023;
247544;-0.017578;0.024414;1.004883;
247684;-0.013672;0.029297;1.010742;
247824;-0.018555;0.024414;0.990234;
247964;-0.011719;0.023438;1.007812;
248104;-0.018555;0.026367;1.003906;
248244;-0.015625;0.026367;1.001953;
248384;-0.014648;0.027344;1.004883;
248524;-0.014648;0.025391;0.986328;
248663;-0.015625;0.028320;0.993164;
248803;-0.019531;0.033203;0.986328;
248939;-0.018555;0.026367;0.983398;
249094;-0.017578;0.028320;0.999023;
249233;-0.017578;0.029297;1.000000;
249369;-0.018555;0.027344;1.017578;
249524;-0.015625;0.033203;1.039062;
249661;-0.013672;0.029297;1.058594;
249799;-0.016602;0.028320;1.072266;
249939;-0.010742;0.029297;1.100586;
250089;-0.008789;0.026367;1.124023;
250239;-0.012695;0.022461;1.139648;
250394;-0.005859;0.021484;1.144531;
250533;-0.009766;0.023438;1.149414;
250673;-0.004883;0.025391;1.181641;
250809;-0.003906;0.022461;1.183594;
250954;-0.003906;0.026367;1.187500;
251094;-0.007812;0.021484;1.181641;
251234;-0.004883;0.027344;1.179688;
251373;-0.012695;0.023438;1.171875;
251514;-0.009766;0.023438;1.159180;
251664;-0.007812;0.024414;1.170898;
251803;-0.005859;0.026367;1.154297;
251954;-0.008789;0.026367;1.147461;
252094;-0.006836;0.028320;1.144531;
252233;-0.005859;0.026367;1.147461;
252369;-0.006836;0.027344;1.129883;
252509;-0.007812;0.024414;1.127930;
252659;-0.012695;0.026367;1.122070;
252799;-0.009766;0.021484;1.124023;
252949;-0.007812;0.024414;1.125000;
253099;-0.010742;0.026367;1.096680;
253239;-0.012695;0.027344;1.073242;
253383;-0.013672;0.023438;1.052734;
253533;-0.013672;0.027344;1.030273;
253674;-0.014648;0.027344;1.006836;
253814;-0.017578;0.027344;0.979492;
253963;-0.014648;0.027344;0.983398;
254104;-0.015625;0.024414;0.967773;
254244;-0.014648;0.024414;0.966797;
254384;-0.012695;0.026367;0.968750;
254524;-0.018555;0.025391;0.950195;
254664;-0.016602;0.032227;0.952148;
254814;-0.014648;0.029297;0.946289;
254954;-0.021484;0.026367;0.933594;
255094;-0.017578;0.032227;0.947266;
255234;-0.019531;0.031250;0.942383;
255369;-0.018555;0.028320;0.936523;
255519;-0.015625;0.031250;0.949219;
255649;-0.013672;0.029297;0.954102;
255789;-0.012695;0.029297;0.965820;
255929;-0.014648;0.030273;0.961914;
256069;-0.016602;0.030273;0.960938;
256209;-0.014648;0.025391;0.947266;
256363;-0.013672;0.027344;0.962891;
256504;-0.018555;0.027344;0.938477;
256644;-0.013672;0.031250;0.938477;
256779;-0.019531;0.027344;0.940430;
256924;-0.017578;0.031250;0.938477;
257064;-0.018555;0.028320;0.958984;
257204;-0.017578;0.024414;0.955078;
257344;-0.015625;0.028320;0.966797;
257484;-0.013672;0.025391;0.971680;
257624;-0.012695;0.025391;0.966797;
257763;-0.015625;0.025391;0.968750;
257904;-0.016602;0.028320;0.964844;
258043;-0.016602;0.029297;0.967773;
258184;-0.019531;0.034180;0.968750;
258319;-0.017578;0.027344;0.983398;
258469;-0.017578;0.033203;0.982422;
258619;-0.018555;0.033203;0.994141;
258769;-0.017578;0.027344;1.007812;
258909;-0.015625;0.030273;1.032227;
259049;-0.013672;0.025391;1.046875;
259189;-0.009766;0.026367;1.071289;
259334;-0.007812;0.025391;1.072266;
259474;-0.009766;0.024414;1.074219;
259613;-0.011719;0.022461;1.073242;
259754;-0.006836;0.026367;1.083008;
259893;-0.008789;0.025391;1.067383;
260034;-0.003906;0.031250;1.060547;
260184;-0.002930;0.032227;1.072266;
260324;0.001953;0.027344;1.050781;
260464;-0.000977;0.027344;1.042969;
260604;0.001953;0.028320;1.035156;
260744;-0.001953;0.033203;1.025391;
260894;-0.003906;0.031250;1.014648;
261034;0.000000;0.032227;1.017578;
261174;-0.006836;0.030273;1.002930;
261309;-0.003906;0.031250;1.002930;
261449;-0.005859;0.027344;1.014648;
261599;-0.008789;0.028320;1.000000;
261729;-0.006836;0.028320;1.008789;
261879;-0.006836;0.027344;1.015625;
262029;-0.009766;0.028320;1.018555;
262179;-0.007812;0.027344;1.007812;
262324;-0.008789;0.030273;1.023438;
262474;-0.006836;0.024414;1.031250;
262614;-0.006836;0.027344;1.041016;
262753;-0.007812;0.027344;1.020508;
262894;-0.008789;0.030273;1.013672;
263034;-0.005859;0.025391;1.037109;
263174;-0.004883;0.030273;1.035156;
263314;-0.009766;0.030273;1.014648;
263454;-0.007812;0.032227;1.021484;
263603;-0.008789;0.031250;1.019531;
263744;-0.006836;0.030273;1.022461;
263883;-0.006836;0.029297;1.012695;
264034;-0.012695;0.027344;1.008789;
264174;-0.004883;0.029297;1.028320;
264309;-0.003906;0.023438;1.028320;
264449;-0.010742;0.032227;1.024414;
264589;-0.011719;0.029297;1.021484;
264740;-0.002930;0.027344;1.036133;
264880;-0.003906;0.027344;1.041992;
265019;-0.012695;0.034180;1.041016;
265159;-0.007812;0.032227;1.041992;
265304;-0.005859;0.030273;1.059570;
265443;-0.005859;0.030273;1.058594;
265583;-0.004883;0.027344;1.060547;
265723;-0.006836;0.028320;1.071289;
265863;0.000000;0.028320;1.089844;
266004;-0.003906;0.025391;1.063477;
266144;-0.003906;0.028320;1.071289;
266284;-0.005859;0.025391;1.080078;
266423;-0.003906;0.024414;1.077148;
266573;-0.001953;0.028320;1.063477;
266714;-0.003906;0.028320;1.051758;
266854;-0.005859;0.027344;1.058594;
267004;-0.002930;0.026367;1.061523;
267143;-0.006836;0.027344;1.040039;
267279;-0.008789;0.026367;1.036133;
267409;-0.003906;0.032227;1.041992;
267549;-0.003906;0.027344;1.029297;
267701;-0.006836;0.032227;1.008789;
267850;-0.008789;0.029297;0.996094;
267989;-0.005859;0.024414;1.006836;
268130;-0.003906;0.028320;0.998047;
268274;-0.007812;0.031250;0.985352;
268414;-0.007812;0.024414;0.974609;
268563;-0.003906;0.029297;0.988281;
268704;-0.004883;0.030273;0.974609;
268843;-0.004883;0.022461;0.983398;
268993;-0.003906;0.026367;0.994141;
269133;-0.005859;0.031250;1.014648;
269274;0.000977;0.023438;1.034180;
269414;-0.005859;0.030273;1.037109;
269554;-0.001953;0.030273;1.045898;
269694;0.000000;0.027344;1.056641;
269833;-0.002930;0.023438;1.051758;
269974;0.000977;0.030273;1.068359;
270113;0.000000;0.023438;1.073242;
270249;-0.002930;0.019531;1.069336;
270390;0.000000;0.029297;1.083008;
270529;-0.000977;0.028320;1.061523;
270679;-0.000977;0.026367;1.064453;
270820;-0.001953;0.029297;1.051758;
270959;0.000977;0.029297;1.058594;
271109;-0.002930;0.022461;1.041016;
271259;-0.003906;0.030273;1.032227;
271403;-0.001953;0.028320;1.029297;
271543;-0.004883;0.024414;1.011719;
271684;-0.002930;0.032227;1.014648;
271824;-0.000977;0.023438;1.027344;
271963;-0.004883;0.027344;1.019531;
272104;-0.004883;0.029297;1.023438;
272254;-0.002930;0.029297;1.025391;
272393;-0.002930;0.025391;1.010742;
272534;-0.004883;0.026367;1.018555;
272674;-0.000977;0.030273;1.019531;
272809;-0.008789;0.024414;0.993164;
272953;-0.002930;0.031250;1.005859;
273093;-0.002930;0.029297;1.008789;
273234;-0.003906;0.026367;1.004883;
273379;-0.004883;0.024414;1.001953;
273520;-0.002930;0.027344;1.018555;
273659;-0.000977;0.020508;1.027344;
273799;-0.003906;0.023438;1.032227;
273929;-0.001953;0.022461;1.036133;
274069;-0.002930;0.022461;1.036133;
274219;-0.002930;0.026367;1.042969;
274374;0.000000;0.027344;1.058594;
274523;-0.002930;0.025391;1.056641;
274664;-0.003906;0.025391;1.048828;
274804;-0.001953;0.026367;1.048828;
274943;-0.001953;0.031250;1.049805;
275083;-0.005859;0.028320;1.038086;
275234;0.000977;0.022461;1.039062;
275374;-0.000977;0.026367;1.044922;
275514;-0.002930;0.026367;1.039062;
275653;-0.000977;0.024414;1.038086;
275793;-0.002930;0.017578;1.024414;
275934;-0.005859;0.018555;1.024414;
276074;0.001953;0.016602;1.034180;
276214;-0.000977;0.020508;1.021484;
276359;-0.004883;0.021484;1.018555;
276509;0.003906;0.024414;1.048828;
276649;-0.003906;0.023438;1.033203;
276789;-0.005859;0.034180;1.037109;
276919;0.000977;0.035156;1.040039;
277059;-0.002930;0.031250;1.041992;
277189;-0.003906;0.034180;1.034180;
277343;-0.000977;0.033203;1.048828;
277483;-0.000977;0.031250;1.033203;
277624;-0.004883;0.031250;1.043945;
277763;0.000977;0.026367;1.046875;
277899;-0.003906;0.028320;1.037109;
278043;-0.003906;0.031250;1.042969;
278184;-0.001953;0.029297;1.039062;
278324;-0.000977;0.030273;1.038086;
278464;-0.004883;0.027344;1.037109;
278603;-0.000977;0.024414;1.037109;
278744;-0.001953;0.030273;1.032227;
278884;0.000000;0.027344;1.045898;
279024;0.000000;0.023438;1.043945;
279163;0.002930;0.024414;1.031250;
279299;0.003906;0.022461;1.036133;
279449;0.000000;0.027344;1.035156;
279579;0.004883;0.025391;1.036133;
279719;0.005859;0.032227;1.037109;
279859;0.001953;0.032227;1.048828;
280009;0.005859;0.029297;1.041992;
280149;0.009766;0.029297;1.052734;
280294;0.001953;0.028320;1.032227;
280444;0.009766;0.027344;1.052734;
280584;0.007812;0.028320;1.038086;
280724;0.010742;0.028320;1.052734;
280863;0.009766;0.020508;1.044922;
281004;0.009766;0.023438;1.048828;
281143;0.009766;0.021484;1.043945;
281283;0.008789;0.014648;1.045898;
281424;0.006836;0.016602;1.051758;
281564;0.005859;0.019531;1.058594;
281704;0.006836;0.013672;1.048828;
281844;0.005859;0.023438;1.058594;
281989;0.007812;0.020508;1.055664;
282133;0.006836;0.022461;1.057617;
282269;0.006836;0.022461;1.056641;
282419;0.003906;0.026367;1.059570;
282569;0.006836;0.027344;1.071289;
282709;0.003906;0.028320;1.054688;
282849;0.006836;0.027344;1.070312;
282999;0.006836;0.031250;1.060547;
283149;0.007812;0.027344;1.068359;
283293;0.005859;0.024414;1.057617;
283433;0.006836;0.027344;1.071289;
283574;0.005859;0.030273;1.068359;
283714;0.004883;0.022461;1.069336;
283854;0.007812;0.025391;1.064453;
283993;0.002930;0.021484;1.060547;
284143;0.006836;0.021484;1.048828;
284284;0.001953;0.022461;1.050781;
284424;0.005859;0.023438;1.040039;
284564;0.000977;0.026367;1.032227;
284704;0.003906;0.027344;1.030273;
284854;0.003906;0.027344;1.022461;
284994;0.000000;0.024414;1.001953;
285134;0.003906;0.028320;0.989258;
285269;0.002930;0.031250;0.989258;
285419;0.001953;0.026367;0.984375;
285560;0.000977;0.031250;0.975586;
285699;0.001953;0.031250;0.994141;
285849;0.002930;0.033203;0.993164;
285989;0.004883;0.027344;1.003906;
286139;0.003906;0.022461;1.000977;
286294;0.009766;0.027344;1.016602;
286423;0.003906;0.025391;1.008789;
286564;0.010742;0.028320;1.019531;
286704;0.004883;0.027344;1.017578;
286844;0.003906;0.027344;1.026367;
286984;0.007812;0.022461;1.010742;
287124;0.005859;0.029297;1.016602;
287264;0.006836;0.025391;1.013672;
287414;0.001953;0.024414;0.995117;
287554;0.006836;0.023438;1.011719;
287694;0.007812;0.024414;1.007812;
287844;0.010742;0.023438;0.999023;
287984;0.012695;0.028320;0.998047;
288124;0.013672;0.032227;0.987305;
288269;0.011719;0.026367;0.988281;
288409;0.008789;0.031250;0.978516;
288560;0.007812;0.029297;0.973633;
288704;0.008789;0.033203;0.958984;
288840;0.003906;0.036133;0.968750;
288989;0.006836;0.033203;0.954102;
289129;0.006836;0.031250;0.947266;
289279;0.003906;0.032227;0.942383;
289434;0.003906;0.033203;0.945312;
289574;0.004883;0.029297;0.941406;
289714;0.008789;0.029297;0.957031;
289864;0.005859;0.023438;0.960938;
290004;0.009766;0.028320;0.972656;
290154;0.006836;0.030273;0.991211;
290294;0.012695;0.027344;0.998047;
290434;0.008789;0.025391;1.017578;
290583;0.008789;0.028320;1.024414;
290724;0.009766;0.023438;1.033203;
290864;0.009766;0.025391;1.052734;
291003;0.011719;0.025391;1.049805;
291144;0.011719;0.030273;1.050781;
291284;0.012695;0.027344;1.050781;
291409;0.014648;0.030273;1.056641;
291549;0.014648;0.029297;1.057617;
291699;0.016602;0.025391;1.051758;
291829;0.019531;0.020508;1.040039;
291979;0.019531;0.024414;1.040039;
292129;0.018555;0.017578;1.030273;
292269;0.018555;0.020508;1.033203;
292414;0.015625;0.018555;1.026367;
292554;0.017578;0.015625;1.024414;
292704;0.015625;0.016602;1.037109;
292844;0.010742;0.019531;1.023438;
292984;0.011719;0.018555;1.017578;
293129;0.013672;0.020508;1.026367;
293274;0.011719;0.021484;1.008789;
293413;0.013672;0.026367;1.014648;
293563;0.010742;0.024414;1.013672;
293703;0.012695;0.024414;1.012695;
293844;0.009766;0.031250;1.025391;
293984;0.012695;0.029297;1.029297;
294124;0.013672;0.029297;1.034180;
294264;0.010742;0.033203;1.049805;
294399;0.010742;0.027344;1.041016;
294539;0.012695;0.033203;1.066406;
294689;0.013672;0.032227;1.073242;
294839;0.014648;0.027344;1.075195;
294989;0.013672;0.029297;1.089844;
295129;0.013672;0.025391;1.093750;
295269;0.018555;0.022461;1.100586;
295404;0.015625;0.022461;1.094727;
295554;0.015625;0.017578;1.090820;
295694;0.013672;0.021484;1.106445;
295833;0.015625;0.018555;1.105469;
295974;0.018555;0.025391;1.115234;
296114;0.015625;0.026367;1.103516;
296264;0.013672;0.028320;1.094727;
296404;0.011719;0.024414;1.088867;
296544;0.011719;0.024414;1.082031;
296684;0.013672;0.024414;1.060547;
296823;0.011719;0.022461;1.058594;
296964;0.011719;0.031250;1.052734;
297114;0.011719;0.021484;1.042969;
297254;0.011719;0.025391;1.037109;
297389;0.011719;0.020508;1.031250;
297539;0.013672;0.020508;1.044922;
297679;0.012695;0.020508;1.025391;
297829;0.012695;0.023438;1.034180;
297979;0.009766;0.028320;1.037109;
298109;0.011719;0.029297;1.039062;
298249;0.011719;0.027344;1.052734;
298384;0.008789;0.029297;1.047852;
298523;0.009766;0.024414;1.041992;
298659;0.006836;0.027344;1.043945;
298804;0.005859;0.029297;1.050781;
298944;0.009766;0.026367;1.053711;
299083;0.006836;0.028320;1.058594;
299223;0.007812;0.028320;1.050781;
299363;0.009766;0.029297;1.066406;
299504;0.009766;0.031250;1.059570;
299644;0.007812;0.029297;1.062500;
299784;0.005859;0.031250;1.057617;
299924;0.011719;0.025391;1.052734;
300063;0.008789;0.025391;1.052734;
300204;0.009766;0.023438;1.050781;
300339;0.006836;0.024414;1.055664;
300489;0.009766;0.023438;1.043945;
300639;0.008789;0.019531;1.024414;
300770;0.007812;0.022461;1.026367;
300912;0.007812;0.025391;1.008789;
301049;0.003906;0.021484;0.992188;
301189;0.007812;0.021484;0.978516;
301330;0.004883;0.025391;1.000977;
301479;0.006836;0.030273;0.991211;
301634;0.003906;0.029297;0.995117;
301774;0.003906;0.028320;0.994141;
301924;0.005859;0.026367;0.986328;
302064;0.003906;0.028320;0.988281;
302204;0.008789;0.021484;0.989258;
302344;0.002930;0.032227;1.005859;
302483;0.009766;0.029297;1.005859;
302625;0.007812;0.021484;1.007812;
302774;0.004883;0.024414;1.007812;
302914;0.005859;0.011719;1.002930;
303064;0.007812;0.015625;1.004883;
303204;0.007812;0.015625;0.998047;
303344;0.004883;0.021484;1.004883;
303484;0.007812;0.022461;1.011719;
303609;0.004883;0.021484;1.008789;
303759;0.007812;0.027344;1.017578;
303910;0.004883;0.013672;1.036133;
304049;0.005859;0.025391;1.046875;
304189;0.007812;0.026367;1.051758;
304339;0.006836;0.034180;1.063477;
304469;0.004883;0.037109;1.046875;
304623;0.009766;0.036133;1.078125;
304764;0.009766;0.029297;1.083984;
304899;0.005859;0.027344;1.090820;
305054;0.007812;0.028320;1.078125;
305194;0.007812;0.025391;1.070312;
305334;0.003906;0.030273;1.087891;
305474;0.009766;0.026367;1.067383;
305613;0.007812;0.029297;1.070312;
305754;0.005859;0.019531;1.064453;
305893;0.002930;0.028320;1.049805;
306034;0.008789;0.018555;1.034180;
306174;0.003906;0.021484;1.030273;
306314;0.003906;0.019531;1.019531;
306453;0.003906;0.024414;1.000000;
306589;-0.000977;0.022461;0.995117;
306729;0.000977;0.020508;1.000977;
306879;0.002930;0.015625;0.987305;
307029;0.000977;0.014648;0.988281;
307181;-0.000977;0.016602;0.975586;
307319;0.000977;0.030273;0.961914;
307459;0.000977;0.024414;0.968750;
307613;0.000000;0.030273;0.979492;
307754;0.000977;0.029297;0.981445;
307894;0.000977;0.028320;0.997070;
308034;0.000000;0.022461;1.007812;
308174;-0.001953;0.024414;1.003906;
308314;0.004883;0.024414;1.025391;
308453;0.000000;0.028320;1.030273;
308594;0.004883;0.031250;1.025391;
308734;0.006836;0.027344;1.020508;
308874;0.002930;0.024414;1.041992;
309014;0.002930;0.022461;1.030273;
309155;0.004883;0.024414;1.019531;
309304;0.002930;0.020508;1.015625;
309443;-0.000977;0.030273;1.008789;
309579;0.006836;0.028320;1.005859;
309719;0.007812;0.025391;0.999023;
309869;0.000000;0.019531;1.005859;
310019;0.004883;0.022461;1.017578;
310160;0.002930;0.026367;1.024414;
310299;0.005859;0.030273;1.031250;
310439;0.002930;0.033203;1.038086;
310583;0.003906;0.030273;1.046875;
310724;0.008789;0.034180;1.041992;
310869;0.004883;0.028320;1.054688;
311014;0.003906;0.031250;1.056641;
311153;0.002930;0.026367;1.052734;
311294;0.007812;0.024414;1.041016;
311433;0.005859;0.028320;1.029297;
311574;0.003906;0.029297;1.028320;
311713;0.002930;0.021484;1.012695;
311863;0.004883;0.024414;1.007812;
312014;0.006836;0.016602;1.002930;
312154;0.010742;0.021484;0.980469;
312304;0.010742;0.023438;0.979492;
312444;0.015625;0.018555;0.980469;
312579;0.015625;0.018555;0.970703;
312729;0.021484;0.023438;0.949219;
312869;0.016602;0.019531;0.950195;
313019;0.022461;0.023438;0.943359;
313159;0.024414;0.020508;0.950195;
313299;0.029297;0.024414;0.954102;
313449;0.043945;0.023438;0.983398;
313603;0.049805;0.028320;1.001953;
313743;0.057617;0.026367;1.038086;
313884;0.067383;0.029297;1.072266;
314034;0.071289;0.026367;1.083984;
314173;0.075195;0.023438;1.099609;
314324;0.079102;0.023438;1.084961;
314464;0.083008;0.020508;1.086914;
314603;0.083984;0.018555;1.090820;
314744;0.089844;0.021484;1.069336;
314884;0.087891;0.025391;1.051758;
315033;0.091797;0.027344;1.056641;
315173;0.086914;0.028320;1.052734;
315323;0.089844;0.035156;1.062500;
315464;0.090820;0.034180;1.050781;
315589;0.087891;0.026367;1.039062;
315739;0.088867;0.024414;1.049805;
315889;0.087891;0.026367;1.040039;
316039;0.083008;0.018555;1.036133;
316189;0.084961;0.020508;1.048828;
316319;0.087891;0.027344;1.058594;
316469;0.085938;0.027344;1.055664;
316614;0.084961;0.016602;1.056641;
316754;0.088867;0.021484;1.062500;
316893;0.085938;0.015625;1.041016;
317034;0.086914;0.018555;1.040039;
317174;0.085938;0.019531;1.046875;
317314;0.083984;0.024414;1.045898;
317454;0.087891;0.016602;1.039062;
317593;0.084961;0.021484;1.023438;
317734;0.083008;0.023438;1.006836;
317874;0.083008;0.019531;0.983398;
318024;0.083984;0.021484;0.993164;
318164;0.083984;0.030273;0.994141;
318304;0.081055;0.025391;0.998047;
318444;0.083984;0.028320;0.992188;
318569;0.081055;0.030273;0.981445;
318709;0.081055;0.029297;0.962891;
318859;0.081055;0.031250;0.982422;
319000;0.076172;0.029297;1.002930;
319139;0.079102;0.028320;1.014648;
319279;0.083984;0.027344;0.999023;
319419;0.082031;0.023438;0.990234;
319564;0.080078;0.024414;0.972656;
319704;0.081055;0.021484;0.958008;
319844;0.079102;0.024414;0.978516;
319984;0.077148;0.023438;0.951172;
320124;0.080078;0.017578;0.914062;
320264;0.080078;0.014648;0.899414;
320404;0.078125;0.019531;0.900391;
320543;0.076172;0.023438;0.934570;
320684;0.077148;0.020508;0.944336;
320823;0.082031;0.026367;0.969727;
320965;0.080078;0.023438;0.973633;
321114;0.074219;0.023438;0.963867;
321253;0.078125;0.031250;0.983398;
321394;0.076172;0.036133;1.024414;
321529;0.077148;0.040039;1.013672;
321679;0.080078;0.036133;1.017578;
321819;0.080078;0.032227;0.987305;
321959;0.079102;0.028320;0.986328;
322111;0.077148;0.031250;1.021484;
322249;0.077148;0.025391;1.037109;
322399;0.077148;0.026367;1.041992;
322544;0.078125;0.023438;1.044922;
322684;0.080078;0.020508;1.043945;
322823;0.077148;0.021484;1.043945;
322963;0.078125;0.019531;1.074219;
323113;0.080078;0.024414;1.075195;
323254;0.083008;0.025391;1.076172;
323393;0.083008;0.025391;1.058594;
323533;0.081055;0.024414;1.014648;
323674;0.076172;0.027344;0.999023;
323823;0.075195;0.025391;0.989258;
323963;0.076172;0.024414;0.993164;
324104;0.078125;0.021484;0.989258;
324254;0.071289;0.028320;0.963867;
324394;0.073242;0.026367;0.996094;
324529;0.073242;0.016602;1.036133;
324679;0.077148;0.022461;1.051758;
324819;0.079102;0.017578;1.065430;
324969;0.078125;0.024414;1.066406;
325109;0.077148;0.024414;1.071289;
325259;0.078125;0.020508;1.075195;
325409;0.076172;0.021484;1.116211;
325564;0.078125;0.020508;1.112305;
325703;0.080078;0.023438;1.088867;
325854;0.082031;0.019531;1.074219;
325994;0.076172;0.023438;1.042969;
326134;0.077148;0.021484;1.035156;
326284;0.074219;0.026367;1.040039;
326423;0.076172;0.028320;1.035156;
326564;0.075195;0.029297;1.004883;
326703;0.072266;0.026367;0.983398;
326843;0.071289;0.025391;1.009766;
326984;0.075195;0.029297;0.987305;
327123;0.071289;0.028320;0.974609;
327264;0.071289;0.021484;0.938477;
327404;0.075195;0.019531;0.934570;
327539;0.070312;0.021484;0.959961;
327689;0.071289;0.022461;0.974609;
327839;0.071289;0.024414;1.000000;
327979;0.074219;0.023438;0.963867;
328119;0.074219;0.025391;0.958008;
328269;0.071289;0.024414;0.972656;
328409;0.069336;0.030273;1.000977;
328564;0.070312;0.029297;0.991211;
328714;0.073242;0.031250;0.995117;
328853;0.071289;0.025391;0.959961;
328994;0.069336;0.026367;0.963867;
329143;0.069336;0.028320;0.978516;
329283;0.068359;0.030273;0.979492;
329424;0.071289;0.027344;0.968750;
329564;0.072266;0.023438;0.954102;
329704;0.067383;0.026367;0.965820;
329844;0.067383;0.027344;1.001953;
329984;0.069336;0.025391;1.042969;
330123;0.072266;0.022461;1.074219;
330264;0.072266;0.024414;1.139648;
330404;0.073242;0.027344;1.227539;
330539;0.074219;0.027344;1.293945;
330679;0.082031;0.022461;1.373047;
330829;0.085938;0.018555;1.466797;
330979;0.087891;0.021484;1.537109;
331120;0.096680;0.018555;1.629883;
331260;0.101562;0.015625;1.688477;
331399;0.104492;0.017578;1.728516;
331543;0.105469;0.015625;1.771484;
331684;0.106445;0.022461;1.809570;
331824;0.107422;0.019531;1.834961;
331974;0.108398;0.011719;1.841797;
332114;0.109375;0.014648;1.839844;
332254;0.108398;0.013672;1.849609;
332404;0.111328;0.020508;1.866211;
332544;0.110352;0.016602;1.851562;
332694;0.109375;0.017578;1.852539;
332843;0.108398;0.019531;1.840820;
332984;0.110352;0.020508;1.822266;
333123;0.112305;0.027344;1.847656;
333263;0.109375;0.024414;1.839844;
333403;0.108398;0.024414;1.830078;
333529;0.107422;0.021484;1.818359;
333679;0.108398;0.027344;1.835938;
333829;0.108398;0.026367;1.836914;
333980;0.108398;0.020508;1.839844;
334119;0.113281;0.022461;1.844727;
334259;0.115234;0.016602;1.845703;
334409;0.112305;0.012695;1.850586;
334564;0.114258;0.012695;1.855469;
334704;0.113281;0.011719;1.870117;
334844;0.115234;0.015625;1.867188;
334984;0.115234;0.015625;1.854492;
335124;0.114258;0.015625;1.846680;
335263;0.115234;0.019531;1.874023;
335404;0.113281;0.015625;1.860352;
335544;0.116211;0.023438;1.865234;
335684;0.114258;0.015625;1.854492;
335833;0.115234;0.020508;1.850586;
335973;0.113281;0.021484;1.841797;
336114;0.118164;0.013672;1.846680;
336254;0.120117;0.017578;1.861328;
336393;0.119141;0.013672;1.858398;
336519;0.117188;0.010742;1.843750;
336669;0.122070;0.011719;1.840820;
336809;0.117188;0.019531;1.851562;
336949;0.119141;0.020508;1.846680;
337089;0.117188;0.015625;1.844727;
337229;0.115234;0.023438;1.838867;
337379;0.118164;0.021484;1.854492;
337524;0.120117;0.023438;1.864258;
337664;0.119141;0.024414;1.866211;
337803;0.123047;0.027344;1.859375;
337944;0.124023;0.018555;1.883789;
338093;0.123047;0.017578;1.874023;
338233;0.126953;0.021484;1.860352;
338374;0.125000;0.014648;1.883789;
338504;0.122070;0.016602;1.896484;
338644;0.125000;0.015625;1.886719;
338784;0.127930;0.021484;1.890625;
338924;0.128906;0.017578;1.914062;
339064;0.124023;0.030273;1.917969;
339204;0.128906;0.013672;1.927734;
339344;0.117188;0.016602;1.913086;
339489;0.126953;-0.000977;1.870117;
339639;0.131836;0.017578;1.852539;
339779;0.125000;0.017578;1.883789;
339919;0.126953;0.012695;1.902344;
340059;0.129883;0.024414;1.922852;
340209;0.128906;0.015625;1.915039;
340361;0.129883;0.002930;1.923828;
340499;0.127930;0.020508;1.913086;
340643;0.135742;0.011719;1.923828;
340783;0.123047;0.018555;1.915039;
340924;0.125977;0.027344;1.903320;
341064;0.133789;0.030273;1.895508;
341204;0.125977;0.018555;1.900391;
341343;0.132812;0.021484;1.887695;
341484;0.125977;0.022461;1.860352;
341624;0.129883;0.015625;1.873047;
341764;0.129883;0.012695;1.859375;
341913;0.129883;0.018555;1.861328;
342054;0.130859;0.004883;1.857422;
342193;0.134766;0.010742;1.866211;
342334;0.131836;0.011719;1.829102;
342469;0.133789;0.011719;1.838867;
342609;0.132812;0.005859;1.838867;
342759;0.132812;0.014648;1.827148;
342899;0.135742;0.020508;1.836914;
343039;0.133789;0.014648;1.833984;
343179;0.134766;0.013672;1.825195;
343329;0.135742;0.016602;1.827148;
343483;0.137695;0.022461;1.835938;
343624;0.139648;0.020508;1.830078;
343773;0.138672;0.019531;1.821289;
343914;0.139648;0.022461;1.814453;
344054;0.140625;0.017578;1.819336;
344194;0.144531;0.019531;1.819336;
344334;0.145508;0.020508;1.837891;
344474;0.143555;0.022461;1.824219;
344624;0.144531;0.016602;1.818359;
344764;0.145508;0.014648;1.799805;
344899;0.148438;0.008789;1.800781;
345053;0.151367;0.010742;1.812500;
345194;0.152344;0.006836;1.799805;
345333;0.151367;0.006836;1.809570;
345469;0.156250;0.006836;1.821289;
345609;0.156250;0.013672;1.834961;
345750;0.164062;0.016602;1.844727;
345889;0.161133;0.021484;1.843750;
346039;0.162109;0.023438;1.841797;
346179;0.162109;0.021484;1.851562;
346319;0.166016;0.019531;1.867188;
346464;0.165039;0.024414;1.850586;
346604;0.170898;0.025391;1.863281;
346744;0.172852;0.019531;1.868164;
346883;0.170898;0.014648;1.865234;
347024;0.170898;0.018555;1.850586;
347159;0.170898;0.013672;1.857422;
347303;0.174805;0.011719;1.857422;
347444;0.179688;0.012695;1.832031;
347584;0.180664;0.012695;1.828125;
347724;0.179688;0.015625;1.831055;
347864;0.179688;0.015625;1.818359;
348004;0.182617;0.020508;1.817383;
348144;0.182617;0.017578;1.812500;
348283;0.182617;0.018555;1.814453;
348419;0.186523;0.019531;1.810547;
348559;0.189453;0.023438;1.833008;
348710;0.190430;0.016602;1.839844;
348850;0.191406;0.021484;1.838867;
348990;0.193359;0.027344;1.848633;
349139;0.194336;0.021484;1.824219;
349280;0.196289;0.022461;1.803711;
349424;0.194336;0.029297;1.797852;
349564;0.198242;0.028320;1.794922;
349703;0.195312;0.023438;1.765625;
349844;0.193359;0.037109;1.739258;
349994;0.189453;0.027344;1.715820;
350133;0.190430;0.025391;1.676758;
350274;0.191406;0.021484;1.659180;
350414;0.179688;0.026367;1.637695;
350554;0.177734;0.018555;1.625977;
350704;0.168945;0.019531;1.560547;
350844;0.162109;0.010742;1.530273;
350984;0.155273;0.018555;1.497070;
351124;0.146484;0.013672;1.461914;
351264;0.138672;0.011719;1.425781;
351399;0.130859;0.013672;1.399414;
351539;0.117188;0.013672;1.354492;
351689;0.112305;0.013672;1.336914;
351829;0.103516;0.018555;1.303711;
351969;0.096680;0.020508;1.262695;
352111;0.084961;0.021484;1.194336;
352259;0.070312;0.021484;1.090820;
352409;0.058594;0.023438;1.006836;
352554;0.047852;0.027344;0.917969;
352694;0.038086;0.025391;0.821289;
352834;0.031250;0.020508;0.745117;
352974;0.023438;0.022461;0.635742;
353125;0.016602;0.023438;0.528320;
353273;0.008789;0.030273;0.443359;
353414;0.001953;0.024414;0.354492;
353554;0.000977;0.029297;0.277344;
353693;0.000000;0.027344;0.216797;
353834;-0.001953;0.030273;0.174805;
353974;0.002930;0.031250;0.140625;
354114;0.001953;0.027344;0.110352;
354244;-0.001953;0.024414;0.075195;
354384;0.000000;0.021484;0.058594;
354519;-0.000977;0.020508;0.054688;
354669;0.000977;0.021484;0.035156;
354801;-0.000977;0.024414;0.023438;
354939;-0.002930;0.022461;0.027344;
355079;-0.005859;0.022461;0.008789;
355234;-0.003906;0.024414;0.016602;
355369;-0.003906;0.026367;0.000977;
355514;-0.003906;0.029297;0.005859;
355654;-0.005859;0.031250;-0.006836;
355793;-0.002930;0.031250;-0.001953;
355934;-0.005859;0.034180;-0.017578;
356073;-0.007812;0.037109;-0.022461;
356214;-0.012695;0.033203;-0.020508;
356354;-0.008789;0.027344;-0.021484;
356494;-0.005859;0.028320;-0.014648;
356634;-0.005859;0.030273;-0.022461;
356774;-0.012695;0.031250;-0.033203;
356913;-0.008789;0.028320;-0.022461;
357054;-0.006836;0.032227;-0.013672;
357194;-0.012695;0.030273;-0.014648;
357334;-0.008789;0.030273;0.006836;
357469;-0.010742;0.032227;-0.011719;
357619;-0.010742;0.031250;-0.002930;
357760;-0.010742;0.030273;-0.002930;
357899;-0.013672;0.032227;0.000000;
358050;-0.009766;0.033203;0.000000;
358189;-0.014648;0.036133;0.001953;
358339;-0.011719;0.033203;0.005859;
358494;-0.011719;0.035156;0.004883;
358634;-0.009766;0.035156;0.004883;
358774;-0.015625;0.035156;-0.005859;
358923;-0.012695;0.034180;-0.001953;
359063;-0.011719;0.032227;0.001953;
359204;-0.015625;0.031250;0.006836;
359344;-0.012695;0.033203;0.003906;
359484;-0.010742;0.032227;0.013672;
359623;-0.014648;0.035156;0.019531;
359764;-0.015625;0.035156;0.022461;
359904;-0.013672;0.036133;0.023438;
360044;-0.011719;0.032227;0.029297;
360184;-0.009766;0.032227;0.027344;
360324;-0.016602;0.030273;0.029297;
360459;-0.014648;0.029297;0.027344;
360600;-0.018555;0.033203;0.020508;
360729;-0.016602;0.029297;0.024414;
360871;-0.015625;0.030273;0.026367;
360999;-0.016602;0.033203;0.019531;
361149;-0.017578;0.031250;0.020508;
361299;-0.016602;0.032227;0.010742;
361444;-0.016602;0.032227;0.010742;
361594;-0.011719;0.032227;0.015625;
361734;-0.014648;0.028320;0.009766;
361874;-0.016602;0.029297;0.014648;
362024;-0.017578;0.027344;0.011719;
362164;-0.015625;0.026367;0.013672;
362304;-0.017578;0.028320;0.011719;
362444;-0.017578;0.029297;0.009766;
362584;-0.015625;0.028320;0.020508;
362723;-0.016602;0.025391;0.018555;
362864;-0.015625;0.029297;0.020508;
363004;-0.013672;0.028320;0.015625;
363143;-0.016602;0.031250;0.020508;
363284;-0.020508;0.027344;0.020508;
363419;-0.016602;0.025391;0.027344;
363559;-0.015625;0.030273;0.028320;
363709;-0.015625;0.030273;0.030273;
363859;-0.016602;0.027344;0.027344;
363999;-0.016602;0.025391;0.028320;
364159;-0.018555;0.024414;0.026367;
364309;-0.016602;0.023438;0.022461;
364454;-0.015625;0.028320;0.026367;
364594;-0.016602;0.027344;0.024414;
364734;-0.019531;0.026367;0.023438;
364874;-0.017578;0.025391;0.022461;
365013;-0.016602;0.025391;0.019531;
365154;-0.015625;0.026367;0.023438;
365294;-0.018555;0.027344;0.023438;
365434;-0.016602;0.025391;0.022461;
365574;-0.015625;0.026367;0.019531;
365714;-0.019531;0.031250;0.017578;
365854;-0.017578;0.028320;0.018555;
366003;-0.015625;0.024414;0.009766;
366144;-0.017578;0.025391;0.017578;
366294;-0.015625;0.027344;0.008789;
366429;-0.017578;0.025391;0.005859;
366569;-0.017578;0.023438;0.007812;
366719;-0.015625;0.028320;0.008789;
366859;-0.019531;0.026367;0.004883;
367009;-0.018555;0.026367;0.004883;
367159;-0.015625;0.024414;0.006836;
367289;-0.018555;0.023438;0.000000;
367433;-0.020508;0.027344;0.009766;
367574;-0.019531;0.027344;0.009766;
367714;-0.020508;0.027344;0.000000;
367854;-0.018555;0.028320;0.000977;
367993;-0.018555;0.023438;0.002930;
368133;-0.018555;0.021484;0.000977;
368274;-0.018555;0.023438;0.003906;
368424;-0.019531;0.024414;0.004883;
368564;-0.019531;0.024414;0.001953;
368705;-0.020508;0.026367;0.010742;
368854;-0.017578;0.025391;0.006836;
369004;-0.020508;0.023438;0.001953;
369154;-0.019531;0.022461;-0.002930;
369293;-0.018555;0.023438;0.001953;
369429;-0.018555;0.023438;0.010742;
369569;-0.020508;0.024414;0.005859;
369699;-0.019531;0.022461;0.002930;
369839;-0.020508;0.026367;0.008789;
369990;-0.020508;0.027344;0.007812;
370129;-0.021484;0.024414;0.011719;
370269;-0.021484;0.022461;0.005859;
370424;-0.023438;0.021484;0.009766;
370574;-0.022461;0.029297;0.010742;
370714;-0.023438;0.026367;0.007812;
370863;-0.022461;0.023438;0.012695;
371003;-0.022461;0.023438;0.014648;
371144;-0.023438;0.023438;0.011719;
371294;-0.021484;0.026367;0.013672;
371434;-0.024414;0.025391;0.019531;
371574;-0.023438;0.024414;0.014648;
371714;-0.022461;0.029297;0.015625;
371855;-0.024414;0.030273;0.021484;
372003;-0.026367;0.028320;0.023438;
372144;-0.026367;0.022461;0.024414;
372284;-0.025391;0.024414;0.024414;
372419;-0.024414;0.028320;0.020508;
372569;-0.026367;0.027344;0.024414;
372709;-0.026367;0.028320;0.032227;
372849;-0.026367;0.021484;0.025391;
372999;-0.024414;0.028320;0.028320;
373140;-0.026367;0.028320;0.028320;
373291;-0.026367;0.033203;0.026367;
373444;-0.026367;0.029297;0.030273;
373584;-0.028320;0.022461;0.031250;
373724;-0.029297;0.017578;0.016602;
373863;-0.029297;0.027344;0.019531;
374004;-0.026367;0.025391;0.007812;
374143;-0.026367;0.026367;0.007812;
374284;-0.029297;0.021484;-0.000977;
374424;-0.029297;0.022461;-0.012695;
374564;-0.027344;0.022461;-0.013672;
374699;-0.029297;0.023438;-0.015625;
374843;-0.030273;0.028320;-0.014648;
374984;-0.030273;0.023438;-0.004883;
375124;-0.033203;0.025391;-0.009766;
375264;-0.031250;0.027344;-0.006836;
375399;-0.033203;0.030273;-0.006836;
375549;-0.033203;0.032227;-0.000977;
375699;-0.032227;0.023438;0.009766;
375844;-0.032227;0.022461;0.013672;
375989;-0.032227;0.023438;0.013672;
376140;-0.032227;0.026367;0.016602;
376279;-0.033203;0.026367;0.020508;
376433;-0.033203;0.024414;0.022461;
376573;-0.035156;0.027344;0.023438;
376714;-0.034180;0.025391;0.026367;
376849;-0.034180;0.025391;0.014648;
376994;-0.038086;0.023438;0.025391;
377134;-0.037109;0.024414;0.022461;
377274;-0.038086;0.029297;0.032227;
377424;-0.039062;0.030273;0.023438;
377564;-0.036133;0.033203;0.027344;
377704;-0.039062;0.034180;0.029297;
377855;-0.042969;0.041992;0.029297;
378004;-0.044922;0.040039;0.025391;
378144;-0.048828;0.040039;0.038086;
378284;-0.048828;0.038086;0.066406;
378409;-0.045898;0.039062;0.096680;
378549;-0.048828;0.036133;0.171875;
378689;-0.046875;0.030273;0.266602;
378829;-0.042969;0.023438;0.362305;
378969;-0.036133;0.025391;0.491211;
379119;-0.031250;0.022461;0.602539;
379249;-0.021484;0.024414;0.781250;
379394;-0.012695;0.031250;0.896484;
379533;0.003906;0.032227;1.046875;
379674;0.010742;0.029297;1.139648;
379814;0.020508;0.028320;1.261719;
379954;0.023438;0.026367;1.332031;
380094;0.029297;0.026367;1.403320;
380243;0.035156;0.029297;1.456055;
380384;0.038086;0.028320;1.485352;
380524;0.041992;0.027344;1.513672;
380664;0.045898;0.028320;1.529297;
380803;0.046875;0.033203;1.544922;
380944;0.049805;0.031250;1.570312;
381084;0.048828;0.030273;1.583984;
381224;0.044922;0.037109;1.593750;
381359;0.043945;0.037109;1.611328;
381509;0.040039;0.035156;1.628906;
381649;0.042969;0.037109;1.645508;
381799;0.038086;0.036133;1.659180;
381949;0.041016;0.040039;1.688477;
382089;0.039062;0.038086;1.688477;
382229;0.038086;0.038086;1.725586;
382384;0.041016;0.026367;1.734375;
382523;0.043945;0.031250;1.764648;
382663;0.045898;0.024414;1.791016;
382804;0.048828;0.024414;1.814453;
382944;0.045898;0.022461;1.818359;
383084;0.041992;0.022461;1.857422;
383224;0.046875;0.027344;1.877930;
383374;0.044922;0.022461;1.871094;
383513;0.038086;0.019531;1.897461;
383654;0.041016;0.020508;1.889648;
383793;0.037109;0.018555;1.873047;
383933;0.043945;0.019531;1.875977;
384074;0.039062;0.021484;1.862305;
384213;0.034180;0.008789;1.854492;
384349;0.032227;0.013672;1.852539;
384499;0.029297;0.013672;1.834961;
384649;0.029297;0.014648;1.833008;
384789;0.022461;0.021484;1.799805;
384939;0.014648;0.024414;1.753906;
385089;0.011719;0.033203;1.738281;
385239;0.006836;0.031250;1.709961;
385384;0.002930;0.038086;1.696289;
385524;-0.000977;0.038086;1.696289;
385664;0.000000;0.036133;1.708008;
385804;0.002930;0.036133;1.721680;
385943;0.001953;0.033203;1.754883;
386084;0.002930;0.032227;1.779297;
386223;0.005859;0.030273;1.816406;
386364;0.006836;0.022461;1.851562;
386504;0.006836;0.022461;1.864258;
386644;0.009766;0.018555;1.891602;
386784;0.011719;0.015625;1.915039;
386924;0.008789;0.016602;1.913086;
387074;0.010742;0.014648;1.916992;
387214;0.006836;0.015625;1.924805;
387349;0.008789;0.017578;1.927734;
387489;0.000977;0.018555;1.913086;
387639;-0.000977;0.015625;1.897461;
387789;-0.002930;0.016602;1.885742;
387929;-0.003906;0.014648;1.875977;
388079;-0.005859;0.013672;1.857422;
388229;-0.010742;0.014648;1.834961;
388384;-0.012695;0.021484;1.827148;
388534;-0.013672;0.020508;1.815430;
388674;-0.017578;0.025391;1.811523;
388814;-0.016602;0.025391;1.807617;
388954;-0.020508;0.029297;1.810547;
389093;-0.021484;0.031250;1.809570;
389233;-0.027344;0.030273;1.803711;
389373;-0.024414;0.034180;1.822266;
389514;-0.023438;0.037109;1.833008;
389664;-0.022461;0.032227;1.836914;
389804;-0.025391;0.032227;1.837891;
389943;-0.027344;0.022461;1.841797;
390094;-0.025391;0.014648;1.848633;
390234;-0.025391;0.012695;1.868164;
390359;-0.026367;0.015625;1.875000;
390490;-0.025391;0.012695;1.877930;
390619;-0.030273;0.010742;1.878906;
390769;-0.025391;0.007812;1.897461;
390909;-0.026367;0.007812;1.896484;
391059;-0.028320;0.005859;1.908203;
391210;-0.028320;0.016602;1.905273;
391354;-0.029297;0.017578;1.909180;
391503;-0.030273;0.025391;1.909180;
391644;-0.031250;0.025391;1.898438;
391784;-0.036133;0.030273;1.899414;
391933;-0.036133;0.024414;1.889648;
392074;-0.039062;0.024414;1.870117;
392213;-0.034180;0.028320;1.893555;
392354;-0.039062;0.018555;1.877930;
392494;-0.039062;0.012695;1.849609;
392634;-0.037109;0.019531;1.869141;
392774;-0.039062;0.023438;1.865234;
392914;-0.042969;0.039062;1.845703;
393054;-0.042969;0.024414;1.828125;
393194;-0.042969;0.032227;1.837891;
393329;-0.047852;0.025391;1.800781;
393479;-0.042969;0.019531;1.818359;
393634;-0.043945;0.013672;1.819336;
393773;-0.043945;0.020508;1.801758;
393909;-0.046875;0.020508;1.806641;
