Time;acc_x;acc_y;acc_z;

842008;-0.033203;0.036133;1.036133;
842225;-0.035156;0.036133;1.036133;
842375;-0.033203;0.039062;1.035156;
842515;-0.034180;0.037109;1.037109;
842655;-0.035156;0.037109;1.035156;
842795;-0.033203;0.039062;1.036133;
842935;-0.034180;0.038086;1.037109;
843075;-0.035156;0.038086;1.035156;
843215;-0.034180;0.037109;1.038086;
843355;-0.033203;0.038086;1.037109;
843495;-0.034180;0.038086;1.037109;
843635;-0.033203;0.038086;1.037109;
843775;-0.034180;0.035156;1.036133;
843915;-0.035156;0.037109;1.036133;
844055;-0.033203;0.039062;1.036133;
844195;-0.034180;0.037109;1.037109;
844335;-0.034180;0.036133;1.035156;
844475;-0.032227;0.038086;1.037109;
844611;-0.034180;0.036133;1.036133;
844761;-0.033203;0.038086;1.035156;
844891;-0.034180;0.038086;1.037109;
845021;-0.034180;0.037109;1.037109;
845161;-0.034180;0.038086;1.036133;
845295;-0.034180;0.039062;1.037109;
845431;-0.033203;0.037109;1.039062;
845570;-0.034180;0.037109;1.036133;
845721;-0.033203;0.038086;1.038086;
845860;-0.033203;0.040039;1.037109;
846005;-0.034180;0.036133;1.036133;
846145;-0.033203;0.037109;1.034180;
846285;-0.034180;0.038086;1.036133;
846425;-0.033203;0.038086;1.036133;
846565;-0.034180;0.038086;1.037109;
846705;-0.034180;0.039062;1.037109;
846845;-0.033203;0.038086;1.037109;
846985;-0.035156;0.037109;1.036133;
847125;-0.034180;0.037109;1.036133;
847265;-0.033203;0.037109;1.035156;
847405;-0.033203;0.038086;1.038086;
847545;-0.035156;0.036133;1.036133;
847685;-0.034180;0.037109;1.036133;
847820;-0.034180;0.037109;1.037109;
847961;-0.034180;0.037109;1.036133;
848101;-0.034180;0.036133;1.037109;
848230;-0.034180;0.037109;1.037109;
848380;-0.035156;0.039062;1.036133;
848511;-0.035156;0.038086;1.037109;
848655;-0.035156;0.039062;1.038086;
848791;-0.033203;0.037109;1.037109;
848931;-0.033203;0.039062;1.036133;
849071;-0.034180;0.039062;1.037109;
849211;-0.034180;0.039062;1.037109;
849355;-0.034180;0.037109;1.036133;
849495;-0.033203;0.038086;1.037109;
849635;-0.032227;0.038086;1.037109;
849785;-0.035156;0.037109;1.036133;
849925;-0.036133;0.038086;1.038086;
850065;-0.033203;0.037109;1.036133;
850205;-0.034180;0.036133;1.035156;
850345;-0.034180;0.038086;1.039062;
850495;-0.033203;0.039062;1.037109;
850635;-0.034180;0.037109;1.036133;
850775;-0.033203;0.037109;1.037109;
850925;-0.033203;0.037109;1.037109;
851065;-0.033203;0.037109;1.037109;
851205;-0.034180;0.039062;1.037109;
851330;-0.035156;0.038086;1.037109;
851480;-0.034180;0.038086;1.036133;
851631;-0.034180;0.037109;1.036133;
851771;-0.033203;0.038086;1.036133;
851921;-0.034180;0.037109;1.037109;
852050;-0.033203;0.038086;1.036133;
852205;-0.035156;0.036133;1.036133;
852345;-0.034180;0.037109;1.037109;
852485;-0.033203;0.039062;1.037109;
852625;-0.034180;0.038086;1.037109;
852765;-0.033203;0.036133;1.038086;
852905;-0.033203;0.038086;1.037109;
853045;-0.035156;0.036133;1.038086;
853185;-0.033203;0.038086;1.037109;
853325;-0.033203;0.037109;1.037109;
853465;-0.035156;0.038086;1.037109;
853605;-0.033203;0.036133;1.036133;
853745;-0.034180;0.038086;1.036133;
853885;-0.035156;0.037109;1.036133;
854025;-0.034180;0.037109;1.036133;
854161;-0.034180;0.037109;1.036133;
854311;-0.033203;0.038086;1.037109;
854450;-0.032227;0.038086;1.036133;
854591;-0.035156;0.038086;1.038086;
854735;-0.033203;0.038086;1.037109;
854862;-0.032227;0.038086;1.037109;
854991;-0.034180;0.036133;1.036133;
855121;-0.033203;0.038086;1.035156;
855251;-0.033203;0.036133;1.037109;
855391;-0.035156;0.037109;1.037109;
855531;-0.034180;0.036133;1.037109;
855675;-0.036133;0.036133;1.037109;
855815;-0.034180;0.038086;1.036133;
855955;-0.034180;0.038086;1.035156;
856095;-0.034180;0.037109;1.036133;
856235;-0.033203;0.037109;1.035156;
856375;-0.034180;0.038086;1.036133;
856515;-0.035156;0.036133;1.037109;
856655;-0.032227;0.038086;1.036133;
856795;-0.033203;0.037109;1.035156;
856935;-0.035156;0.037109;1.036133;
857075;-0.035156;0.038086;1.036133;
857215;-0.034180;0.038086;1.036133;
857355;-0.035156;0.036133;1.036133;
857495;-0.034180;0.038086;1.037109;
857633;-0.034180;0.038086;1.037109;
857765;-0.034180;0.039062;1.035156;
857901;-0.034180;0.039062;1.036133;
858040;-0.034180;0.039062;1.038086;
858181;-0.034180;0.038086;1.036133;
858321;-0.034180;0.038086;1.037109;
858451;-0.034180;0.038086;1.034180;
858601;-0.033203;0.038086;1.036133;
858730;-0.034180;0.037109;1.036133;
858880;-0.033203;0.036133;1.035156;
859025;-0.035156;0.037109;1.037109;
859165;-0.033203;0.038086;1.037109;
859305;-0.034180;0.037109;1.036133;
859445;-0.034180;0.037109;1.037109;
859595;-0.034180;0.039062;1.036133;
859735;-0.034180;0.038086;1.036133;
859875;-0.035156;0.038086;1.036133;
860015;-0.033203;0.038086;1.035156;
860155;-0.036133;0.036133;1.036133;
860295;-0.034180;0.038086;1.036133;
860435;-0.033203;0.037109;1.036133;
860575;-0.032227;0.037109;1.038086;
860715;-0.035156;0.038086;1.037109;
860865;-0.033203;0.038086;1.036133;
861004;-0.035156;0.038086;1.036133;
861151;-0.034180;0.037109;1.036133;
861291;-0.034180;0.038086;1.037109;
861431;-0.035156;0.036133;1.037109;
861580;-0.035156;0.038086;1.036133;
861710;-0.033203;0.037109;1.036133;
861862;-0.035156;0.037109;1.037109;
861991;-0.034180;0.038086;1.035156;
862141;-0.033203;0.039062;1.037109;
862285;-0.034180;0.037109;1.037109;
862425;-0.033203;0.037109;1.035156;
862575;-0.034180;0.035156;1.036133;
862715;-0.035156;0.038086;1.036133;
862855;-0.033203;0.037109;1.036133;
862995;-0.034180;0.037109;1.037109;
863135;-0.035156;0.036133;1.037109;
863275;-0.033203;0.038086;1.036133;
863415;-0.033203;0.038086;1.037109;
863555;-0.033203;0.038086;1.037109;
863695;-0.034180;0.038086;1.036133;
863835;-0.034180;0.037109;1.037109;
863975;-0.034180;0.038086;1.036133;
864115;-0.034180;0.035156;1.037109;
864251;-0.033203;0.038086;1.036133;
864402;-0.034180;0.038086;1.036133;
864541;-0.033203;0.038086;1.037109;
864681;-0.034180;0.039062;1.037109;
864820;-0.034180;0.038086;1.036133;
864961;-0.034180;0.036133;1.037109;
865101;-0.033203;0.037109;1.035156;
865245;-0.034180;0.037109;1.036133;
865385;-0.034180;0.036133;1.035156;
865525;-0.035156;0.037109;1.036133;
865665;-0.034180;0.038086;1.037109;
865805;-0.034180;0.039062;1.036133;
865955;-0.033203;0.038086;1.036133;
866095;-0.033203;0.035156;1.036133;
866245;-0.034180;0.036133;1.036133;
866385;-0.035156;0.035156;1.036133;
866525;-0.033203;0.038086;1.036133;
866665;-0.034180;0.039062;1.037109;
866805;-0.032227;0.038086;1.036133;
866945;-0.033203;0.039062;1.037109;
867085;-0.035156;0.037109;1.036133;
867220;-0.033203;0.037109;1.036133;
867360;-0.035156;0.037109;1.037109;
867501;-0.034180;0.037109;1.037109;
867640;-0.033203;0.038086;1.036133;
867782;-0.034180;0.037109;1.036133;
867920;-0.033203;0.037109;1.037109;
868075;-0.034180;0.038086;1.037109;
868221;-0.033203;0.037109;1.036133;
868355;-0.033203;0.037109;1.035156;
868505;-0.034180;0.037109;1.037109;
868645;-0.034180;0.037109;1.035156;
868785;-0.034180;0.038086;1.038086;
868925;-0.034180;0.037109;1.036133;
869065;-0.033203;0.038086;1.036133;
869205;-0.035156;0.037109;1.036133;
869345;-0.034180;0.037109;1.036133;
869485;-0.034180;0.037109;1.035156;
869625;-0.034180;0.038086;1.036133;
869765;-0.033203;0.039062;1.037109;
869905;-0.034180;0.038086;1.037109;
870045;-0.034180;0.040039;1.037109;
870185;-0.034180;0.038086;1.037109;
870321;-0.035156;0.038086;1.036133;
870470;-0.034180;0.037109;1.037109;
870622;-0.034180;0.038086;1.037109;
870761;-0.034180;0.035156;1.037109;
870891;-0.033203;0.039062;1.037109;
871022;-0.035156;0.037109;1.038086;
871150;-0.034180;0.037109;1.037109;
871301;-0.033203;0.039062;1.036133;
871450;-0.035156;0.037109;1.036133;
871605;-0.034180;0.037109;1.036133;
871745;-0.034180;0.037109;1.036133;
871885;-0.033203;0.039062;1.037109;
872025;-0.034180;0.039062;1.036133;
872165;-0.033203;0.037109;1.036133;
872305;-0.033203;0.038086;1.035156;
872445;-0.034180;0.038086;1.036133;
872585;-0.034180;0.037109;1.036133;
872725;-0.034180;0.037109;1.037109;
872865;-0.034180;0.037109;1.037109;
873005;-0.033203;0.039062;1.035156;
873145;-0.033203;0.037109;1.036133;
873285;-0.033203;0.038086;1.037109;
873425;-0.034180;0.039062;1.037109;
873561;-0.033203;0.038086;1.038086;
873712;-0.033203;0.037109;1.037109;
873845;-0.033203;0.038086;1.036133;
873995;-0.034180;0.038086;1.037109;
874132;-0.034180;0.036133;1.037109;
874261;-0.034180;0.038086;1.036133;
874400;-0.034180;0.037109;1.037109;
874550;-0.033203;0.038086;1.036133;
874701;-0.033203;0.038086;1.037109;
874841;-0.033203;0.037109;1.035156;
874980;-0.034180;0.038086;1.036133;
875125;-0.036133;0.035156;1.036133;
875265;-0.033203;0.038086;1.037109;
875405;-0.034180;0.039062;1.037109;
875545;-0.032227;0.038086;1.036133;
875685;-0.032227;0.039062;1.036133;
875825;-0.034180;0.035156;1.036133;
875965;-0.034180;0.038086;1.036133;
876105;-0.035156;0.037109;1.037109;
876245;-0.035156;0.037109;1.036133;
876385;-0.033203;0.037109;1.035156;
876525;-0.034180;0.036133;1.037109;
876665;-0.034180;0.037109;1.038086;
876805;-0.033203;0.036133;1.035156;
876945;-0.034180;0.037109;1.036133;
877081;-0.035156;0.037109;1.036133;
877211;-0.036133;0.037109;1.038086;
877353;-0.034180;0.036133;1.036133;
877490;-0.034180;0.038086;1.036133;
877641;-0.034180;0.037109;1.036133;
877782;-0.034180;0.038086;1.037109;
877930;-0.034180;0.036133;1.036133;
878085;-0.034180;0.038086;1.035156;
878225;-0.034180;0.038086;1.037109;
878365;-0.033203;0.037109;1.036133;
878505;-0.034180;0.037109;1.036133;
878645;-0.034180;0.038086;1.036133;
878785;-0.034180;0.037109;1.037109;
878925;-0.033203;0.038086;1.036133;
879065;-0.034180;0.038086;1.037109;
879205;-0.033203;0.038086;1.037109;
879345;-0.033203;0.037109;1.036133;
879485;-0.035156;0.037109;1.037109;
879625;-0.034180;0.037109;1.036133;
879765;-0.034180;0.038086;1.037109;
879905;-0.034180;0.039062;1.036133;
880041;-0.033203;0.039062;1.036133;
880180;-0.035156;0.037109;1.035156;
880323;-0.034180;0.040039;1.036133;
880461;-0.034180;0.038086;1.037109;
880601;-0.034180;0.037109;1.035156;
880731;-0.036133;0.037109;1.037109;
880871;-0.034180;0.038086;1.036133;
881011;-0.033203;0.038086;1.037109;
881143;-0.035156;0.037109;1.036133;
881275;-0.034180;0.038086;1.037109;
881415;-0.033203;0.038086;1.038086;
881555;-0.034180;0.037109;1.036133;
881695;-0.035156;0.037109;1.036133;
881835;-0.033203;0.038086;1.036133;
881975;-0.034180;0.039062;1.038086;
882115;-0.034180;0.037109;1.036133;
882265;-0.035156;0.037109;1.036133;
882405;-0.034180;0.037109;1.036133;
882545;-0.034180;0.037109;1.037109;
882685;-0.035156;0.037109;1.038086;
882825;-0.033203;0.039062;1.037109;
882975;-0.034180;0.038086;1.035156;
883115;-0.034180;0.040039;1.036133;
883255;-0.035156;0.038086;1.037109;
883380;-0.034180;0.037109;1.036133;
883521;-0.034180;0.038086;1.036133;
883655;-0.034180;0.037109;1.038086;
883791;-0.034180;0.038086;1.036133;
883941;-0.034180;0.038086;1.036133;
884092;-0.034180;0.037109;1.037109;
884231;-0.034180;0.038086;1.035156;
884371;-0.034180;0.037109;1.037109;
884511;-0.034180;0.037109;1.036133;
884651;-0.034180;0.036133;1.036133;
884781;-0.033203;0.036133;1.035156;
884911;-0.033203;0.037109;1.037109;
885065;-0.034180;0.039062;1.036133;
885215;-0.034180;0.038086;1.036133;
885355;-0.034180;0.038086;1.037109;
885495;-0.034180;0.038086;1.036133;
885635;-0.034180;0.037109;1.037109;
885775;-0.033203;0.038086;1.037109;
885915;-0.034180;0.038086;1.036133;
886055;-0.034180;0.038086;1.037109;
886195;-0.035156;0.037109;1.038086;
886335;-0.033203;0.037109;1.037109;
886485;-0.035156;0.037109;1.037109;
886625;-0.035156;0.036133;1.036133;
886765;-0.034180;0.038086;1.036133;
886905;-0.034180;0.037109;1.035156;
887041;-0.035156;0.037109;1.037109;
887180;-0.035156;0.035156;1.036133;
887320;-0.034180;0.037109;1.036133;
887461;-0.033203;0.038086;1.036133;
887605;-0.035156;0.038086;1.036133;
887741;-0.034180;0.037109;1.036133;
887875;-0.033203;0.038086;1.035156;
888025;-0.034180;0.037109;1.036133;
888161;-0.034180;0.037109;1.037109;
888291;-0.034180;0.040039;1.037109;
888430;-0.034180;0.037109;1.036133;
888581;-0.033203;0.038086;1.038086;
888730;-0.033203;0.039062;1.037109;
888875;-0.033203;0.038086;1.036133;
889025;-0.035156;0.037109;1.037109;
889165;-0.034180;0.037109;1.038086;
889305;-0.032227;0.038086;1.036133;
889455;-0.034180;0.038086;1.035156;
889595;-0.034180;0.038086;1.037109;
889735;-0.034180;0.037109;1.037109;
889875;-0.033203;0.038086;1.036133;
890015;-0.034180;0.037109;1.037109;
890155;-0.034180;0.038086;1.037109;
890295;-0.034180;0.038086;1.037109;
890435;-0.034180;0.039062;1.036133;
890575;-0.034180;0.037109;1.035156;
890715;-0.033203;0.037109;1.036133;
890851;-0.034180;0.036133;1.037109;
890990;-0.033203;0.037109;1.035156;
891131;-0.034180;0.037109;1.036133;
891263;-0.034180;0.037109;1.037109;
891400;-0.034180;0.037109;1.036133;
891545;-0.034180;0.038086;1.036133;
891685;-0.034180;0.037109;1.037109;
891821;-0.034180;0.038086;1.036133;
891971;-0.034180;0.038086;1.036133;
892111;-0.033203;0.037109;1.036133;
892241;-0.033203;0.038086;1.034180;
892391;-0.034180;0.037109;1.036133;
892545;-0.034180;0.038086;1.037109;
892685;-0.034180;0.040039;1.036133;
892825;-0.032227;0.038086;1.036133;
892965;-0.035156;0.036133;1.037109;
893105;-0.034180;0.036133;1.037109;
893245;-0.034180;0.037109;1.037109;
893395;-0.034180;0.037109;1.036133;
893535;-0.034180;0.038086;1.035156;
893685;-0.034180;0.038086;1.037109;
893825;-0.035156;0.037109;1.037109;
893965;-0.034180;0.038086;1.037109;
894115;-0.035156;0.038086;1.038086;
894255;-0.035156;0.037109;1.037109;
894395;-0.033203;0.038086;1.037109;
894535;-0.034180;0.038086;1.036133;
894671;-0.034180;0.037109;1.036133;
894821;-0.035156;0.038086;1.038086;
894951;-0.034180;0.037109;1.036133;
895092;-0.035156;0.037109;1.036133;
895222;-0.034180;0.036133;1.035156;
895350;-0.034180;0.036133;1.036133;
895501;-0.035156;0.036133;1.034180;
895652;-0.034180;0.037109;1.036133;
895795;-0.034180;0.038086;1.037109;
895935;-0.033203;0.038086;1.035156;
896075;-0.033203;0.038086;1.037109;
896215;-0.035156;0.037109;1.037109;
896355;-0.034180;0.039062;1.037109;
896495;-0.035156;0.037109;1.036133;
896635;-0.034180;0.038086;1.037109;
896775;-0.034180;0.036133;1.036133;
896915;-0.034180;0.038086;1.036133;
897055;-0.034180;0.038086;1.037109;
897195;-0.032227;0.039062;1.036133;
897335;-0.035156;0.038086;1.037109;
897475;-0.035156;0.037109;1.037109;
897615;-0.034180;0.038086;1.037109;
897755;-0.034180;0.037109;1.036133;
897890;-0.035156;0.036133;1.037109;
898041;-0.035156;0.036133;1.036133;
898171;-0.034180;0.037109;1.036133;
898310;-0.035156;0.037109;1.035156;
898451;-0.036133;0.037109;1.037109;
898591;-0.033203;0.038086;1.035156;
898721;-0.032227;0.038086;1.037109;
898851;-0.033203;0.037109;1.035156;
898980;-0.034180;0.038086;1.035156;
899121;-0.034180;0.036133;1.035156;
899261;-0.035156;0.038086;1.037109;
899405;-0.034180;0.037109;1.037109;
899545;-0.034180;0.037109;1.036133;
899685;-0.034180;0.038086;1.038086;
899825;-0.033203;0.038086;1.037109;
899965;-0.034180;0.039062;1.038086;
900105;-0.034180;0.038086;1.037109;
900245;-0.034180;0.038086;1.036133;
900385;-0.034180;0.037109;1.034180;
900525;-0.035156;0.036133;1.037109;
900665;-0.034180;0.037109;1.036133;
900805;-0.033203;0.037109;1.036133;
900945;-0.033203;0.037109;1.035156;
901085;-0.035156;0.037109;1.035156;
901225;-0.034180;0.037109;1.035156;
901361;-0.033203;0.037109;1.038086;
901501;-0.035156;0.035156;1.035156;
901651;-0.033203;0.037109;1.036133;
901801;-0.033203;0.038086;1.037109;
901951;-0.033203;0.038086;1.034180;
902101;-0.034180;0.037109;1.036133;
902231;-0.035156;0.036133;1.036133;
902371;-0.034180;0.037109;1.036133;
902511;-0.034180;0.036133;1.037109;
902665;-0.035156;0.037109;1.036133;
902791;-0.034180;0.037109;1.036133;
902925;-0.035156;0.037109;1.036133;
903061;-0.034180;0.037109;1.037109;
903205;-0.033203;0.037109;1.038086;
903345;-0.033203;0.038086;1.037109;
903495;-0.034180;0.037109;1.037109;
903635;-0.034180;0.037109;1.037109;
903775;-0.034180;0.038086;1.037109;
903925;-0.034180;0.039062;1.036133;
904065;-0.033203;0.037109;1.036133;
904205;-0.033203;0.038086;1.035156;
904345;-0.034180;0.037109;1.037109;
904485;-0.033203;0.039062;1.035156;
904625;-0.033203;0.038086;1.036133;
904765;-0.033203;0.037109;1.037109;
904905;-0.034180;0.037109;1.037109;
905055;-0.033203;0.038086;1.038086;
905192;-0.033203;0.038086;1.034180;
905330;-0.033203;0.037109;1.037109;
905482;-0.034180;0.037109;1.036133;
905610;-0.033203;0.038086;1.036133;
905751;-0.034180;0.037109;1.036133;
905891;-0.033203;0.038086;1.038086;
906041;-0.034180;0.037109;1.038086;
906185;-0.034180;0.038086;1.035156;
906321;-0.034180;0.037109;1.035156;
906460;-0.035156;0.036133;1.036133;
906600;-0.033203;0.037109;1.036133;
906745;-0.032227;0.038086;1.037109;
906885;-0.032227;0.038086;1.037109;
907025;-0.033203;0.038086;1.037109;
907165;-0.035156;0.038086;1.038086;
907315;-0.032227;0.039062;1.037109;
907455;-0.034180;0.037109;1.038086;
907595;-0.032227;0.038086;1.035156;
907735;-0.034180;0.036133;1.037109;
907875;-0.033203;0.037109;1.037109;
908015;-0.033203;0.038086;1.037109;
908155;-0.034180;0.038086;1.035156;
908295;-0.034180;0.040039;1.037109;
908435;-0.033203;0.037109;1.035156;
908575;-0.034180;0.035156;1.036133;
908711;-0.033203;0.038086;1.037109;
908841;-0.034180;0.039062;1.037109;
908982;-0.032227;0.038086;1.037109;
909121;-0.034180;0.037109;1.035156;
909274;-0.032227;0.038086;1.037109;
909421;-0.035156;0.036133;1.037109;
909571;-0.034180;0.036133;1.035156;
909701;-0.034180;0.039062;1.038086;
909831;-0.034180;0.039062;1.037109;
909960;-0.033203;0.038086;1.037109;
910105;-0.034180;0.037109;1.038086;
910255;-0.034180;0.036133;1.036133;
910395;-0.034180;0.038086;1.036133;
910535;-0.032227;0.038086;1.037109;
910685;-0.033203;0.037109;1.037109;
910825;-0.033203;0.038086;1.037109;
910965;-0.034180;0.036133;1.036133;
911105;-0.034180;0.037109;1.038086;
911245;-0.034180;0.036133;1.037109;
911385;-0.034180;0.037109;1.038086;
911535;-0.033203;0.037109;1.036133;
911675;-0.034180;0.036133;1.035156;
911815;-0.034180;0.038086;1.038086;
911955;-0.033203;0.038086;1.036133;
912091;-0.033203;0.038086;1.037109;
912241;-0.033203;0.037109;1.037109;
912380;-0.035156;0.038086;1.036133;
912515;-0.036133;0.036133;1.036133;
912645;-0.033203;0.038086;1.035156;
912781;-0.034180;0.038086;1.036133;
912910;-0.034180;0.038086;1.036133;
913040;-0.034180;0.037109;1.036133;
913181;-0.033203;0.037109;1.035156;
913321;-0.034180;0.038086;1.036133;
913471;-0.033203;0.039062;1.036133;
913615;-0.035156;0.038086;1.037109;
913755;-0.034180;0.036133;1.036133;
913905;-0.033203;0.037109;1.036133;
914045;-0.033203;0.037109;1.037109;
914185;-0.034180;0.038086;1.036133;
914325;-0.034180;0.038086;1.036133;
914465;-0.033203;0.040039;1.037109;
914605;-0.033203;0.038086;1.036133;
914745;-0.034180;0.038086;1.036133;
914885;-0.034180;0.036133;1.036133;
915035;-0.035156;0.037109;1.036133;
915175;-0.034180;0.037109;1.036133;
915315;-0.034180;0.038086;1.036133;
915455;-0.033203;0.037109;1.036133;
915594;-0.035156;0.037109;1.036133;
915741;-0.034180;0.037109;1.036133;
915885;-0.034180;0.037109;1.036133;
916035;-0.033203;0.038086;1.037109;
916171;-0.033203;0.038086;1.035156;
916311;-0.034180;0.037109;1.036133;
916461;-0.034180;0.036133;1.035156;
916613;-0.034180;0.038086;1.036133;
916751;-0.034180;0.037109;1.036133;
916901;-0.034180;0.037109;1.036133;
917040;-0.035156;0.038086;1.037109;
917181;-0.033203;0.037109;1.035156;
917320;-0.034180;0.038086;1.035156;
917455;-0.034180;0.038086;1.036133;
917605;-0.034180;0.038086;1.037109;
917745;-0.034180;0.038086;1.035156;
917885;-0.034180;0.039062;1.035156;
918025;-0.034180;0.038086;1.037109;
918165;-0.035156;0.037109;1.037109;
918305;-0.033203;0.039062;1.036133;
918445;-0.033203;0.038086;1.036133;
918585;-0.035156;0.037109;1.038086;
918725;-0.033203;0.036133;1.037109;
918865;-0.034180;0.037109;1.036133;
919015;-0.034180;0.039062;1.037109;
919155;-0.034180;0.039062;1.036133;
919295;-0.034180;0.038086;1.036133;
919431;-0.035156;0.036133;1.037109;
919571;-0.034180;0.037109;1.036133;
919701;-0.034180;0.038086;1.036133;
919851;-0.033203;0.039062;1.036133;
920005;-0.035156;0.038086;1.037109;
920141;-0.034180;0.038086;1.036133;
920273;-0.033203;0.036133;1.034180;
920401;-0.034180;0.038086;1.037109;
920533;-0.034180;0.036133;1.036133;
920671;-0.033203;0.038086;1.035156;
920815;-0.035156;0.037109;1.035156;
920955;-0.034180;0.038086;1.037109;
921095;-0.034180;0.039062;1.038086;
921235;-0.035156;0.037109;1.036133;
921375;-0.035156;0.036133;1.037109;
921515;-0.035156;0.038086;1.036133;
921655;-0.035156;0.036133;1.037109;
921795;-0.032227;0.039062;1.036133;
921945;-0.033203;0.038086;1.038086;
922085;-0.034180;0.038086;1.035156;
922225;-0.034180;0.036133;1.035156;
922375;-0.034180;0.037109;1.040039;
922515;-0.033203;0.037109;1.035156;
922655;-0.034180;0.039062;1.037109;
922794;-0.034180;0.038086;1.037109;
922931;-0.034180;0.038086;1.036133;
923072;-0.033203;0.038086;1.038086;
923211;-0.034180;0.038086;1.036133;
923355;-0.034180;0.038086;1.038086;
923490;-0.034180;0.038086;1.034180;
923632;-0.035156;0.038086;1.037109;
923783;-0.033203;0.038086;1.036133;
923931;-0.033203;0.038086;1.036133;
924061;-0.034180;0.039062;1.039062;
924211;-0.034180;0.036133;1.035156;
924345;-0.034180;0.039062;1.037109;
924485;-0.034180;0.039062;1.036133;
924625;-0.034180;0.037109;1.037109;
924765;-0.036133;0.038086;1.036133;
924905;-0.034180;0.037109;1.034180;
925055;-0.035156;0.037109;1.035156;
925195;-0.034180;0.038086;1.036133;
925335;-0.034180;0.037109;1.035156;
925475;-0.032227;0.039062;1.035156;
925615;-0.035156;0.038086;1.037109;
925755;-0.035156;0.037109;1.037109;
925895;-0.033203;0.037109;1.033203;
926035;-0.034180;0.037109;1.035156;
926175;-0.034180;0.038086;1.035156;
926315;-0.035156;0.039062;1.036133;
926451;-0.034180;0.038086;1.037109;
926592;-0.033203;0.037109;1.036133;
926731;-0.034180;0.037109;1.036133;
926880;-0.034180;0.038086;1.035156;
927021;-0.034180;0.038086;1.037109;
927162;-0.033203;0.037109;1.034180;
927311;-0.035156;0.037109;1.036133;
927455;-0.032227;0.037109;1.037109;
927615;-0.035156;0.038086;1.037109;
927755;-0.034180;0.037109;1.036133;
927893;-0.035156;0.038086;1.037109;
928031;-0.034180;0.038086;1.036133;
928180;-0.035156;0.037109;1.036133;
928325;-0.033203;0.039062;1.036133;
928475;-0.034180;0.038086;1.038086;
928615;-0.032227;0.039062;1.037109;
928755;-0.036133;0.037109;1.037109;
928895;-0.035156;0.036133;1.036133;
929035;-0.034180;0.038086;1.036133;
929175;-0.035156;0.037109;1.037109;
929315;-0.034180;0.039062;1.035156;
929465;-0.033203;0.038086;1.036133;
929605;-0.034180;0.037109;1.035156;
929745;-0.035156;0.038086;1.036133;
929885;-0.035156;0.038086;1.036133;
930025;-0.034180;0.038086;1.037109;
930165;-0.036133;0.037109;1.037109;
930291;-0.034180;0.039062;1.036133;
930432;-0.034180;0.037109;1.036133;
930581;-0.034180;0.037109;1.035156;
930710;-0.033203;0.038086;1.035156;
930852;-0.034180;0.037109;1.036133;
930991;-0.036133;0.037109;1.037109;
931135;-0.033203;0.037109;1.035156;
931271;-0.035156;0.037109;1.034180;
931414;-0.035156;0.038086;1.036133;
931561;-0.035156;0.036133;1.036133;
931701;-0.035156;0.038086;1.035156;
931855;-0.034180;0.036133;1.037109;
932005;-0.034180;0.037109;1.036133;
932145;-0.034180;0.038086;1.036133;
932285;-0.033203;0.038086;1.037109;
932435;-0.034180;0.036133;1.036133;
932575;-0.034180;0.038086;1.037109;
932715;-0.035156;0.036133;1.036133;
932855;-0.034180;0.036133;1.036133;
932995;-0.034180;0.038086;1.036133;
933135;-0.035156;0.036133;1.035156;
933275;-0.033203;0.038086;1.036133;
933415;-0.033203;0.037109;1.038086;
933555;-0.033203;0.037109;1.036133;
933695;-0.034180;0.039062;1.036133;
933835;-0.035156;0.039062;1.038086;
933975;-0.034180;0.039062;1.036133;
934111;-0.034180;0.039062;1.036133;
934241;-0.035156;0.038086;1.038086;
934375;-0.035156;0.037109;1.037109;
934515;-0.034180;0.038086;1.036133;
934651;-0.033203;0.037109;1.036133;
934792;-0.034180;0.038086;1.036133;
934940;-0.035156;0.038086;1.037109;
935081;-0.034180;0.037109;1.037109;
935231;-0.034180;0.038086;1.037109;
935381;-0.034180;0.036133;1.037109;
935522;-0.035156;0.038086;1.036133;
935675;-0.034180;0.037109;1.036133;
935811;-0.033203;0.039062;1.035156;
935951;-0.035156;0.037109;1.036133;
936105;-0.034180;0.036133;1.035156;
936245;-0.034180;0.037109;1.035156;
936385;-0.034180;0.038086;1.036133;
936525;-0.034180;0.038086;1.035156;
936665;-0.035156;0.038086;1.037109;
936805;-0.035156;0.037109;1.036133;
936945;-0.034180;0.039062;1.035156;
937085;-0.034180;0.037109;1.037109;
937225;-0.034180;0.037109;1.036133;
937365;-0.034180;0.037109;1.036133;
937505;-0.034180;0.038086;1.036133;
937655;-0.034180;0.038086;1.038086;
937795;-0.034180;0.038086;1.036133;
937935;-0.035156;0.038086;1.037109;
938080;-0.034180;0.038086;1.037109;
938221;-0.033203;0.036133;1.035156;
938371;-0.034180;0.036133;1.037109;
938521;-0.034180;0.037109;1.036133;
938660;-0.034180;0.037109;1.036133;
938811;-0.035156;0.038086;1.038086;
938952;-0.034180;0.038086;1.036133;
939091;-0.035156;0.037109;1.037109;
939225;-0.033203;0.037109;1.038086;
939375;-0.034180;0.036133;1.035156;
939515;-0.033203;0.037109;1.037109;
939655;-0.034180;0.037109;1.035156;
939795;-0.034180;0.038086;1.035156;
939935;-0.034180;0.039062;1.037109;
940075;-0.033203;0.039062;1.036133;
940215;-0.032227;0.038086;1.036133;
940355;-0.033203;0.036133;1.037109;
940495;-0.034180;0.038086;1.036133;
940645;-0.033203;0.039062;1.036133;
940785;-0.035156;0.037109;1.037109;
940925;-0.033203;0.039062;1.035156;
941065;-0.033203;0.038086;1.036133;
941205;-0.036133;0.036133;1.037109;
941342;-0.035156;0.035156;1.035156;
941491;-0.034180;0.037109;1.036133;
941645;-0.035156;0.039062;1.038086;
941785;-0.034180;0.038086;1.036133;
941925;-0.034180;0.038086;1.036133;
942060;-0.034180;0.037109;1.038086;
942191;-0.032227;0.038086;1.035156;
942320;-0.034180;0.038086;1.034180;
942462;-0.035156;0.039062;1.035156;
942601;-0.035156;0.037109;1.037109;
942753;-0.034180;0.038086;1.035156;
942903;-0.034180;0.037109;1.037109;
943051;-0.034180;0.037109;1.037109;
943180;-0.035156;0.037109;1.037109;
943325;-0.035156;0.037109;1.036133;
943465;-0.035156;0.038086;1.035156;
943615;-0.034180;0.036133;1.036133;
943755;-0.035156;0.037109;1.037109;
943895;-0.034180;0.036133;1.037109;
944035;-0.034180;0.038086;1.036133;
944175;-0.034180;0.037109;1.037109;
944315;-0.033203;0.038086;1.035156;
944455;-0.033203;0.039062;1.037109;
944595;-0.034180;0.038086;1.036133;
944735;-0.035156;0.037109;1.037109;
944875;-0.033203;0.037109;1.036133;
945015;-0.035156;0.037109;1.036133;
945155;-0.036133;0.037109;1.036133;
945291;-0.034180;0.037109;1.036133;
945440;-0.034180;0.039062;1.037109;
945571;-0.033203;0.038086;1.036133;
945720;-0.034180;0.037109;1.036133;
945861;-0.034180;0.038086;1.037109;
946011;-0.034180;0.037109;1.036133;
946151;-0.034180;0.038086;1.036133;
946291;-0.034180;0.038086;1.036133;
946441;-0.034180;0.038086;1.036133;
946575;-0.032227;0.039062;1.036133;
946725;-0.034180;0.038086;1.037109;
946865;-0.034180;0.037109;1.035156;
947005;-0.034180;0.039062;1.036133;
947145;-0.036133;0.037109;1.037109;
947285;-0.035156;0.037109;1.036133;
947435;-0.035156;0.037109;1.038086;
947575;-0.033203;0.037109;1.037109;
947715;-0.035156;0.037109;1.037109;
947865;-0.033203;0.038086;1.037109;
948005;-0.034180;0.037109;1.034180;
948145;-0.034180;0.038086;1.036133;
948285;-0.034180;0.037109;1.037109;
948425;-0.034180;0.037109;1.036133;
948565;-0.034180;0.039062;1.035156;
948702;-0.035156;0.036133;1.037109;
948830;-0.033203;0.037109;1.035156;
948971;-0.034180;0.039062;1.035156;
949110;-0.035156;0.037109;1.037109;
949261;-0.034180;0.039062;1.036133;
949401;-0.035156;0.036133;1.036133;
949555;-0.035156;0.037109;1.036133;
949691;-0.034180;0.037109;1.036133;
949831;-0.035156;0.038086;1.036133;
949971;-0.034180;0.039062;1.037109;
950110;-0.033203;0.037109;1.035156;
950265;-0.035156;0.037109;1.037109;
950405;-0.033203;0.036133;1.036133;
950545;-0.034180;0.039062;1.037109;
950695;-0.035156;0.038086;1.036133;
950835;-0.034180;0.038086;1.036133;
950975;-0.033203;0.037109;1.036133;
951115;-0.034180;0.038086;1.035156;
951255;-0.035156;0.038086;1.036133;
951395;-0.035156;0.036133;1.036133;
951535;-0.034180;0.039062;1.036133;
951675;-0.034180;0.039062;1.037109;
951815;-0.034180;0.038086;1.037109;
951955;-0.034180;0.039062;1.036133;
952095;-0.034180;0.038086;1.037109;
952231;-0.033203;0.038086;1.035156;
952372;-0.034180;0.038086;1.036133;
952522;-0.034180;0.036133;1.035156;
952651;-0.033203;0.039062;1.038086;
952791;-0.034180;0.038086;1.037109;
952925;-0.034180;0.037109;1.036133;
953061;-0.033203;0.037109;1.037109;
953191;-0.035156;0.037109;1.035156;
953341;-0.033203;0.038086;1.036133;
953490;-0.034180;0.039062;1.038086;
953642;-0.034180;0.037109;1.036133;
953785;-0.034180;0.037109;1.035156;
953925;-0.035156;0.036133;1.037109;
954065;-0.034180;0.036133;1.036133;
954205;-0.034180;0.038086;1.035156;
954345;-0.034180;0.038086;1.039062;
954485;-0.034180;0.039062;1.036133;
954635;-0.035156;0.039062;1.036133;
954775;-0.033203;0.038086;1.038086;
954915;-0.036133;0.037109;1.035156;
955055;-0.035156;0.037109;1.037109;
955195;-0.033203;0.036133;1.035156;
955335;-0.035156;0.037109;1.036133;
955475;-0.035156;0.038086;1.037109;
955615;-0.035156;0.037109;1.037109;
955755;-0.035156;0.038086;1.037109;
955895;-0.035156;0.036133;1.036133;
956031;-0.032227;0.038086;1.037109;
956171;-0.034180;0.037109;1.036133;
956300;-0.034180;0.038086;1.037109;
956442;-0.033203;0.038086;1.037109;
956592;-0.036133;0.037109;1.036133;
956741;-0.034180;0.036133;1.035156;
956891;-0.033203;0.038086;1.036133;
957031;-0.034180;0.038086;1.036133;
957180;-0.034180;0.038086;1.038086;
957331;-0.034180;0.039062;1.037109;
957471;-0.033203;0.038086;1.036133;
957625;-0.034180;0.037109;1.036133;
957765;-0.034180;0.037109;1.037109;
957905;-0.034180;0.038086;1.035156;
958055;-0.033203;0.039062;1.037109;
958195;-0.034180;0.038086;1.035156;
958335;-0.033203;0.038086;1.037109;
958485;-0.033203;0.037109;1.037109;
958625;-0.035156;0.038086;1.036133;
958765;-0.035156;0.038086;1.036133;
958905;-0.034180;0.038086;1.035156;
959045;-0.034180;0.038086;1.036133;
959185;-0.034180;0.035156;1.040039;
959335;-0.034180;0.038086;1.038086;
959475;-0.034180;0.037109;1.035156;
959615;-0.033203;0.038086;1.036133;
959755;-0.033203;0.038086;1.037109;
959891;-0.035156;0.039062;1.037109;
960031;-0.035156;0.038086;1.036133;
960174;-0.033203;0.038086;1.035156;
960321;-0.033203;0.037109;1.036133;
960461;-0.034180;0.038086;1.036133;
960591;-0.033203;0.038086;1.036133;
960731;-0.034180;0.038086;1.035156;
960885;-0.035156;0.039062;1.035156;
961021;-0.035156;0.037109;1.036133;
961165;-0.034180;0.037109;1.037109;
961311;-0.033203;0.039062;1.036133;
961450;-0.034180;0.039062;1.037109;
961601;-0.034180;0.037109;1.035156;
961750;-0.035156;0.036133;1.036133;
961900;-0.035156;0.036133;1.036133;
962045;-0.034180;0.035156;1.036133;
962185;-0.034180;0.036133;1.035156;
962325;-0.033203;0.037109;1.038086;
962475;-0.034180;0.037109;1.034180;
962615;-0.033203;0.038086;1.036133;
962755;-0.034180;0.038086;1.036133;
962895;-0.034180;0.038086;1.037109;
963035;-0.033203;0.037109;1.037109;
963175;-0.036133;0.037109;1.037109;
963315;-0.034180;0.037109;1.036133;
963457;-0.035156;0.038086;1.033203;
963615;-0.034180;0.037109;1.037109;
963755;-0.033203;0.038086;1.037109;
963895;-0.034180;0.037109;1.038086;
964020;-0.033203;0.038086;1.038086;
964161;-0.033203;0.038086;1.035156;
964301;-0.034180;0.038086;1.037109;
964451;-0.033203;0.038086;1.036133;
964580;-0.034180;0.037109;1.036133;
964731;-0.034180;0.038086;1.037109;
964861;-0.034180;0.036133;1.037109;
964992;-0.035156;0.036133;1.036133;
965131;-0.034180;0.037109;1.036133;
965281;-0.034180;0.037109;1.036133;
965422;-0.034180;0.037109;1.034180;
965561;-0.033203;0.038086;1.035156;
965701;-0.035156;0.038086;1.036133;
965851;-0.035156;0.037109;1.037109;
965991;-0.034180;0.038086;1.036133;
966135;-0.034180;0.036133;1.036133;
966275;-0.034180;0.037109;1.037109;
966410;-0.034180;0.039062;1.035156;
966565;-0.034180;0.038086;1.037109;
966715;-0.033203;0.037109;1.036133;
966855;-0.034180;0.036133;1.036133;
966995;-0.034180;0.037109;1.035156;
967131;-0.033203;0.038086;1.036133;
967275;-0.033203;0.039062;1.036133;
967415;-0.036133;0.036133;1.037109;
967555;-0.034180;0.038086;1.036133;
967707;-0.034180;0.037109;1.036133;
967851;-0.033203;0.038086;1.036133;
968005;-0.035156;0.038086;1.036133;
968141;-0.033203;0.036133;1.037109;
968281;-0.035156;0.037109;1.036133;
968411;-0.034180;0.037109;1.036133;
968550;-0.034180;0.038086;1.037109;
968691;-0.033203;0.038086;1.036133;
968832;-0.035156;0.037109;1.036133;
968971;-0.034180;0.035156;1.037109;
969112;-0.034180;0.037109;1.036133;
969245;-0.034180;0.037109;1.035156;
969381;-0.035156;0.037109;1.036133;
969521;-0.034180;0.039062;1.037109;
969671;-0.034180;0.037109;1.035156;
969821;-0.034180;0.038086;1.037109;
969971;-0.034180;0.037109;1.036133;
970115;-0.035156;0.037109;1.035156;
970251;-0.036133;0.037109;1.037109;
970381;-0.034180;0.038086;1.036133;
970511;-0.034180;0.037109;1.035156;
970651;-0.033203;0.037109;1.035156;
970791;-0.035156;0.037109;1.036133;
970921;-0.035156;0.037109;1.037109;
971061;-0.034180;0.037109;1.037109;
971201;-0.033203;0.037109;1.035156;
971341;-0.034180;0.038086;1.036133;
971482;-0.034180;0.037109;1.035156;
971611;-0.034180;0.039062;1.038086;
971755;-0.035156;0.037109;1.037109;
971895;-0.034180;0.038086;1.036133;
972035;-0.035156;0.037109;1.036133;
972175;-0.033203;0.039062;1.036133;
972327;-0.033203;0.038086;1.037109;
972472;-0.034180;0.040039;1.037109;
972625;-0.034180;0.036133;1.034180;
972765;-0.035156;0.036133;1.037109;
972905;-0.034180;0.037109;1.036133;
973042;-0.034180;0.038086;1.036133;
973171;-0.034180;0.037109;1.038086;
973315;-0.035156;0.038086;1.036133;
973455;-0.034180;0.037109;1.036133;
973595;-0.034180;0.037109;1.036133;
973735;-0.034180;0.039062;1.037109;
973881;-0.034180;0.038086;1.035156;
974021;-0.034180;0.039062;1.036133;
974161;-0.033203;0.038086;1.037109;
974311;-0.034180;0.038086;1.035156;
974461;-0.035156;0.039062;1.038086;
974611;-0.033203;0.039062;1.035156;
974755;-0.034180;0.037109;1.036133;
974882;-0.034180;0.038086;1.036133;
975025;-0.034180;0.036133;1.036133;
975171;-0.034180;0.039062;1.036133;
975321;-0.034180;0.037109;1.036133;
975461;-0.035156;0.036133;1.037109;
975592;-0.035156;0.037109;1.036133;
975740;-0.034180;0.037109;1.036133;
975881;-0.034180;0.038086;1.037109;
976031;-0.034180;0.038086;1.036133;
976180;-0.035156;0.039062;1.037109;
976311;-0.033203;0.038086;1.036133;
976462;-0.035156;0.038086;1.037109;
976611;-0.034180;0.037109;1.035156;
976740;-0.034180;0.037109;1.034180;
976895;-0.036133;0.036133;1.037109;
977035;-0.033203;0.037109;1.036133;
977185;-0.034180;0.037109;1.037109;
977323;-0.034180;0.038086;1.035156;
977451;-0.034180;0.039062;1.036133;
977581;-0.034180;0.038086;1.037109;
977725;-0.035156;0.039062;1.038086;
977865;-0.034180;0.038086;1.036133;
978015;-0.036133;0.037109;1.036133;
978155;-0.033203;0.038086;1.037109;
978280;-0.035156;0.038086;1.036133;
978425;-0.035156;0.037109;1.038086;
978560;-0.035156;0.038086;1.036133;
978711;-0.034180;0.038086;1.036133;
978852;-0.032227;0.038086;1.036133;
978991;-0.034180;0.038086;1.037109;
979131;-0.033203;0.039062;1.038086;
979281;-0.034180;0.038086;1.039062;
979411;-0.034180;0.037109;1.036133;
979550;-0.033203;0.039062;1.036133;
979694;-0.034180;0.037109;1.038086;
979840;-0.033203;0.037109;1.036133;
979990;-0.033203;0.038086;1.036133;
980132;-0.034180;0.037109;1.036133;
980281;-0.034180;0.038086;1.036133;
980431;-0.034180;0.037109;1.038086;
980562;-0.034180;0.037109;1.037109;
980701;-0.034180;0.038086;1.035156;
980841;-0.034180;0.037109;1.035156;
980980;-0.035156;0.037109;1.037109;
981121;-0.034180;0.037109;1.037109;
981271;-0.035156;0.037109;1.036133;
981422;-0.035156;0.039062;1.036133;
981561;-0.034180;0.037109;1.035156;
981705;-0.034180;0.038086;1.036133;
981845;-0.034180;0.037109;1.036133;
981995;-0.034180;0.039062;1.034180;
982135;-0.034180;0.038086;1.036133;
982271;-0.035156;0.039062;1.037109;
982415;-0.032227;0.037109;1.036133;
982561;-0.035156;0.037109;1.036133;
982695;-0.035156;0.037109;1.036133;
982830;-0.034180;0.038086;1.035156;
982985;-0.034180;0.038086;1.037109;
983125;-0.034180;0.037109;1.036133;
983265;-0.032227;0.038086;1.037109;
983405;-0.034180;0.038086;1.035156;
983531;-0.034180;0.037109;1.036133;
983680;-0.034180;0.040039;1.038086;
983821;-0.034180;0.039062;1.036133;
983961;-0.035156;0.037109;1.037109;
984106;-0.034180;0.038086;1.036133;
984251;-0.032227;0.038086;1.037109;
984391;-0.034180;0.039062;1.035156;
984520;-0.034180;0.039062;1.036133;
984660;-0.035156;0.037109;1.038086;
984811;-0.034180;0.037109;1.036133;
984961;-0.034180;0.036133;1.037109;
985101;-0.035156;0.037109;1.038086;
985251;-0.034180;0.037109;1.035156;
985401;-0.034180;0.038086;1.034180;
985541;-0.034180;0.038086;1.036133;
985692;-0.034180;0.038086;1.036133;
985841;-0.035156;0.036133;1.037109;
985972;-0.033203;0.037109;1.036133;
986111;-0.033203;0.037109;1.034180;
986251;-0.034180;0.037109;1.037109;
986391;-0.034180;0.038086;1.037109;
986542;-0.033203;0.037109;1.035156;
986695;-0.035156;0.036133;1.037109;
986835;-0.034180;0.037109;1.037109;
986975;-0.033203;0.037109;1.038086;
987120;-0.035156;0.038086;1.037109;
987271;-0.035156;0.038086;1.036133;
987415;-0.034180;0.037109;1.035156;
987555;-0.035156;0.037109;1.036133;
987695;-0.033203;0.037109;1.036133;
987830;-0.033203;0.037109;1.037109;
987961;-0.034180;0.038086;1.037109;
988091;-0.034180;0.038086;1.036133;
988225;-0.034180;0.037109;1.034180;
988360;-0.033203;0.037109;1.036133;
988501;-0.035156;0.037109;1.035156;
988631;-0.035156;0.037109;1.035156;
988781;-0.033203;0.037109;1.035156;
988921;-0.034180;0.038086;1.036133;
989071;-0.035156;0.037109;1.036133;
989221;-0.033203;0.038086;1.036133;
989360;-0.034180;0.036133;1.036133;
989501;-0.035156;0.037109;1.037109;
989651;-0.034180;0.036133;1.036133;
989801;-0.035156;0.037109;1.037109;
989952;-0.033203;0.039062;1.036133;
990101;-0.034180;0.039062;1.037109;
990251;-0.034180;0.036133;1.037109;
990401;-0.033203;0.037109;1.037109;
990531;-0.034180;0.036133;1.038086;
990674;-0.032227;0.038086;1.037109;
990826;-0.033203;0.039062;1.038086;
990971;-0.035156;0.039062;1.035156;
991111;-0.033203;0.039062;1.036133;
991251;-0.034180;0.037109;1.036133;
991381;-0.034180;0.036133;1.037109;
991520;-0.035156;0.038086;1.037109;
991665;-0.033203;0.037109;1.035156;
991805;-0.034180;0.038086;1.036133;
991945;-0.034180;0.038086;1.036133;
992085;-0.032227;0.038086;1.036133;
992225;-0.034180;0.037109;1.037109;
992365;-0.035156;0.035156;1.035156;
992505;-0.034180;0.038086;1.036133;
992645;-0.036133;0.037109;1.036133;
992785;-0.034180;0.037109;1.036133;
992925;-0.034180;0.037109;1.035156;
993065;-0.035156;0.036133;1.037109;
993205;-0.034180;0.038086;1.037109;
993355;-0.034180;0.038086;1.037109;
993495;-0.033203;0.038086;1.037109;
993631;-0.033203;0.039062;1.037109;
993761;-0.037109;0.040039;1.046875;
993912;-0.034180;0.040039;1.033203;
994041;-0.033203;0.040039;1.037109;
994180;-0.034180;0.038086;1.037109;
994311;-0.033203;0.037109;1.036133;
994451;-0.034180;0.037109;1.037109;
994605;-0.034180;0.037109;1.034180;
994740;-0.035156;0.038086;1.035156;
994880;-0.034180;0.037109;1.036133;
995021;-0.035156;0.037109;1.036133;
995162;-0.033203;0.038086;1.037109;
995294;-0.034180;0.038086;1.037109;
995435;-0.034180;0.038086;1.036133;
995575;-0.034180;0.037109;1.036133;
995715;-0.035156;0.037109;1.036133;
995850;-0.035156;0.036133;1.036133;
995991;-0.034180;0.038086;1.036133;
996140;-0.035156;0.038086;1.038086;
996285;-0.034180;0.037109;1.035156;
996435;-0.033203;0.039062;1.037109;
996575;-0.032227;0.039062;1.038086;
996715;-0.035156;0.037109;1.036133;
996865;-0.034180;0.038086;1.036133;
997005;-0.034180;0.039062;1.037109;
997145;-0.033203;0.040039;1.034180;
997285;-0.035156;0.037109;1.036133;
997425;-0.033203;0.039062;1.037109;
997565;-0.034180;0.038086;1.037109;
997705;-0.034180;0.036133;1.036133;
997855;-0.034180;0.039062;1.037109;
998000;-0.034180;0.040039;1.037109;
998131;-0.035156;0.037109;1.037109;
998270;-0.033203;0.037109;1.036133;
998405;-0.033203;0.036133;1.035156;
998531;-0.033203;0.038086;1.037109;
998661;-0.033203;0.038086;1.036133;
998802;-0.034180;0.038086;1.035156;
998935;-0.033203;0.038086;1.037109;
999082;-0.032227;0.039062;1.036133;
999222;-0.033203;0.036133;1.035156;
999365;-0.035156;0.037109;1.036133;
999515;-0.033203;0.038086;1.037109;
999655;-0.035156;0.037109;1.035156;
999795;-0.034180;0.036133;1.035156;
999935;-0.034180;0.039062;1.038086;
1000075;-0.034180;0.038086;1.037109;
1000215;-0.034180;0.037109;1.035156;
1000355;-0.035156;0.038086;1.036133;
1000495;-0.034180;0.038086;1.036133;
1000635;-0.035156;0.039062;1.037109;
1000785;-0.034180;0.038086;1.037109;
1000925;-0.034180;0.038086;1.037109;
1001065;-0.034180;0.038086;1.037109;
1001205;-0.033203;0.038086;1.036133;
1001341;-0.033203;0.038086;1.036133;
1001481;-0.034180;0.038086;1.037109;
1001611;-0.033203;0.039062;1.037109;
1001750;-0.033203;0.039062;1.035156;
1001905;-0.034180;0.038086;1.036133;
1002042;-0.034180;0.038086;1.037109;
1002171;-0.034180;0.038086;1.037109;
1002300;-0.033203;0.040039;1.037109;
1002435;-0.035156;0.038086;1.037109;
1002575;-0.033203;0.037109;1.037109;
1002705;-0.034180;0.037109;1.035156;
1002840;-0.035156;0.037109;1.037109;
1002970;-0.034180;0.038086;1.037109;
1003121;-0.033203;0.038086;1.036133;
1003271;-0.034180;0.038086;1.038086;
1003425;-0.033203;0.040039;1.037109;
1003565;-0.034180;0.038086;1.036133;
1003705;-0.033203;0.038086;1.036133;
1003845;-0.034180;0.038086;1.036133;
1003985;-0.033203;0.038086;1.036133;
1004125;-0.034180;0.039062;1.038086;
1004265;-0.033203;0.039062;1.035156;
1004405;-0.033203;0.039062;1.036133;
1004545;-0.035156;0.038086;1.036133;
1004695;-0.034180;0.039062;1.036133;
1004835;-0.033203;0.038086;1.036133;
1004975;-0.034180;0.038086;1.038086;
1005115;-0.033203;0.039062;1.038086;
1005255;-0.034180;0.038086;1.036133;
1005391;-0.035156;0.037109;1.037109;
1005531;-0.035156;0.039062;1.036133;
1005671;-0.034180;0.037109;1.036133;
1005811;-0.034180;0.038086;1.036133;
1005951;-0.034180;0.037109;1.037109;
1006091;-0.035156;0.038086;1.037109;
1006241;-0.035156;0.036133;1.035156;
1006370;-0.034180;0.038086;1.036133;
1006520;-0.034180;0.037109;1.036133;
1006671;-0.033203;0.038086;1.035156;
1006811;-0.035156;0.037109;1.036133;
1006960;-0.034180;0.037109;1.036133;
1007105;-0.035156;0.037109;1.036133;
1007245;-0.034180;0.037109;1.036133;
1007385;-0.034180;0.040039;1.036133;
1007525;-0.033203;0.038086;1.037109;
1007665;-0.033203;0.038086;1.036133;
1007805;-0.036133;0.037109;1.037109;
1007945;-0.034180;0.038086;1.038086;
1008085;-0.033203;0.039062;1.035156;
1008225;-0.033203;0.039062;1.038086;
1008365;-0.033203;0.037109;1.037109;
1008505;-0.032227;0.038086;1.037109;
1008645;-0.034180;0.038086;1.036133;
1008785;-0.034180;0.037109;1.037109;
1008925;-0.034180;0.038086;1.034180;
1009061;-0.034180;0.038086;1.035156;
1009191;-0.035156;0.037109;1.037109;
1009330;-0.035156;0.038086;1.036133;
1009461;-0.034180;0.038086;1.036133;
1009601;-0.035156;0.036133;1.036133;
1009751;-0.034180;0.038086;1.035156;
1009901;-0.034180;0.038086;1.037109;
1010040;-0.034180;0.037109;1.037109;
1010191;-0.033203;0.039062;1.037109;
1010345;-0.034180;0.037109;1.037109;
1010485;-0.033203;0.039062;1.038086;
1010625;-0.032227;0.037109;1.037109;
1010765;-0.034180;0.038086;1.035156;
1010905;-0.034180;0.038086;1.036133;
1011045;-0.033203;0.037109;1.036133;
1011185;-0.034180;0.036133;1.038086;
1011335;-0.033203;0.038086;1.036133;
1011475;-0.035156;0.038086;1.036133;
1011615;-0.034180;0.039062;1.037109;
1011755;-0.034180;0.037109;1.035156;
1011895;-0.034180;0.037109;1.037109;
1012045;-0.034180;0.038086;1.037109;
1012185;-0.034180;0.038086;1.037109;
1012321;-0.034180;0.040039;1.037109;
1012461;-0.033203;0.040039;1.037109;
1012610;-0.035156;0.038086;1.036133;
1012751;-0.035156;0.038086;1.036133;
1012880;-0.034180;0.038086;1.036133;
1013021;-0.034180;0.037109;1.037109;
1013151;-0.034180;0.037109;1.037109;
1013282;-0.034180;0.038086;1.035156;
1013415;-0.034180;0.039062;1.036133;
1013551;-0.033203;0.038086;1.037109;
1013691;-0.035156;0.038086;1.037109;
1013845;-0.035156;0.038086;1.036133;
1013995;-0.034180;0.038086;1.037109;
1014135;-0.033203;0.038086;1.036133;
1014275;-0.036133;0.036133;1.036133;
1014415;-0.035156;0.036133;1.036133;
1014555;-0.035156;0.038086;1.036133;
1014695;-0.034180;0.038086;1.038086;
1014835;-0.034180;0.036133;1.035156;
1014975;-0.035156;0.036133;1.038086;
1015115;-0.034180;0.037109;1.036133;
1015255;-0.035156;0.038086;1.035156;
1015395;-0.034180;0.038086;1.037109;
1015545;-0.033203;0.037109;1.035156;
1015685;-0.034180;0.037109;1.036133;
1015821;-0.035156;0.036133;1.036133;
1015951;-0.035156;0.037109;1.037109;
1016102;-0.034180;0.038086;1.036133;
1016252;-0.035156;0.038086;1.037109;
1016401;-0.034180;0.036133;1.036133;
1016545;-0.033203;0.039062;1.037109;
1016685;-0.032227;0.039062;1.037109;
1016825;-0.035156;0.037109;1.037109;
1016961;-0.033203;0.038086;1.035156;
1017111;-0.034180;0.037109;1.037109;
1017261;-0.035156;0.038086;1.036133;
1017411;-0.032227;0.039062;1.036133;
1017545;-0.035156;0.036133;1.036133;
1017685;-0.033203;0.038086;1.035156;
1017825;-0.035156;0.037109;1.037109;
1017965;-0.035156;0.037109;1.038086;
1018105;-0.034180;0.038086;1.036133;
1018255;-0.034180;0.038086;1.035156;
1018395;-0.033203;0.037109;1.035156;
1018535;-0.034180;0.037109;1.036133;
1018685;-0.033203;0.034180;1.036133;
1018825;-0.034180;0.038086;1.036133;
1018975;-0.034180;0.037109;1.035156;
1019115;-0.033203;0.040039;1.037109;
1019255;-0.034180;0.037109;1.037109;
1019395;-0.032227;0.038086;1.037109;
1019535;-0.034180;0.038086;1.036133;
1019661;-0.034180;0.037109;1.035156;
1019791;-0.034180;0.038086;1.038086;
1019931;-0.034180;0.038086;1.036133;
1020071;-0.033203;0.037109;1.035156;
1020211;-0.035156;0.037109;1.036133;
1020361;-0.035156;0.038086;1.036133;
1020510;-0.034180;0.036133;1.035156;
1020650;-0.034180;0.037109;1.036133;
1020780;-0.034180;0.035156;1.038086;
1020915;-0.034180;0.038086;1.037109;
1021065;-0.033203;0.037109;1.036133;
1021190;-0.032227;0.038086;1.036133;
1021335;-0.033203;0.036133;1.036133;
1021475;-0.034180;0.036133;1.036133;
1021615;-0.034180;0.037109;1.036133;
1021755;-0.034180;0.038086;1.037109;
1021905;-0.034180;0.039062;1.037109;
1022045;-0.033203;0.036133;1.035156;
1022185;-0.034180;0.037109;1.035156;
1022325;-0.033203;0.038086;1.037109;
1022465;-0.035156;0.037109;1.036133;
1022605;-0.034180;0.038086;1.037109;
1022745;-0.034180;0.037109;1.037109;
1022885;-0.035156;0.036133;1.037109;
1023025;-0.033203;0.037109;1.037109;
1023175;-0.033203;0.038086;1.037109;
1023311;-0.034180;0.037109;1.037109;
1023465;-0.034180;0.039062;1.037109;
1023600;-0.035156;0.038086;1.037109;
1023731;-0.034180;0.038086;1.038086;
1023860;-0.033203;0.038086;1.035156;
1024011;-0.034180;0.039062;1.037109;
1024160;-0.034180;0.038086;1.035156;
1024313;-0.034180;0.038086;1.038086;
1024461;-0.033203;0.036133;1.037109;
1024595;-0.035156;0.036133;1.036133;
1024735;-0.034180;0.038086;1.037109;
1024885;-0.034180;0.037109;1.036133;
1025025;-0.035156;0.038086;1.035156;
1025165;-0.034180;0.035156;1.035156;
1025305;-0.035156;0.037109;1.037109;
1025445;-0.035156;0.037109;1.036133;
1025585;-0.034180;0.038086;1.037109;
1025725;-0.033203;0.038086;1.036133;
1025865;-0.034180;0.039062;1.036133;
1026005;-0.035156;0.038086;1.037109;
1026145;-0.034180;0.039062;1.037109;
1026285;-0.033203;0.038086;1.036133;
1026435;-0.033203;0.038086;1.038086;
1026571;-0.034180;0.039062;1.036133;
1026722;-0.034180;0.039062;1.034180;
1026872;-0.033203;0.039062;1.037109;
1027010;-0.035156;0.038086;1.035156;
1027150;-0.034180;0.037109;1.039062;
1027291;-0.035156;0.038086;1.036133;
1027441;-0.035156;0.037109;1.035156;
1027590;-0.033203;0.036133;1.035156;
1027735;-0.034180;0.037109;1.036133;
1027885;-0.034180;0.038086;1.034180;
1028025;-0.034180;0.037109;1.036133;
1028165;-0.034180;0.039062;1.039062;
1028315;-0.034180;0.038086;1.037109;
1028455;-0.034180;0.039062;1.036133;
1028595;-0.033203;0.038086;1.035156;
1028735;-0.033203;0.038086;1.036133;
1028875;-0.035156;0.037109;1.038086;
1029015;-0.034180;0.036133;1.036133;
1029155;-0.034180;0.037109;1.036133;
1029295;-0.035156;0.038086;1.034180;
1029435;-0.034180;0.038086;1.037109;
1029575;-0.034180;0.038086;1.034180;
1029712;-0.034180;0.038086;1.036133;
1029860;-0.035156;0.037109;1.036133;
1030012;-0.034180;0.038086;1.034180;
1030151;-0.034180;0.037109;1.036133;
1030291;-0.034180;0.037109;1.036133;
1030431;-0.033203;0.037109;1.035156;
1030582;-0.035156;0.037109;1.037109;
1030735;-0.035156;0.038086;1.036133;
1030885;-0.033203;0.037109;1.036133;
1031015;-0.035156;0.037109;1.037109;
1031141;-0.035156;0.036133;1.035156;
1031275;-0.034180;0.036133;1.037109;
1031415;-0.035156;0.037109;1.035156;
1031555;-0.034180;0.037109;1.037109;
1031695;-0.033203;0.038086;1.034180;
1031845;-0.034180;0.037109;1.036133;
1031985;-0.034180;0.038086;1.036133;
1032135;-0.034180;0.038086;1.035156;
1032275;-0.034180;0.037109;1.038086;
1032415;-0.033203;0.036133;1.034180;
1032565;-0.035156;0.037109;1.037109;
1032705;-0.035156;0.036133;1.035156;
1032845;-0.034180;0.038086;1.035156;
1032995;-0.034180;0.037109;1.036133;
1033135;-0.034180;0.036133;1.036133;
1033271;-0.033203;0.039062;1.037109;
1033411;-0.035156;0.038086;1.036133;
1033560;-0.034180;0.038086;1.037109;
1033714;-0.034180;0.037109;1.035156;
1033861;-0.034180;0.038086;1.036133;
1034001;-0.034180;0.039062;1.036133;
1034151;-0.032227;0.037109;1.036133;
1034280;-0.034180;0.038086;1.038086;
1034425;-0.035156;0.037109;1.038086;
1034560;-0.033203;0.039062;1.035156;
1034715;-0.034180;0.037109;1.039062;
1034865;-0.034180;0.037109;1.036133;
1035005;-0.033203;0.038086;1.036133;
1035145;-0.035156;0.037109;1.036133;
1035285;-0.035156;0.037109;1.037109;
1035425;-0.035156;0.038086;1.036133;
1035565;-0.033203;0.037109;1.037109;
1035705;-0.035156;0.038086;1.037109;
1035845;-0.035156;0.037109;1.035156;
1035985;-0.034180;0.037109;1.036133;
1036125;-0.033203;0.038086;1.035156;
1036265;-0.034180;0.038086;1.036133;
1036405;-0.034180;0.038086;1.037109;
1036545;-0.034180;0.037109;1.036133;
1036681;-0.034180;0.037109;1.036133;
1036821;-0.034180;0.036133;1.036133;
1036971;-0.034180;0.037109;1.035156;
1037101;-0.035156;0.037109;1.036133;
1037241;-0.034180;0.037109;1.036133;
1037370;-0.034180;0.038086;1.036133;
1037511;-0.034180;0.038086;1.036133;
1037650;-0.035156;0.037109;1.037109;
1037791;-0.035156;0.036133;1.037109;
1037920;-0.034180;0.036133;1.036133;
1038065;-0.034180;0.038086;1.036133;
1038205;-0.034180;0.038086;1.037109;
1038345;-0.033203;0.037109;1.035156;
1038485;-0.034180;0.037109;1.035156;
1038625;-0.034180;0.038086;1.037109;
1038765;-0.034180;0.037109;1.035156;
1038905;-0.034180;0.038086;1.036133;
1039045;-0.034180;0.038086;1.037109;
1039185;-0.035156;0.038086;1.036133;
1039325;-0.034180;0.038086;1.035156;
1039465;-0.034180;0.039062;1.035156;
1039605;-0.034180;0.037109;1.036133;
1039745;-0.033203;0.038086;1.037109;
1039885;-0.033203;0.038086;1.035156;
1040022;-0.035156;0.037109;1.037109;
1040161;-0.033203;0.039062;1.038086;
1040301;-0.034180;0.038086;1.038086;
1040441;-0.034180;0.038086;1.037109;
1040581;-0.034180;0.039062;1.037109;
1040710;-0.035156;0.038086;1.036133;
1040840;-0.033203;0.037109;1.036133;
1040991;-0.033203;0.037109;1.036133;
1041122;-0.034180;0.038086;1.038086;
1041265;-0.034180;0.037109;1.038086;
1041405;-0.033203;0.038086;1.036133;
1041545;-0.033203;0.039062;1.037109;
1041685;-0.033203;0.037109;1.036133;
1041825;-0.034180;0.038086;1.036133;
1041965;-0.036133;0.036133;1.037109;
1042105;-0.034180;0.037109;1.037109;
1042245;-0.033203;0.038086;1.037109;
1042385;-0.033203;0.039062;1.036133;
1042525;-0.034180;0.038086;1.037109;
1042665;-0.034180;0.037109;1.037109;
1042815;-0.034180;0.036133;1.036133;
1042955;-0.033203;0.038086;1.035156;
1043105;-0.035156;0.037109;1.036133;
1043241;-0.034180;0.039062;1.038086;
1043382;-0.033203;0.038086;1.037109;
1043530;-0.033203;0.037109;1.036133;
1043671;-0.035156;0.038086;1.037109;
1043824;-0.034180;0.038086;1.037109;
1043961;-0.033203;0.037109;1.036133;
1044101;-0.034180;0.038086;1.036133;
1044231;-0.035156;0.036133;1.038086;
1044361;-0.035156;0.037109;1.036133;
1044502;-0.033203;0.038086;1.036133;
1044655;-0.034180;0.038086;1.038086;
1044795;-0.034180;0.038086;1.037109;
1044935;-0.033203;0.038086;1.037109;
1045085;-0.035156;0.037109;1.037109;
1045225;-0.035156;0.038086;1.036133;
1045365;-0.033203;0.040039;1.036133;
1045505;-0.034180;0.038086;1.038086;
1045645;-0.033203;0.037109;1.036133;
1045785;-0.033203;0.037109;1.035156;
1045925;-0.035156;0.037109;1.036133;
1046065;-0.035156;0.036133;1.036133;
1046205;-0.035156;0.036133;1.036133;
1046345;-0.034180;0.037109;1.037109;
1046485;-0.034180;0.038086;1.035156;
1046621;-0.034180;0.039062;1.036133;
1046760;-0.034180;0.037109;1.037109;
1046891;-0.034180;0.036133;1.036133;
1047031;-0.034180;0.036133;1.036133;
1047160;-0.035156;0.037109;1.037109;
1047300;-0.035156;0.038086;1.037109;
1047441;-0.033203;0.038086;1.035156;
1047571;-0.033203;0.039062;1.036133;
1047700;-0.033203;0.037109;1.036133;
1047840;-0.034180;0.038086;1.036133;
1047995;-0.034180;0.038086;1.035156;
1048145;-0.034180;0.038086;1.037109;
1048285;-0.033203;0.040039;1.036133;
1048435;-0.034180;0.037109;1.036133;
1048575;-0.035156;0.037109;1.036133;
1048715;-0.034180;0.037109;1.038086;
1048865;-0.034180;0.038086;1.036133;
1049005;-0.033203;0.039062;1.037109;
1049145;-0.034180;0.037109;1.037109;
1049295;-0.032227;0.039062;1.035156;
1049435;-0.034180;0.038086;1.036133;
1049575;-0.035156;0.037109;1.038086;
1049715;-0.033203;0.038086;1.036133;
1049855;-0.033203;0.038086;1.035156;
1049995;-0.034180;0.037109;1.036133;
1050131;-0.035156;0.039062;1.037109;
1050261;-0.034180;0.037109;1.036133;
1050401;-0.035156;0.037109;1.036133;
1050542;-0.034180;0.037109;1.036133;
1050681;-0.033203;0.038086;1.038086;
1050821;-0.034180;0.038086;1.037109;
1050971;-0.034180;0.039062;1.036133;
1051110;-0.032227;0.037109;1.037109;
1051261;-0.035156;0.037109;1.036133;
1051400;-0.034180;0.036133;1.035156;
1051545;-0.035156;0.038086;1.038086;
1051685;-0.034180;0.038086;1.038086;
1051825;-0.034180;0.039062;1.035156;
1051965;-0.034180;0.038086;1.038086;
1052105;-0.034180;0.036133;1.035156;
1052255;-0.035156;0.037109;1.037109;
1052395;-0.033203;0.038086;1.036133;
1052535;-0.034180;0.038086;1.037109;
1052675;-0.032227;0.039062;1.037109;
1052815;-0.033203;0.038086;1.038086;
1052965;-0.033203;0.038086;1.038086;
1053105;-0.033203;0.039062;1.036133;
1053245;-0.035156;0.036133;1.035156;
1053395;-0.034180;0.036133;1.036133;
1053525;-0.032227;0.037109;1.036133;
1053661;-0.033203;0.039062;1.037109;
1053801;-0.035156;0.037109;1.036133;
1053950;-0.034180;0.036133;1.035156;
1054090;-0.034180;0.037109;1.038086;
1054232;-0.034180;0.035156;1.035156;
1054370;-0.033203;0.036133;1.037109;
1054511;-0.034180;0.038086;1.036133;
1054642;-0.035156;0.038086;1.037109;
1054795;-0.034180;0.038086;1.035156;
1054935;-0.034180;0.037109;1.037109;
1055075;-0.033203;0.037109;1.037109;
1055225;-0.033203;0.037109;1.036133;
1055365;-0.033203;0.037109;1.036133;
1055505;-0.034180;0.038086;1.035156;
1055645;-0.035156;0.038086;1.037109;
1055785;-0.034180;0.036133;1.037109;
1055925;-0.035156;0.038086;1.036133;
1056075;-0.032227;0.037109;1.037109;
1056215;-0.034180;0.036133;1.036133;
1056355;-0.033203;0.038086;1.035156;
1056495;-0.034180;0.039062;1.037109;
1056635;-0.033203;0.037109;1.037109;
1056771;-0.034180;0.037109;1.035156;
1056921;-0.034180;0.037109;1.038086;
1057061;-0.034180;0.038086;1.037109;
1057212;-0.034180;0.039062;1.037109;
1057361;-0.035156;0.037109;1.034180;
1057511;-0.034180;0.038086;1.037109;
1057651;-0.033203;0.039062;1.036133;
1057790;-0.034180;0.039062;1.039062;
1057935;-0.034180;0.037109;1.036133;
1058075;-0.032227;0.037109;1.036133;
1058215;-0.033203;0.037109;1.037109;
1058355;-0.034180;0.037109;1.035156;
1058495;-0.036133;0.037109;1.036133;
1058635;-0.035156;0.039062;1.037109;
1058775;-0.033203;0.037109;1.035156;
1058915;-0.034180;0.038086;1.036133;
1059055;-0.033203;0.038086;1.038086;
1059195;-0.033203;0.037109;1.037109;
1059335;-0.035156;0.037109;1.038086;
1059485;-0.033203;0.039062;1.037109;
1059635;-0.033203;0.040039;1.036133;
1059775;-0.032227;0.039062;1.036133;
1059911;-0.033203;0.038086;1.036133;
1060051;-0.035156;0.038086;1.036133;
1060180;-0.035156;0.035156;1.036133;
1060320;-0.035156;0.037109;1.037109;
1060471;-0.035156;0.037109;1.035156;
1060611;-0.034180;0.037109;1.037109;
1060741;-0.034180;0.036133;1.037109;
1060881;-0.035156;0.037109;1.035156;
1061012;-0.035156;0.038086;1.037109;
1061150;-0.034180;0.039062;1.038086;
1061295;-0.034180;0.037109;1.035156;
1061435;-0.034180;0.037109;1.037109;
1061575;-0.034180;0.037109;1.036133;
1061715;-0.033203;0.037109;1.035156;
1061865;-0.033203;0.037109;1.034180;
1062005;-0.034180;0.038086;1.037109;
1062145;-0.034180;0.039062;1.036133;
1062285;-0.034180;0.036133;1.035156;
1062425;-0.032227;0.037109;1.036133;
1062565;-0.035156;0.039062;1.037109;
1062705;-0.035156;0.037109;1.038086;
1062845;-0.034180;0.038086;1.035156;
1062985;-0.034180;0.038086;1.037109;
1063125;-0.034180;0.037109;1.036133;
1063261;-0.033203;0.037109;1.037109;
1063401;-0.033203;0.036133;1.036133;
1063551;-0.035156;0.037109;1.036133;
1063691;-0.036133;0.038086;1.037109;
1063831;-0.034180;0.038086;1.034180;
1063965;-0.034180;0.035156;1.035156;
1064103;-0.035156;0.037109;1.036133;
1064245;-0.034180;0.036133;1.036133;
1064375;-0.033203;0.039062;1.037109;
1064510;-0.035156;0.038086;1.036133;
1064641;-0.035156;0.037109;1.037109;
1064781;-0.033203;0.039062;1.036133;
1064925;-0.034180;0.036133;1.038086;
1065065;-0.032227;0.036133;1.036133;
1065215;-0.035156;0.036133;1.036133;
1065355;-0.034180;0.036133;1.037109;
1065495;-0.034180;0.037109;1.035156;
1065645;-0.035156;0.038086;1.037109;
1065785;-0.032227;0.038086;1.036133;
1065925;-0.032227;0.039062;1.037109;
1066065;-0.033203;0.037109;1.037109;
1066205;-0.035156;0.037109;1.036133;
1066355;-0.034180;0.037109;1.035156;
1066495;-0.034180;0.037109;1.035156;
1066635;-0.033203;0.037109;1.037109;
1066775;-0.033203;0.038086;1.036133;
1066911;-0.034180;0.038086;1.036133;
1067050;-0.033203;0.037109;1.036133;
1067205;-0.034180;0.037109;1.037109;
1067340;-0.035156;0.038086;1.035156;
1067485;-0.035156;0.038086;1.036133;
1067633;-0.035156;0.040039;1.036133;
1067775;-0.033203;0.037109;1.036133;
1067900;-0.034180;0.037109;1.035156;
1068043;-0.034180;0.038086;1.036133;
1068190;-0.035156;0.037109;1.036133;
1068341;-0.033203;0.040039;1.035156;
1068493;-0.033203;0.038086;1.038086;
1068641;-0.033203;0.038086;1.037109;
1068781;-0.034180;0.038086;1.037109;
1068915;-0.034180;0.038086;1.037109;
1069055;-0.033203;0.037109;1.036133;
1069195;-0.034180;0.037109;1.035156;
1069335;-0.035156;0.037109;1.036133;
1069475;-0.034180;0.038086;1.036133;
1069615;-0.034180;0.038086;1.035156;
1069755;-0.034180;0.037109;1.036133;
1069895;-0.035156;0.037109;1.035156;
1070035;-0.035156;0.037109;1.035156;
1070185;-0.033203;0.038086;1.035156;
1070325;-0.033203;0.036133;1.035156;
1070465;-0.034180;0.035156;1.035156;
1070615;-0.035156;0.037109;1.039062;
1070755;-0.034180;0.038086;1.036133;
1070901;-0.035156;0.038086;1.036133;
1071041;-0.034180;0.037109;1.037109;
1071191;-0.034180;0.037109;1.037109;
1071341;-0.033203;0.038086;1.036133;
1071492;-0.034180;0.038086;1.038086;
1071631;-0.034180;0.038086;1.037109;
1071780;-0.035156;0.037109;1.036133;
1071925;-0.033203;0.041016;1.037109;
1072065;-0.035156;0.038086;1.036133;
1072205;-0.033203;0.037109;1.035156;
1072345;-0.035156;0.038086;1.037109;
1072495;-0.033203;0.037109;1.038086;
1072635;-0.032227;0.037109;1.037109;
1072775;-0.033203;0.036133;1.037109;
1072915;-0.034180;0.039062;1.037109;
1073055;-0.036133;0.036133;1.037109;
1073195;-0.036133;0.038086;1.036133;
1073335;-0.034180;0.038086;1.036133;
1073475;-0.034180;0.037109;1.038086;
1073615;-0.032227;0.038086;1.038086;
1073755;-0.033203;0.039062;1.035156;
1073890;-0.034180;0.037109;1.037109;
1074031;-0.034180;0.039062;1.035156;
1074170;-0.036133;0.037109;1.037109;
1074321;-0.033203;0.038086;1.037109;
1074460;-0.034180;0.037109;1.034180;
1074601;-0.033203;0.037109;1.036133;
1074741;-0.034180;0.037109;1.037109;
1074881;-0.034180;0.038086;1.036133;
1075031;-0.034180;0.037109;1.036133;
1075160;-0.034180;0.038086;1.035156;
1075315;-0.035156;0.036133;1.037109;
1075455;-0.033203;0.037109;1.036133;
1075595;-0.034180;0.038086;1.036133;
1075735;-0.034180;0.037109;1.036133;
1075875;-0.034180;0.039062;1.036133;
1076015;-0.034180;0.038086;1.038086;
1076155;-0.034180;0.039062;1.035156;
1076295;-0.034180;0.038086;1.036133;
1076435;-0.034180;0.038086;1.037109;
1076575;-0.034180;0.038086;1.036133;
1076715;-0.034180;0.037109;1.036133;
1076865;-0.033203;0.038086;1.036133;
1077005;-0.034180;0.038086;1.036133;
1077145;-0.034180;0.037109;1.036133;
1077283;-0.033203;0.036133;1.036133;
1077420;-0.034180;0.038086;1.037109;
1077551;-0.034180;0.037109;1.037109;
1077690;-0.033203;0.038086;1.035156;
1077821;-0.034180;0.038086;1.037109;
1077962;-0.033203;0.036133;1.036133;
1078102;-0.034180;0.037109;1.036133;
1078251;-0.034180;0.035156;1.038086;
1078391;-0.034180;0.039062;1.037109;
1078535;-0.033203;0.038086;1.037109;
1078671;-0.033203;0.039062;1.037109;
1078810;-0.035156;0.037109;1.036133;
1078955;-0.034180;0.038086;1.035156;
1079095;-0.034180;0.038086;1.037109;
1079235;-0.033203;0.038086;1.037109;
1079375;-0.035156;0.037109;1.038086;
1079515;-0.035156;0.037109;1.036133;
1079655;-0.034180;0.038086;1.037109;
1079805;-0.033203;0.038086;1.036133;
1079945;-0.036133;0.036133;1.035156;
1080085;-0.034180;0.039062;1.038086;
1080225;-0.035156;0.036133;1.036133;
1080365;-0.034180;0.037109;1.037109;
1080505;-0.032227;0.038086;1.038086;
1080645;-0.033203;0.038086;1.039062;
1080785;-0.035156;0.037109;1.036133;
1080921;-0.032227;0.038086;1.035156;
1081072;-0.034180;0.038086;1.035156;
1081211;-0.034180;0.037109;1.036133;
1081361;-0.034180;0.036133;1.036133;
1081505;-0.034180;0.036133;1.036133;
1081641;-0.033203;0.037109;1.037109;
1081781;-0.033203;0.038086;1.035156;
1081921;-0.035156;0.037109;1.037109;
1082072;-0.033203;0.038086;1.036133;
1082220;-0.033203;0.038086;1.036133;
1082355;-0.033203;0.038086;1.038086;
1082495;-0.035156;0.036133;1.037109;
1082635;-0.034180;0.038086;1.036133;
1082785;-0.034180;0.037109;1.037109;
1082925;-0.034180;0.037109;1.036133;
1083065;-0.034180;0.036133;1.036133;
1083215;-0.034180;0.038086;1.036133;
1083355;-0.034180;0.037109;1.036133;
1083495;-0.033203;0.038086;1.037109;
1083635;-0.033203;0.038086;1.036133;
1083775;-0.034180;0.038086;1.036133;
1083915;-0.033203;0.037109;1.035156;
1084055;-0.033203;0.038086;1.036133;
1084195;-0.035156;0.038086;1.038086;
1084331;-0.033203;0.037109;1.037109;
1084461;-0.033203;0.038086;1.037109;
1084591;-0.033203;0.039062;1.036133;
1084730;-0.032227;0.038086;1.036133;
1084870;-0.034180;0.038086;1.036133;
1085020;-0.033203;0.038086;1.036133;
1085151;-0.033203;0.038086;1.037109;
1085294;-0.034180;0.038086;1.037109;
1085441;-0.034180;0.039062;1.036133;
1085582;-0.035156;0.038086;1.037109;
1085735;-0.034180;0.038086;1.035156;
1085875;-0.034180;0.036133;1.036133;
1086015;-0.033203;0.039062;1.037109;
1086155;-0.033203;0.040039;1.037109;
1086295;-0.033203;0.039062;1.036133;
1086435;-0.033203;0.038086;1.038086;
1086575;-0.034180;0.037109;1.036133;
1086715;-0.035156;0.038086;1.035156;
1086855;-0.034180;0.038086;1.037109;
1086995;-0.034180;0.037109;1.035156;
1087135;-0.034180;0.037109;1.037109;
1087275;-0.033203;0.037109;1.036133;
1087415;-0.034180;0.038086;1.037109;
1087555;-0.033203;0.038086;1.036133;
1087691;-0.033203;0.037109;1.036133;
1087835;-0.035156;0.038086;1.037109;
1087975;-0.033203;0.038086;1.035156;
1088105;-0.034180;0.039062;1.036133;
1088231;-0.033203;0.038086;1.035156;
1088372;-0.034180;0.038086;1.036133;
1088521;-0.033203;0.038086;1.037109;
1088671;-0.035156;0.037109;1.037109;
1088821;-0.035156;0.035156;1.035156;
1088951;-0.035156;0.038086;1.037109;
1089101;-0.034180;0.036133;1.037109;
1089235;-0.034180;0.038086;1.035156;
1089375;-0.034180;0.038086;1.036133;
1089515;-0.035156;0.037109;1.037109;
1089665;-0.033203;0.037109;1.037109;
1089805;-0.034180;0.037109;1.036133;
1089945;-0.034180;0.037109;1.038086;
1090095;-0.034180;0.037109;1.036133;
1090235;-0.033203;0.039062;1.037109;
1090375;-0.035156;0.038086;1.037109;
1090515;-0.033203;0.038086;1.035156;
1090655;-0.034180;0.038086;1.036133;
1090795;-0.034180;0.038086;1.036133;
1090945;-0.033203;0.038086;1.036133;
1091085;-0.035156;0.036133;1.038086;
1091220;-0.033203;0.039062;1.037109;
1091371;-0.034180;0.039062;1.036133;
1091511;-0.034180;0.037109;1.037109;
1091655;-0.035156;0.038086;1.035156;
1091781;-0.034180;0.038086;1.037109;
1091910;-0.033203;0.038086;1.037109;
1092050;-0.034180;0.038086;1.036133;
1092191;-0.034180;0.037109;1.037109;
1092320;-0.036133;0.039062;1.036133;
1092450;-0.033203;0.037109;1.036133;
1092603;-0.034180;0.036133;1.036133;
1092741;-0.036133;0.036133;1.036133;
1092891;-0.034180;0.037109;1.036133;
1093045;-0.033203;0.038086;1.037109;
1093185;-0.034180;0.038086;1.037109;
1093325;-0.034180;0.038086;1.038086;
1093465;-0.034180;0.038086;1.038086;
1093605;-0.033203;0.038086;1.037109;
1093745;-0.033203;0.038086;1.036133;
1093885;-0.035156;0.038086;1.036133;
1094025;-0.034180;0.039062;1.037109;
1094165;-0.034180;0.039062;1.036133;
1094315;-0.034180;0.038086;1.037109;
1094455;-0.034180;0.038086;1.035156;
1094595;-0.035156;0.038086;1.036133;
1094735;-0.035156;0.036133;1.036133;
1094875;-0.034180;0.037109;1.035156;
1095011;-0.035156;0.037109;1.035156;
1095150;-0.034180;0.037109;1.037109;
1095290;-0.034180;0.038086;1.037109;
1095445;-0.034180;0.038086;1.037109;
1095571;-0.034180;0.036133;1.036133;
1095713;-0.033203;0.039062;1.037109;
1095861;-0.033203;0.038086;1.037109;
1096001;-0.034180;0.039062;1.038086;
1096141;-0.033203;0.039062;1.037109;
1096281;-0.034180;0.036133;1.037109;
1096420;-0.034180;0.036133;1.036133;
1096565;-0.034180;0.037109;1.035156;
1096705;-0.034180;0.037109;1.036133;
1096845;-0.034180;0.037109;1.037109;
1096985;-0.034180;0.037109;1.036133;
1097125;-0.034180;0.037109;1.037109;
1097265;-0.034180;0.037109;1.037109;
1097405;-0.034180;0.037109;1.035156;
1097545;-0.036133;0.036133;1.035156;
1097685;-0.034180;0.039062;1.037109;
1097825;-0.033203;0.037109;1.036133;
1097965;-0.033203;0.040039;1.037109;
1098105;-0.034180;0.037109;1.036133;
1098245;-0.034180;0.039062;1.035156;
1098385;-0.033203;0.038086;1.037109;
1098521;-0.034180;0.038086;1.036133;
1098662;-0.034180;0.038086;1.036133;
1098811;-0.034180;0.039062;1.037109;
1098952;-0.034180;0.038086;1.036133;
1099085;-0.034180;0.036133;1.035156;
1099221;-0.034180;0.038086;1.037109;
1099372;-0.034180;0.038086;1.037109;
1099523;-0.034180;0.037109;1.035156;
1099662;-0.034180;0.037109;1.038086;
1099811;-0.033203;0.038086;1.036133;
1099961;-0.033203;0.037109;1.038086;
1100100;-0.035156;0.037109;1.036133;
1100255;-0.034180;0.038086;1.035156;
1100405;-0.034180;0.038086;1.038086;
1100545;-0.035156;0.039062;1.036133;
1100685;-0.033203;0.039062;1.037109;
1100825;-0.034180;0.038086;1.036133;
1100965;-0.033203;0.037109;1.038086;
1101105;-0.033203;0.038086;1.037109;
1101245;-0.034180;0.037109;1.035156;
1101385;-0.033203;0.039062;1.038086;
1101525;-0.034180;0.037109;1.035156;
1101665;-0.033203;0.039062;1.038086;
1101805;-0.034180;0.038086;1.037109;
1101945;-0.033203;0.038086;1.038086;
1102085;-0.033203;0.037109;1.037109;
1102221;-0.033203;0.038086;1.035156;
1102361;-0.033203;0.036133;1.038086;
1102511;-0.035156;0.037109;1.037109;
1102651;-0.034180;0.036133;1.037109;
1102785;-0.034180;0.038086;1.036133;
1102925;-0.034180;0.037109;1.036133;
1103061;-0.034180;0.038086;1.038086;
1103201;-0.034180;0.038086;1.035156;
1103351;-0.034180;0.038086;1.038086;
1103501;-0.033203;0.037109;1.036133;
1103631;-0.034180;0.037109;1.037109;
1103782;-0.034180;0.037109;1.037109;
1103935;-0.033203;0.037109;1.034180;
1104075;-0.034180;0.039062;1.037109;
1104215;-0.035156;0.039062;1.037109;
1104355;-0.033203;0.037109;1.036133;
1104505;-0.033203;0.037109;1.036133;
1104645;-0.034180;0.036133;1.036133;
1104785;-0.034180;0.038086;1.037109;
1104935;-0.032227;0.039062;1.036133;
1105075;-0.034180;0.038086;1.037109;
1105215;-0.033203;0.038086;1.037109;
1105355;-0.033203;0.039062;1.036133;
1105495;-0.035156;0.038086;1.038086;
1105635;-0.035156;0.038086;1.036133;
1105775;-0.033203;0.039062;1.036133;
1105911;-0.034180;0.039062;1.037109;
1106051;-0.032227;0.038086;1.037109;
1106191;-0.033203;0.038086;1.036133;
1106321;-0.033203;0.039062;1.037109;
1106460;-0.035156;0.038086;1.037109;
1106602;-0.034180;0.037109;1.037109;
1106741;-0.033203;0.039062;1.037109;
1106890;-0.034180;0.037109;1.036133;
1107033;-0.033203;0.038086;1.036133;
1107175;-0.034180;0.036133;1.036133;
1107325;-0.033203;0.038086;1.037109;
1107465;-0.033203;0.039062;1.036133;
1107605;-0.034180;0.039062;1.038086;
1107745;-0.034180;0.038086;1.037109;
1107885;-0.034180;0.037109;1.038086;
1108025;-0.033203;0.037109;1.037109;
1108165;-0.033203;0.036133;1.035156;
1108305;-0.034180;0.039062;1.036133;
1108445;-0.034180;0.037109;1.036133;
1108585;-0.034180;0.037109;1.036133;
1108725;-0.034180;0.038086;1.038086;
1108875;-0.033203;0.039062;1.037109;
1109015;-0.033203;0.038086;1.035156;
1109141;-0.034180;0.036133;1.036133;
1109282;-0.034180;0.038086;1.037109;
1109431;-0.034180;0.038086;1.037109;
1109570;-0.034180;0.037109;1.036133;
1109710;-0.033203;0.038086;1.038086;
1109865;-0.034180;0.037109;1.037109;
1110015;-0.035156;0.037109;1.036133;
1110162;-0.034180;0.037109;1.037109;
1110311;-0.035156;0.038086;1.036133;
1110445;-0.033203;0.037109;1.035156;
1110585;-0.034180;0.037109;1.037109;
1110725;-0.035156;0.038086;1.035156;
1110865;-0.032227;0.037109;1.037109;
1111005;-0.033203;0.037109;1.035156;
1111145;-0.034180;0.037109;1.036133;
1111295;-0.033203;0.038086;1.037109;
1111435;-0.035156;0.039062;1.036133;
1111575;-0.032227;0.038086;1.036133;
1111715;-0.033203;0.039062;1.034180;
1111855;-0.034180;0.036133;1.037109;
1111995;-0.034180;0.037109;1.036133;
1112135;-0.035156;0.037109;1.037109;
1112275;-0.034180;0.038086;1.037109;
1112412;-0.034180;0.038086;1.035156;
1112540;-0.034180;0.037109;1.039062;
1112680;-0.033203;0.037109;1.036133;
1112820;-0.033203;0.038086;1.036133;
1112971;-0.034180;0.039062;1.038086;
1113111;-0.034180;0.036133;1.035156;
1113253;-0.034180;0.038086;1.038086;
1113402;-0.034180;0.037109;1.036133;
1113530;-0.033203;0.038086;1.036133;
1113681;-0.034180;0.037109;1.037109;
1113835;-0.034180;0.037109;1.035156;
1113975;-0.035156;0.038086;1.037109;
1114115;-0.035156;0.037109;1.036133;
1114255;-0.035156;0.038086;1.036133;
1114395;-0.034180;0.039062;1.038086;
1114535;-0.033203;0.037109;1.035156;
1114675;-0.034180;0.038086;1.038086;
1114815;-0.035156;0.037109;1.036133;
1114955;-0.034180;0.038086;1.038086;
1115095;-0.034180;0.036133;1.036133;
1115235;-0.033203;0.037109;1.036133;
1115375;-0.034180;0.038086;1.037109;
1115515;-0.033203;0.038086;1.035156;
1115655;-0.033203;0.038086;1.037109;
1115790;-0.036133;0.038086;1.037109;
1115941;-0.033203;0.038086;1.035156;
1116070;-0.034180;0.036133;1.038086;
1116221;-0.035156;0.038086;1.036133;
1116371;-0.032227;0.038086;1.037109;
1116522;-0.034180;0.037109;1.036133;
1116675;-0.036133;0.038086;1.037109;
1116821;-0.035156;0.036133;1.037109;
1116955;-0.034180;0.038086;1.037109;
1117105;-0.034180;0.037109;1.037109;
1117245;-0.033203;0.038086;1.035156;
1117385;-0.034180;0.037109;1.037109;
1117535;-0.035156;0.036133;1.037109;
1117675;-0.033203;0.038086;1.035156;
1117815;-0.035156;0.038086;1.037109;
1117955;-0.034180;0.038086;1.035156;
1118095;-0.035156;0.038086;1.037109;
1118235;-0.035156;0.038086;1.037109;
1118375;-0.033203;0.038086;1.036133;
1118515;-0.033203;0.039062;1.036133;
1118655;-0.035156;0.038086;1.037109;
1118795;-0.034180;0.039062;1.038086;
1118931;-0.034180;0.039062;1.037109;
1119070;-0.034180;0.038086;1.036133;
1119211;-0.034180;0.038086;1.037109;
1119361;-0.034180;0.039062;1.036133;
1119501;-0.035156;0.039062;1.037109;
1119655;-0.034180;0.037109;1.035156;
1119791;-0.034180;0.039062;1.036133;
1119941;-0.034180;0.036133;1.036133;
1120085;-0.033203;0.038086;1.036133;
1120223;-0.035156;0.038086;1.038086;
1120362;-0.033203;0.037109;1.036133;
1120501;-0.033203;0.038086;1.036133;
1120640;-0.034180;0.036133;1.036133;
1120785;-0.033203;0.037109;1.036133;
1120925;-0.033203;0.037109;1.038086;
1121075;-0.035156;0.036133;1.036133;
1121215;-0.033203;0.038086;1.037109;
1121355;-0.034180;0.037109;1.037109;
1121495;-0.034180;0.038086;1.037109;
1121635;-0.035156;0.037109;1.036133;
1121775;-0.034180;0.038086;1.036133;
1121915;-0.035156;0.038086;1.036133;
1122055;-0.034180;0.039062;1.036133;
1122195;-0.034180;0.037109;1.036133;
1122335;-0.034180;0.037109;1.036133;
1122475;-0.034180;0.036133;1.036133;
1122625;-0.036133;0.036133;1.036133;
1122771;-0.034180;0.037109;1.036133;
1122911;-0.034180;0.036133;1.037109;
1123043;-0.035156;0.037109;1.038086;
1123180;-0.034180;0.036133;1.036133;
1123310;-0.033203;0.038086;1.036133;
1123450;-0.035156;0.037109;1.037109;
1123595;-0.033203;0.038086;1.037109;
1123741;-0.033203;0.037109;1.036133;
1123881;-0.035156;0.036133;1.036133;
1124020;-0.033203;0.036133;1.036133;
1124160;-0.034180;0.038086;1.035156;
1124305;-0.035156;0.038086;1.038086;
1124445;-0.034180;0.037109;1.038086;
1124585;-0.034180;0.036133;1.035156;
1124725;-0.034180;0.038086;1.036133;
1124865;-0.034180;0.038086;1.037109;
1125005;-0.035156;0.037109;1.037109;
1125145;-0.033203;0.038086;1.037109;
1125295;-0.034180;0.038086;1.037109;
1125445;-0.033203;0.039062;1.038086;
1125585;-0.034180;0.037109;1.036133;
1125725;-0.033203;0.037109;1.036133;
1125865;-0.033203;0.039062;1.038086;
1126005;-0.033203;0.038086;1.036133;
1126145;-0.033203;0.040039;1.036133;
1126290;-0.034180;0.039062;1.037109;
1126432;-0.034180;0.038086;1.037109;
1126570;-0.034180;0.038086;1.036133;
1126701;-0.034180;0.039062;1.037109;
1126830;-0.034180;0.038086;1.036133;
1126971;-0.034180;0.038086;1.037109;
1127111;-0.034180;0.039062;1.036133;
1127250;-0.034180;0.038086;1.037109;
1127391;-0.034180;0.037109;1.037109;
1127531;-0.034180;0.039062;1.037109;
1127685;-0.034180;0.038086;1.037109;
1127825;-0.034180;0.039062;1.037109;
1127965;-0.033203;0.037109;1.037109;
1128105;-0.034180;0.039062;1.036133;
1128245;-0.033203;0.038086;1.036133;
1128385;-0.033203;0.039062;1.036133;
1128525;-0.033203;0.039062;1.037109;
1128665;-0.035156;0.037109;1.038086;
1128805;-0.033203;0.037109;1.037109;
1128955;-0.033203;0.038086;1.037109;
1129095;-0.034180;0.038086;1.036133;
1129235;-0.034180;0.039062;1.037109;
1129385;-0.034180;0.036133;1.035156;
1129525;-0.035156;0.038086;1.037109;
1129651;-0.035156;0.037109;1.038086;
1129785;-0.032227;0.038086;1.037109;
1129925;-0.034180;0.037109;1.036133;
1130065;-0.034180;0.038086;1.037109;
1130205;-0.034180;0.038086;1.037109;
1130351;-0.034180;0.038086;1.037109;
1130490;-0.034180;0.039062;1.037109;
1130630;-0.034180;0.038086;1.037109;
1130781;-0.035156;0.038086;1.037109;
1130921;-0.034180;0.038086;1.037109;
1131051;-0.035156;0.039062;1.037109;
1131195;-0.033203;0.039062;1.037109;
1131345;-0.033203;0.038086;1.037109;
1131481;-0.035156;0.037109;1.036133;
1131620;-0.033203;0.037109;1.037109;
1131773;-0.034180;0.037109;1.037109;
1131915;-0.035156;0.036133;1.037109;
1132055;-0.034180;0.037109;1.036133;
1132195;-0.033203;0.037109;1.035156;
1132335;-0.035156;0.038086;1.037109;
1132475;-0.035156;0.037109;1.037109;
1132615;-0.033203;0.038086;1.036133;
1132755;-0.035156;0.037109;1.037109;
1132895;-0.033203;0.038086;1.038086;
1133045;-0.033203;0.038086;1.037109;
1133185;-0.034180;0.038086;1.037109;
1133325;-0.033203;0.037109;1.036133;
1133465;-0.033203;0.038086;1.037109;
1133605;-0.034180;0.038086;1.036133;
1133745;-0.033203;0.037109;1.036133;
1133882;-0.035156;0.037109;1.037109;
1134031;-0.034180;0.037109;1.038086;
1134171;-0.033203;0.038086;1.036133;
1134310;-0.035156;0.037109;1.036133;
1134452;-0.033203;0.038086;1.038086;
1134602;-0.035156;0.039062;1.037109;
1134751;-0.034180;0.039062;1.036133;
1134891;-0.033203;0.038086;1.038086;
1135021;-0.034180;0.038086;1.036133;
1135161;-0.035156;0.037109;1.036133;
1135291;-0.034180;0.038086;1.036133;
1135425;-0.033203;0.037109;1.036133;
1135565;-0.033203;0.038086;1.037109;
1135705;-0.034180;0.038086;1.038086;
1135845;-0.034180;0.039062;1.035156;
1135985;-0.033203;0.037109;1.036133;
1136125;-0.034180;0.039062;1.037109;
1136265;-0.033203;0.038086;1.036133;
1136405;-0.032227;0.039062;1.036133;
1136545;-0.034180;0.037109;1.037109;
1136685;-0.034180;0.039062;1.036133;
1136825;-0.034180;0.038086;1.037109;
1136965;-0.033203;0.037109;1.036133;
1137105;-0.034180;0.038086;1.037109;
1137245;-0.035156;0.035156;1.037109;
1137380;-0.033203;0.039062;1.037109;
1137530;-0.033203;0.038086;1.036133;
1137661;-0.034180;0.038086;1.037109;
1137811;-0.034180;0.039062;1.037109;
1137951;-0.034180;0.037109;1.037109;
1138101;-0.033203;0.038086;1.036133;
1138255;-0.034180;0.038086;1.036133;
1138390;-0.034180;0.039062;1.037109;
1138521;-0.034180;0.039062;1.036133;
1138661;-0.032227;0.038086;1.036133;
1138795;-0.034180;0.039062;1.035156;
1138935;-0.035156;0.039062;1.036133;
1139085;-0.033203;0.038086;1.038086;
1139225;-0.034180;0.038086;1.036133;
1139365;-0.034180;0.038086;1.037109;
1139505;-0.034180;0.038086;1.036133;
1139645;-0.034180;0.039062;1.036133;
1139785;-0.035156;0.038086;1.036133;
1139925;-0.033203;0.037109;1.036133;
1140065;-0.034180;0.037109;1.036133;
1140205;-0.035156;0.037109;1.036133;
1140345;-0.034180;0.038086;1.037109;
1140485;-0.033203;0.039062;1.036133;
1140625;-0.034180;0.038086;1.036133;
1140761;-0.035156;0.038086;1.038086;
1140911;-0.035156;0.037109;1.036133;
1141040;-0.033203;0.039062;1.036133;
1141181;-0.034180;0.036133;1.036133;
1141315;-0.034180;0.036133;1.035156;
1141455;-0.034180;0.037109;1.036133;
1141591;-0.034180;0.037109;1.036133;
1141721;-0.034180;0.038086;1.036133;
1141855;-0.034180;0.037109;1.036133;
1141995;-0.034180;0.039062;1.036133;
1142130;-0.033203;0.038086;1.036133;
1142272;-0.033203;0.037109;1.036133;
1142422;-0.033203;0.039062;1.037109;
1142560;-0.033203;0.038086;1.037109;
1142705;-0.034180;0.038086;1.037109;
1142845;-0.034180;0.039062;1.037109;
1142995;-0.035156;0.037109;1.037109;
1143135;-0.035156;0.038086;1.037109;
1143275;-0.033203;0.038086;1.037109;
1143415;-0.034180;0.039062;1.037109;
1143555;-0.034180;0.038086;1.037109;
1143695;-0.034180;0.039062;1.037109;
1143835;-0.033203;0.038086;1.036133;
1143975;-0.034180;0.039062;1.037109;
1144115;-0.033203;0.039062;1.036133;
1144255;-0.033203;0.037109;1.037109;
1144395;-0.034180;0.037109;1.037109;
1144535;-0.034180;0.041016;1.038086;
1144670;-0.034180;0.037109;1.035156;
1144801;-0.034180;0.037109;1.036133;
1144941;-0.034180;0.037109;1.037109;
1145081;-0.033203;0.039062;1.038086;
1145230;-0.034180;0.038086;1.035156;
1145371;-0.034180;0.039062;1.036133;
1145511;-0.034180;0.039062;1.037109;
1145661;-0.034180;0.038086;1.035156;
1145811;-0.035156;0.038086;1.037109;
1145945;-0.034180;0.038086;1.037109;
1146085;-0.034180;0.039062;1.038086;
1146225;-0.033203;0.038086;1.036133;
1146365;-0.033203;0.036133;1.037109;
1146505;-0.034180;0.038086;1.037109;
1146645;-0.034180;0.038086;1.037109;
1146785;-0.033203;0.038086;1.036133;
1146925;-0.035156;0.038086;1.037109;
1147065;-0.033203;0.040039;1.037109;
1147205;-0.034180;0.038086;1.038086;
1147345;-0.034180;0.038086;1.037109;
1147485;-0.034180;0.038086;1.036133;
1147625;-0.030273;0.034180;1.052734;
1147765;-0.035156;0.036133;1.032227;
1147915;-0.035156;0.038086;1.035156;
1148053;-0.039062;0.038086;1.028320;
1148191;-0.036133;0.039062;1.037109;
1148330;-0.038086;0.040039;1.036133;
1148482;-0.037109;0.039062;1.033203;
1148631;-0.035156;0.039062;1.041016;
1148780;-0.038086;0.041992;1.030273;
1148931;-0.038086;0.033203;1.021484;
1149070;-0.038086;0.037109;1.028320;
1149211;-0.035156;0.040039;1.020508;
1149355;-0.037109;0.038086;1.019531;
1149495;-0.033203;0.038086;1.041992;
1149635;-0.035156;0.038086;1.038086;
1149775;-0.035156;0.037109;1.037109;
1149915;-0.035156;0.035156;1.036133;
1150065;-0.034180;0.037109;1.037109;
1150205;-0.034180;0.037109;1.038086;
1150345;-0.033203;0.038086;1.037109;
1150495;-0.033203;0.037109;1.036133;
1150635;-0.033203;0.038086;1.037109;
1150775;-0.032227;0.038086;1.037109;
1150915;-0.034180;0.036133;1.036133;
1151055;-0.034180;0.038086;1.036133;
1151195;-0.034180;0.038086;1.036133;
1151321;-0.035156;0.037109;1.037109;
1151451;-0.035156;0.037109;1.036133;
1151591;-0.034180;0.039062;1.036133;
1151731;-0.034180;0.038086;1.036133;
1151861;-0.033203;0.037109;1.036133;
1152016;-0.035156;0.038086;1.037109;
1152150;-0.035156;0.037109;1.036133;
1152290;-0.033203;0.036133;1.035156;
1152425;-0.035156;0.036133;1.037109;
1152562;-0.035156;0.039062;1.036133;
1152690;-0.034180;0.038086;1.036133;
1152840;-0.034180;0.037109;1.036133;
1152985;-0.033203;0.038086;1.035156;
1153125;-0.034180;0.037109;1.036133;
1153265;-0.034180;0.038086;1.037109;
1153415;-0.034180;0.038086;1.035156;
1153555;-0.035156;0.037109;1.037109;
1153695;-0.033203;0.038086;1.036133;
1153845;-0.033203;0.037109;1.036133;
1153985;-0.034180;0.037109;1.036133;
1154125;-0.034180;0.038086;1.036133;
1154265;-0.034180;0.037109;1.035156;
1154405;-0.035156;0.036133;1.037109;
1154555;-0.034180;0.037109;1.037109;
1154695;-0.035156;0.037109;1.036133;
1154835;-0.034180;0.037109;1.037109;
1154971;-0.033203;0.038086;1.037109;
1155120;-0.034180;0.038086;1.037109;
1155261;-0.033203;0.037109;1.036133;
1155400;-0.034180;0.038086;1.035156;
1155532;-0.033203;0.037109;1.036133;
1155665;-0.034180;0.040039;1.037109;
1155805;-0.033203;0.038086;1.036133;
1155951;-0.034180;0.038086;1.036133;
1156102;-0.035156;0.038086;1.037109;
1156241;-0.033203;0.037109;1.036133;
1156390;-0.034180;0.038086;1.036133;
1156535;-0.035156;0.038086;1.036133;
1156675;-0.035156;0.037109;1.036133;
1156825;-0.034180;0.037109;1.037109;
1156965;-0.034180;0.038086;1.036133;
1157105;-0.033203;0.037109;1.036133;
1157245;-0.034180;0.038086;1.037109;
1157385;-0.035156;0.038086;1.036133;
1157535;-0.034180;0.039062;1.037109;
1157675;-0.033203;0.038086;1.036133;
1157815;-0.033203;0.038086;1.037109;
1157955;-0.035156;0.038086;1.037109;
1158095;-0.033203;0.039062;1.037109;
1158235;-0.034180;0.038086;1.036133;
1158375;-0.034180;0.038086;1.036133;
1158522;-0.033203;0.039062;1.037109;
1158651;-0.033203;0.039062;1.037109;
1158790;-0.034180;0.039062;1.036133;
1158921;-0.034180;0.039062;1.038086;
1159061;-0.034180;0.038086;1.035156;
1159201;-0.035156;0.039062;1.036133;
1159341;-0.033203;0.038086;1.036133;
1159491;-0.034180;0.038086;1.036133;
1159641;-0.034180;0.039062;1.038086;
1159785;-0.034180;0.037109;1.037109;
1159925;-0.035156;0.037109;1.036133;
1160065;-0.034180;0.038086;1.036133;
1160205;-0.033203;0.037109;1.037109;
1160345;-0.033203;0.038086;1.036133;
1160485;-0.035156;0.035156;1.036133;
1160625;-0.035156;0.037109;1.036133;
1160765;-0.034180;0.039062;1.038086;
1160905;-0.034180;0.038086;1.036133;
1161045;-0.033203;0.037109;1.037109;
1161195;-0.035156;0.038086;1.036133;
1161335;-0.034180;0.038086;1.035156;
1161475;-0.033203;0.037109;1.037109;
1161615;-0.033203;0.037109;1.036133;
1161751;-0.033203;0.039062;1.036133;
1161891;-0.034180;0.038086;1.038086;
1162042;-0.033203;0.037109;1.035156;
1162191;-0.033203;0.036133;1.036133;
1162321;-0.034180;0.037109;1.036133;
1162461;-0.034180;0.037109;1.035156;
1162600;-0.034180;0.038086;1.037109;
1162741;-0.033203;0.038086;1.037109;
1162875;-0.035156;0.037109;1.036133;
1163015;-0.035156;0.038086;1.036133;
1163155;-0.035156;0.037109;1.036133;
1163295;-0.035156;0.037109;1.037109;
1163435;-0.033203;0.037109;1.036133;
1163575;-0.034180;0.038086;1.037109;
1163715;-0.033203;0.036133;1.035156;
1163855;-0.035156;0.037109;1.036133;
1163995;-0.033203;0.039062;1.038086;
1164135;-0.034180;0.039062;1.037109;
1164275;-0.034180;0.039062;1.038086;
1164415;-0.034180;0.039062;1.037109;
1164555;-0.035156;0.038086;1.036133;
1164705;-0.034180;0.038086;1.035156;
1164840;-0.034180;0.039062;1.036133;
1164982;-0.034180;0.038086;1.037109;
1165131;-0.033203;0.036133;1.038086;
1165261;-0.034180;0.037109;1.037109;
1165411;-0.034180;0.038086;1.037109;
1165552;-0.034180;0.038086;1.036133;
1165700;-0.034180;0.038086;1.037109;
1165840;-0.033203;0.038086;1.037109;
1165981;-0.034180;0.037109;1.037109;
