Time;acc_x;acc_y;acc_z;

2334;-0.034180;0.039062;1.039062;
2483;-0.034180;0.038086;1.038086;
2623;-0.034180;0.037109;1.040039;
2763;-0.033203;0.036133;1.039062;
2903;-0.034180;0.039062;1.040039;
3043;-0.035156;0.039062;1.038086;
3183;-0.033203;0.039062;1.045898;
3324;-0.034180;0.037109;1.040039;
3464;-0.035156;0.037109;1.039062;
3604;-0.033203;0.038086;1.039062;
3744;-0.035156;0.038086;1.038086;
3884;-0.034180;0.038086;1.041016;
4024;-0.034180;0.039062;1.040039;
4164;-0.036133;0.036133;1.038086;
4303;-0.033203;0.040039;1.040039;
4443;-0.033203;0.040039;1.037109;
4584;-0.034180;0.039062;1.040039;
4723;-0.033203;0.040039;1.041016;
4859;-0.034180;0.038086;1.039062;
4999;-0.033203;0.039062;1.040039;
5149;-0.033203;0.038086;1.037109;
5289;-0.033203;0.039062;1.038086;
5429;-0.035156;0.038086;1.040039;
5559;-0.034180;0.037109;1.040039;
5713;-0.034180;0.038086;1.038086;
5849;-0.035156;0.039062;1.038086;
5989;-0.034180;0.039062;1.040039;
6119;-0.033203;0.040039;1.039062;
6269;-0.033203;0.039062;1.038086;
6419;-0.035156;0.038086;1.041016;
6551;-0.034180;0.038086;1.040039;
6699;-0.033203;0.040039;1.038086;
6839;-0.034180;0.038086;1.038086;
6980;-0.033203;0.039062;1.040039;
7124;-0.034180;0.040039;1.038086;
7263;-0.034180;0.039062;1.039062;
7404;-0.033203;0.040039;1.040039;
7539;-0.034180;0.038086;1.038086;
7674;-0.034180;0.038086;1.040039;
7814;-0.035156;0.037109;1.039062;
7954;-0.034180;0.038086;1.038086;
8094;-0.034180;0.038086;1.037109;
8229;-0.034180;0.039062;1.039062;
8364;-0.033203;0.038086;1.040039;
8489;-0.033203;0.039062;1.037109;
8634;-0.034180;0.039062;1.041016;
8785;-0.034180;0.038086;1.039062;
8930;-0.035156;0.039062;1.039062;
9060;-0.034180;0.040039;1.039062;
9199;-0.035156;0.038086;1.038086;
9339;-0.034180;0.038086;1.040039;
9479;-0.033203;0.039062;1.040039;
9623;-0.032227;0.039062;1.040039;
9764;-0.035156;0.039062;1.039062;
9899;-0.035156;0.039062;1.039062;
10029;-0.033203;0.038086;1.038086;
10169;-0.034180;0.038086;1.039062;
10320;-0.033203;0.040039;1.040039;
10449;-0.033203;0.039062;1.039062;
10599;-0.034180;0.039062;1.039062;
10729;-0.033203;0.038086;1.040039;
10859;-0.034180;0.037109;1.041016;
10989;-0.034180;0.039062;1.040039;
11129;-0.034180;0.038086;1.039062;
11269;-0.034180;0.039062;1.040039;
11399;-0.034180;0.038086;1.038086;
11554;-0.033203;0.040039;1.039062;
11693;-0.033203;0.040039;1.041016;
11834;-0.033203;0.036133;1.039062;
11972;-0.034180;0.039062;1.039062;
12109;-0.034180;0.040039;1.039062;
12249;-0.034180;0.038086;1.040039;
12404;-0.034180;0.038086;1.041016;
12543;-0.035156;0.039062;1.039062;
12684;-0.033203;0.039062;1.038086;
12819;-0.034180;0.037109;1.040039;
12949;-0.034180;0.038086;1.039062;
13094;-0.034180;0.038086;1.039062;
13229;-0.035156;0.038086;1.039062;
13379;-0.033203;0.041016;1.039062;
13519;-0.033203;0.040039;1.038086;
13669;-0.034180;0.038086;1.040039;
13810;-0.033203;0.039062;1.039062;
13939;-0.034180;0.036133;1.039062;
14080;-0.035156;0.038086;1.039062;
14229;-0.034180;0.039062;1.039062;
14364;-0.034180;0.039062;1.039062;
14500;-0.032227;0.039062;1.041016;
14639;-0.034180;0.039062;1.037109;
14779;-0.035156;0.040039;1.041992;
14909;-0.034180;0.038086;1.039062;
15059;-0.033203;0.037109;1.037109;
15189;-0.035156;0.039062;1.040039;
15329;-0.033203;0.040039;1.040039;
15459;-0.034180;0.039062;1.039062;
15604;-0.034180;0.039062;1.041016;
15744;-0.035156;0.038086;1.037109;
15884;-0.033203;0.039062;1.038086;
16024;-0.035156;0.039062;1.040039;
16161;-0.033203;0.038086;1.040039;
16289;-0.034180;0.039062;1.037109;
16419;-0.034180;0.038086;1.039062;
16564;-0.035156;0.038086;1.039062;
16704;-0.034180;0.039062;1.037109;
16854;-0.033203;0.040039;1.040039;
16989;-0.034180;0.040039;1.039062;
17139;-0.033203;0.037109;1.037109;
17294;-0.032227;0.039062;1.041016;
17434;-0.035156;0.039062;1.038086;
17559;-0.034180;0.038086;1.039062;
17689;-0.033203;0.040039;1.039062;
17839;-0.034180;0.039062;1.041016;
17980;-0.034180;0.039062;1.038086;
18129;-0.033203;0.040039;1.039062;
18280;-0.034180;0.037109;1.040039;
18431;-0.034180;0.036133;1.038086;
18574;-0.035156;0.038086;1.039062;
18710;-0.033203;0.038086;1.038086;
18840;-0.034180;0.039062;1.038086;
18989;-0.034180;0.039062;1.038086;
19129;-0.034180;0.039062;1.038086;
19270;-0.033203;0.037109;1.039062;
19409;-0.034180;0.039062;1.039062;
19549;-0.035156;0.038086;1.039062;
19699;-0.034180;0.040039;1.040039;
19851;-0.034180;0.038086;1.040039;
20001;-0.034180;0.038086;1.037109;
20153;-0.033203;0.038086;1.040039;
20299;-0.033203;0.040039;1.041992;
20439;-0.034180;0.037109;1.036133;
20584;-0.034180;0.038086;1.038086;
20723;-0.035156;0.038086;1.040039;
20864;-0.034180;0.038086;1.038086;
21004;-0.034180;0.040039;1.041016;
21149;-0.033203;0.038086;1.040039;
21294;-0.034180;0.038086;1.037109;
21434;-0.033203;0.039062;1.039062;
21574;-0.033203;0.040039;1.041016;
21709;-0.034180;0.038086;1.038086;
21854;-0.033203;0.038086;1.037109;
21994;-0.034180;0.039062;1.040039;
22134;-0.034180;0.039062;1.038086;
22269;-0.035156;0.038086;1.036133;
22409;-0.034180;0.037109;1.038086;
22541;-0.033203;0.039062;1.039062;
22690;-0.034180;0.038086;1.039062;
22829;-0.033203;0.038086;1.038086;
22969;-0.034180;0.039062;1.038086;
23102;-0.035156;0.039062;1.040039;
23240;-0.034180;0.038086;1.037109;
23369;-0.034180;0.040039;1.038086;
23509;-0.034180;0.038086;1.039062;
23659;-0.033203;0.039062;1.037109;
23799;-0.033203;0.040039;1.040039;
23940;-0.034180;0.038086;1.038086;
24079;-0.034180;0.039062;1.040039;
24213;-0.034180;0.040039;1.040039;
24339;-0.035156;0.039062;1.039062;
24469;-0.034180;0.037109;1.037109;
24599;-0.035156;0.038086;1.040039;
24754;-0.034180;0.038086;1.039062;
24894;-0.034180;0.037109;1.039062;
25044;-0.033203;0.040039;1.038086;
25184;-0.034180;0.039062;1.039062;
25319;-0.035156;0.038086;1.039062;
25449;-0.035156;0.038086;1.041016;
25604;-0.034180;0.038086;1.040039;
25744;-0.034180;0.041016;1.039062;
25879;-0.034180;0.038086;1.038086;
26019;-0.035156;0.039062;1.039062;
26149;-0.033203;0.039062;1.039062;
26299;-0.034180;0.038086;1.039062;
26440;-0.034180;0.039062;1.040039;
26580;-0.035156;0.037109;1.037109;
26709;-0.034180;0.036133;1.038086;
26849;-0.032227;0.039062;1.040039;
26989;-0.033203;0.039062;1.039062;
27132;-0.033203;0.038086;1.039062;
27269;-0.033203;0.038086;1.041016;
27419;-0.034180;0.038086;1.038086;
27569;-0.034180;0.039062;1.039062;
27709;-0.035156;0.040039;1.039062;
27849;-0.033203;0.038086;1.039062;
27989;-0.035156;0.038086;1.040039;
28139;-0.034180;0.038086;1.039062;
28269;-0.036133;0.038086;1.039062;
28414;-0.034180;0.040039;1.038086;
28553;-0.033203;0.039062;1.038086;
28694;-0.034180;0.038086;1.038086;
28834;-0.033203;0.039062;1.040039;
28974;-0.034180;0.036133;1.039062;
29124;-0.034180;0.038086;1.038086;
29263;-0.035156;0.038086;1.039062;
29414;-0.034180;0.039062;1.039062;
29554;-0.033203;0.039062;1.039062;
29679;-0.035156;0.040039;1.039062;
29824;-0.034180;0.038086;1.037109;
29964;-0.035156;0.037109;1.037109;
30103;-0.033203;0.040039;1.039062;
30239;-0.034180;0.039062;1.039062;
30369;-0.035156;0.038086;1.040039;
30500;-0.034180;0.039062;1.039062;
30649;-0.034180;0.039062;1.040039;
30779;-0.034180;0.038086;1.039062;
30929;-0.034180;0.040039;1.038086;
31069;-0.034180;0.039062;1.039062;
31219;-0.035156;0.039062;1.038086;
31364;-0.033203;0.040039;1.039062;
31499;-0.035156;0.039062;1.039062;
31629;-0.034180;0.040039;1.039062;
31759;-0.035156;0.038086;1.038086;
31909;-0.034180;0.041016;1.039062;
32059;-0.033203;0.039062;1.038086;
32209;-0.034180;0.039062;1.040039;
32349;-0.034180;0.039062;1.039062;
32479;-0.034180;0.038086;1.038086;
32619;-0.034180;0.039062;1.039062;
32770;-0.035156;0.038086;1.039062;
32924;-0.034180;0.039062;1.041016;
33074;-0.034180;0.040039;1.038086;
33209;-0.035156;0.039062;1.040039;
33364;-0.034180;0.037109;1.039062;
33503;-0.034180;0.038086;1.040039;
33644;-0.035156;0.038086;1.039062;
33779;-0.034180;0.039062;1.038086;
33924;-0.034180;0.038086;1.038086;
34064;-0.033203;0.039062;1.039062;
34203;-0.034180;0.039062;1.038086;
34344;-0.033203;0.039062;1.039062;
34484;-0.033203;0.039062;1.039062;
34629;-0.034180;0.037109;1.038086;
34769;-0.034180;0.039062;1.040039;
34909;-0.035156;0.037109;1.040039;
35059;-0.033203;0.038086;1.040039;
35199;-0.035156;0.037109;1.040039;
35349;-0.034180;0.039062;1.039062;
35494;-0.034180;0.038086;1.038086;
35619;-0.032227;0.040039;1.038086;
35759;-0.035156;0.038086;1.038086;
35910;-0.034180;0.039062;1.039062;
36061;-0.034180;0.039062;1.041016;
36209;-0.033203;0.041016;1.039062;
36359;-0.033203;0.039062;1.039062;
36499;-0.035156;0.038086;1.040039;
36640;-0.033203;0.037109;1.039062;
36781;-0.034180;0.039062;1.038086;
36939;-0.034180;0.039062;1.039062;
37090;-0.033203;0.038086;1.038086;
37239;-0.034180;0.037109;1.038086;
37393;-0.035156;0.040039;1.040039;
37534;-0.034180;0.039062;1.039062;
37669;-0.034180;0.039062;1.037109;
37813;-0.033203;0.040039;1.038086;
37943;-0.035156;0.037109;1.040039;
38079;-0.033203;0.039062;1.040039;
38224;-0.036133;0.037109;1.039062;
38363;-0.033203;0.040039;1.038086;
38503;-0.034180;0.038086;1.038086;
38649;-0.035156;0.038086;1.038086;
38790;-0.032227;0.037109;1.038086;
38934;-0.034180;0.038086;1.039062;
39074;-0.033203;0.039062;1.040039;
39213;-0.034180;0.039062;1.041016;
39351;-0.035156;0.038086;1.038086;
39479;-0.034180;0.037109;1.039062;
39619;-0.034180;0.037109;1.038086;
39759;-0.034180;0.038086;1.039062;
39899;-0.034180;0.039062;1.038086;
40049;-0.034180;0.038086;1.039062;
40189;-0.034180;0.038086;1.039062;
40319;-0.034180;0.038086;1.038086;
40469;-0.033203;0.038086;1.039062;
40600;-0.033203;0.040039;1.040039;
40749;-0.033203;0.038086;1.040039;
40890;-0.033203;0.039062;1.039062;
41040;-0.034180;0.038086;1.038086;
41189;-0.035156;0.039062;1.041016;
41329;-0.034180;0.038086;1.039062;
41479;-0.033203;0.038086;1.039062;
41614;-0.035156;0.038086;1.039062;
41739;-0.034180;0.039062;1.040039;
41879;-0.034180;0.040039;1.039062;
42019;-0.034180;0.040039;1.039062;
42149;-0.034180;0.039062;1.039062;
42299;-0.033203;0.040039;1.040039;
42444;-0.034180;0.038086;1.038086;
42584;-0.034180;0.037109;1.039062;
42724;-0.033203;0.038086;1.037109;
42864;-0.033203;0.038086;1.039062;
42999;-0.034180;0.038086;1.039062;
43139;-0.032227;0.038086;1.039062;
43279;-0.034180;0.037109;1.041016;
43414;-0.034180;0.038086;1.038086;
43553;-0.034180;0.039062;1.038086;
43693;-0.034180;0.039062;1.038086;
43833;-0.033203;0.037109;1.039062;
43959;-0.033203;0.039062;1.041016;
44089;-0.034180;0.038086;1.039062;
44219;-0.033203;0.039062;1.039062;
44369;-0.034180;0.039062;1.039062;
44522;-0.034180;0.037109;1.038086;
44669;-0.033203;0.039062;1.038086;
44819;-0.033203;0.039062;1.039062;
44969;-0.034180;0.035156;1.039062;
45110;-0.033203;0.038086;1.040039;
45259;-0.033203;0.038086;1.038086;
45409;-0.033203;0.037109;1.040039;
45549;-0.034180;0.039062;1.038086;
45679;-0.035156;0.037109;1.039062;
45819;-0.034180;0.038086;1.038086;
45960;-0.032227;0.038086;1.041016;
46100;-0.034180;0.038086;1.041016;
46249;-0.034180;0.038086;1.039062;
46389;-0.034180;0.037109;1.039062;
46530;-0.034180;0.037109;1.038086;
46684;-0.034180;0.039062;1.038086;
46824;-0.034180;0.038086;1.039062;
46964;-0.035156;0.037109;1.039062;
47109;-0.032227;0.039062;1.040039;
47254;-0.035156;0.038086;1.040039;
47404;-0.034180;0.039062;1.039062;
47544;-0.033203;0.038086;1.038086;
47679;-0.033203;0.037109;1.040039;
47834;-0.034180;0.038086;1.040039;
47979;-0.034180;0.040039;1.040039;
48109;-0.036133;0.040039;1.040039;
48254;-0.034180;0.039062;1.040039;
48394;-0.032227;0.038086;1.040039;
48534;-0.034180;0.039062;1.038086;
48660;-0.034180;0.038086;1.038086;
48800;-0.033203;0.038086;1.038086;
48939;-0.035156;0.039062;1.038086;
49079;-0.034180;0.037109;1.039062;
49229;-0.035156;0.038086;1.039062;
49379;-0.034180;0.039062;1.041016;
49519;-0.034180;0.040039;1.038086;
49669;-0.035156;0.038086;1.038086;
49809;-0.034180;0.039062;1.040039;
49949;-0.033203;0.039062;1.039062;
50089;-0.034180;0.037109;1.039062;
50229;-0.033203;0.038086;1.039062;
50369;-0.034180;0.038086;1.038086;
50504;-0.034180;0.038086;1.039062;
50643;-0.033203;0.040039;1.041016;
50769;-0.035156;0.036133;1.038086;
50899;-0.034180;0.038086;1.037109;
51029;-0.034180;0.038086;1.040039;
51169;-0.033203;0.039062;1.041016;
51299;-0.033203;0.040039;1.038086;
51439;-0.035156;0.038086;1.038086;
51584;-0.034180;0.038086;1.041016;
51724;-0.035156;0.039062;1.039062;
51849;-0.034180;0.038086;1.038086;
52003;-0.033203;0.038086;1.041016;
52144;-0.034180;0.038086;1.041016;
52284;-0.034180;0.038086;1.038086;
52424;-0.034180;0.038086;1.041016;
52569;-0.034180;0.039062;1.039062;
52724;-0.033203;0.041016;1.038086;
52864;-0.034180;0.039062;1.040039;
53004;-0.034180;0.038086;1.040039;
53139;-0.035156;0.038086;1.040039;
53289;-0.034180;0.038086;1.040039;
53443;-0.034180;0.038086;1.038086;
53569;-0.035156;0.039062;1.039062;
53709;-0.034180;0.037109;1.039062;
53859;-0.032227;0.039062;1.038086;
53999;-0.036133;0.037109;1.040039;
54134;-0.033203;0.040039;1.040039;
54349;-0.034180;0.038086;1.037109;
54489;-0.035156;0.038086;1.038086;
54640;-0.034180;0.039062;1.036133;
54769;-0.034180;0.041992;1.039062;
54899;-0.034180;0.037109;1.040039;
55039;-0.034180;0.038086;1.038086;
55179;-0.034180;0.038086;1.040039;
55309;-0.034180;0.036133;1.039062;
55439;-0.034180;0.038086;1.037109;
55569;-0.034180;0.039062;1.038086;
55710;-0.034180;0.037109;1.040039;
55859;-0.033203;0.039062;1.038086;
55999;-0.034180;0.037109;1.038086;
56154;-0.035156;0.037109;1.039062;
56293;-0.033203;0.038086;1.038086;
56434;-0.034180;0.038086;1.039062;
56574;-0.033203;0.041016;1.040039;
56713;-0.034180;0.039062;1.039062;
56849;-0.034180;0.038086;1.039062;
56979;-0.034180;0.039062;1.039062;
57133;-0.034180;0.038086;1.037109;
57259;-0.034180;0.041016;1.040039;
57404;-0.034180;0.039062;1.041016;
57544;-0.034180;0.037109;1.038086;
57683;-0.033203;0.038086;1.039062;
57819;-0.034180;0.040039;1.040039;
57960;-0.033203;0.038086;1.037109;
58099;-0.034180;0.039062;1.038086;
58239;-0.035156;0.037109;1.041016;
58379;-0.034180;0.039062;1.038086;
58519;-0.034180;0.038086;1.038086;
58664;-0.035156;0.037109;1.041016;
58809;-0.033203;0.038086;1.037109;
58949;-0.034180;0.037109;1.037109;
59099;-0.035156;0.039062;1.039062;
59239;-0.035156;0.038086;1.039062;
59389;-0.035156;0.038086;1.039062;
59540;-0.035156;0.038086;1.038086;
59683;-0.033203;0.039062;1.038086;
59809;-0.033203;0.038086;1.039062;
59954;-0.034180;0.040039;1.041016;
60089;-0.033203;0.040039;1.039062;
60239;-0.035156;0.038086;1.038086;
60379;-0.033203;0.037109;1.040039;
60531;-0.033203;0.040039;1.038086;
60679;-0.036133;0.039062;1.039062;
60809;-0.034180;0.038086;1.040039;
60959;-0.034180;0.038086;1.039062;
61099;-0.035156;0.038086;1.039062;
61249;-0.035156;0.039062;1.040039;
61394;-0.033203;0.038086;1.037109;
61534;-0.034180;0.037109;1.039062;
61674;-0.034180;0.038086;1.038086;
61814;-0.033203;0.039062;1.038086;
61953;-0.035156;0.040039;1.041016;
62089;-0.033203;0.039062;1.041016;
62229;-0.034180;0.039062;1.038086;
62374;-0.034180;0.038086;1.040039;
62523;-0.035156;0.038086;1.040039;
62664;-0.033203;0.039062;1.038086;
62804;-0.034180;0.039062;1.039062;
62939;-0.033203;0.039062;1.039062;
63074;-0.033203;0.037109;1.040039;
63209;-0.035156;0.040039;1.038086;
63339;-0.034180;0.037109;1.040039;
63479;-0.035156;0.039062;1.038086;
63629;-0.034180;0.039062;1.038086;
63759;-0.033203;0.039062;1.040039;
63901;-0.035156;0.038086;1.039062;
64039;-0.034180;0.039062;1.041992;
64179;-0.035156;0.037109;1.036133;
64319;-0.033203;0.037109;1.039062;
64459;-0.034180;0.038086;1.039062;
64589;-0.036133;0.037109;1.038086;
64729;-0.035156;0.037109;1.039062;
64869;-0.034180;0.038086;1.038086;
64999;-0.034180;0.038086;1.039062;
65129;-0.033203;0.039062;1.038086;
65279;-0.034180;0.037109;1.038086;
65419;-0.034180;0.038086;1.040039;
65574;-0.033203;0.039062;1.039062;
65714;-0.034180;0.040039;1.039062;
65864;-0.034180;0.038086;1.040039;
65999;-0.033203;0.039062;1.039062;
66133;-0.035156;0.037109;1.038086;
66274;-0.033203;0.038086;1.040039;
66414;-0.034180;0.039062;1.039062;
66554;-0.034180;0.039062;1.040039;
66699;-0.034180;0.038086;1.039062;
66853;-0.033203;0.039062;1.040039;
66994;-0.034180;0.038086;1.039062;
67134;-0.034180;0.039062;1.038086;
67274;-0.035156;0.038086;1.039062;
67409;-0.035156;0.039062;1.040039;
67551;-0.033203;0.039062;1.039062;
67689;-0.034180;0.038086;1.038086;
67839;-0.033203;0.040039;1.039062;
67984;-0.034180;0.040039;1.039062;
68119;-0.036133;0.039062;1.039062;
68253;-0.034180;0.038086;1.039062;
68389;-0.033203;0.038086;1.038086;
68519;-0.033203;0.039062;1.038086;
68669;-0.036133;0.038086;1.039062;
68809;-0.035156;0.039062;1.040039;
68959;-0.034180;0.040039;1.040039;
69109;-0.035156;0.038086;1.038086;
69249;-0.034180;0.038086;1.038086;
69389;-0.034180;0.039062;1.039062;
69521;-0.033203;0.039062;1.039062;
69669;-0.034180;0.038086;1.039062;
69799;-0.034180;0.040039;1.039062;
69949;-0.035156;0.038086;1.039062;
70080;-0.034180;0.039062;1.039062;
70223;-0.034180;0.038086;1.038086;
70349;-0.034180;0.036133;1.039062;
70479;-0.035156;0.039062;1.040039;
70609;-0.034180;0.040039;1.037109;
70739;-0.034180;0.040039;1.038086;
70869;-0.036133;0.038086;1.040039;
71009;-0.033203;0.040039;1.038086;
71139;-0.034180;0.036133;1.039062;
71271;-0.033203;0.038086;1.039062;
71424;-0.034180;0.038086;1.038086;
71564;-0.034180;0.039062;1.039062;
71704;-0.033203;0.039062;1.039062;
71852;-0.034180;0.039062;1.039062;
71979;-0.035156;0.037109;1.038086;
72134;-0.033203;0.041992;1.039062;
72274;-0.033203;0.038086;1.038086;
72414;-0.035156;0.037109;1.038086;
72554;-0.034180;0.038086;1.041016;
72679;-0.033203;0.039062;1.040039;
72819;-0.034180;0.039062;1.038086;
72959;-0.034180;0.040039;1.040039;
73104;-0.033203;0.038086;1.039062;
73253;-0.032227;0.040039;1.038086;
73389;-0.034180;0.039062;1.041016;
73519;-0.033203;0.039062;1.039062;
73649;-0.035156;0.038086;1.038086;
73799;-0.034180;0.037109;1.039062;
73940;-0.032227;0.039062;1.040039;
74079;-0.034180;0.038086;1.039062;
74209;-0.034180;0.039062;1.040039;
74349;-0.033203;0.038086;1.038086;
74490;-0.033203;0.037109;1.037109;
74639;-0.034180;0.038086;1.040039;
74779;-0.035156;0.039062;1.039062;
74919;-0.034180;0.036133;1.039062;
75054;-0.033203;0.038086;1.040039;
75190;-0.034180;0.040039;1.039062;
75329;-0.034180;0.039062;1.040039;
75480;-0.034180;0.039062;1.038086;
75629;-0.034180;0.038086;1.039062;
75759;-0.034180;0.040039;1.039062;
75899;-0.035156;0.038086;1.038086;
76029;-0.034180;0.039062;1.040039;
76159;-0.033203;0.039062;1.038086;
76299;-0.034180;0.038086;1.039062;
76429;-0.034180;0.039062;1.039062;
76559;-0.034180;0.039062;1.041016;
76689;-0.033203;0.038086;1.038086;
76829;-0.034180;0.037109;1.038086;
76974;-0.035156;0.036133;1.039062;
77124;-0.036133;0.039062;1.039062;
77264;-0.033203;0.040039;1.039062;
77399;-0.033203;0.038086;1.039062;
77534;-0.034180;0.039062;1.041016;
77669;-0.034180;0.039062;1.039062;
77814;-0.036133;0.039062;1.040039;
77954;-0.035156;0.038086;1.041016;
78094;-0.033203;0.038086;1.039062;
78233;-0.034180;0.038086;1.040039;
78369;-0.033203;0.038086;1.039062;
78499;-0.033203;0.039062;1.039062;
78649;-0.035156;0.039062;1.040039;
78799;-0.034180;0.038086;1.040039;
78939;-0.034180;0.037109;1.039062;
79079;-0.034180;0.040039;1.041016;
79209;-0.034180;0.039062;1.038086;
79349;-0.034180;0.038086;1.038086;
79499;-0.034180;0.038086;1.038086;
79630;-0.033203;0.039062;1.040039;
79773;-0.034180;0.037109;1.040039;
79909;-0.035156;0.038086;1.039062;
80049;-0.034180;0.039062;1.041016;
80179;-0.033203;0.039062;1.039062;
80330;-0.034180;0.040039;1.040039;
80469;-0.035156;0.039062;1.039062;
80619;-0.035156;0.037109;1.039062;
80769;-0.034180;0.038086;1.038086;
80919;-0.033203;0.038086;1.039062;
81049;-0.033203;0.039062;1.039062;
81190;-0.035156;0.038086;1.039062;
81329;-0.035156;0.037109;1.040039;
81481;-0.035156;0.038086;1.039062;
81619;-0.034180;0.039062;1.039062;
81759;-0.034180;0.040039;1.039062;
81899;-0.033203;0.040039;1.039062;
82044;-0.034180;0.040039;1.041016;
82189;-0.034180;0.039062;1.038086;
82334;-0.034180;0.038086;1.038086;
82473;-0.034180;0.040039;1.040039;
82614;-0.034180;0.040039;1.039062;
82754;-0.034180;0.038086;1.039062;
82894;-0.034180;0.036133;1.038086;
83019;-0.034180;0.040039;1.039062;
83164;-0.034180;0.040039;1.041992;
83304;-0.034180;0.039062;1.036133;
83444;-0.034180;0.037109;1.037109;
83584;-0.035156;0.039062;1.041016;
83719;-0.033203;0.039062;1.039062;
83869;-0.033203;0.039062;1.039062;
84009;-0.034180;0.038086;1.039062;
84159;-0.034180;0.038086;1.038086;
84309;-0.033203;0.040039;1.040039;
84449;-0.034180;0.038086;1.039062;
84590;-0.035156;0.038086;1.040039;
84729;-0.033203;0.039062;1.039062;
84869;-0.033203;0.039062;1.039062;
85009;-0.034180;0.039062;1.040039;
85159;-0.035156;0.038086;1.038086;
85299;-0.034180;0.038086;1.039062;
85429;-0.034180;0.039062;1.040039;
85580;-0.035156;0.038086;1.039062;
85719;-0.034180;0.038086;1.040039;
85869;-0.034180;0.040039;1.039062;
86009;-0.034180;0.038086;1.038086;
86149;-0.033203;0.038086;1.039062;
86304;-0.034180;0.037109;1.038086;
86441;-0.034180;0.040039;1.040039;
86584;-0.035156;0.039062;1.040039;
86734;-0.033203;0.040039;1.039062;
86873;-0.034180;0.041016;1.040039;
87024;-0.035156;0.038086;1.040039;
87154;-0.032227;0.039062;1.039062;
87289;-0.036133;0.039062;1.037109;
87433;-0.035156;0.039062;1.039062;
87574;-0.034180;0.039062;1.041016;
87724;-0.034180;0.039062;1.038086;
87859;-0.034180;0.039062;1.041016;
87989;-0.034180;0.038086;1.038086;
88129;-0.034180;0.038086;1.039062;
88279;-0.033203;0.037109;1.039062;
88409;-0.034180;0.038086;1.037109;
88549;-0.034180;0.038086;1.038086;
88679;-0.034180;0.040039;1.038086;
88809;-0.034180;0.038086;1.041016;
88949;-0.032227;0.040039;1.038086;
89089;-0.034180;0.037109;1.037109;
89244;-0.035156;0.037109;1.041992;
89391;-0.035156;0.040039;1.040039;
89533;-0.034180;0.039062;1.039062;
89674;-0.033203;0.039062;1.039062;
89810;-0.033203;0.038086;1.039062;
89949;-0.035156;0.040039;1.039062;
90089;-0.034180;0.038086;1.041016;
90219;-0.034180;0.039062;1.041016;
90359;-0.034180;0.039062;1.038086;
90509;-0.034180;0.039062;1.041016;
90649;-0.033203;0.039062;1.038086;
90792;-0.033203;0.039062;1.039062;
90919;-0.035156;0.038086;1.038086;
91069;-0.034180;0.039062;1.040039;
91204;-0.033203;0.039062;1.040039;
91340;-0.034180;0.037109;1.040039;
91484;-0.034180;0.040039;1.038086;
91624;-0.034180;0.038086;1.040039;
91764;-0.033203;0.038086;1.040039;
91914;-0.033203;0.039062;1.039062;
92049;-0.033203;0.039062;1.039062;
92179;-0.033203;0.039062;1.041016;
92324;-0.033203;0.041016;1.040039;
92464;-0.034180;0.040039;1.041992;
92604;-0.034180;0.039062;1.037109;
92742;-0.034180;0.039062;1.039062;
92879;-0.035156;0.038086;1.039062;
93009;-0.032227;0.037109;1.039062;
93139;-0.034180;0.038086;1.038086;
93279;-0.034180;0.037109;1.039062;
93419;-0.034180;0.038086;1.040039;
93570;-0.034180;0.039062;1.038086;
93709;-0.034180;0.039062;1.039062;
93849;-0.034180;0.039062;1.038086;
93989;-0.034180;0.039062;1.041016;
94129;-0.033203;0.039062;1.039062;
94269;-0.034180;0.038086;1.039062;
94419;-0.036133;0.038086;1.040039;
94571;-0.034180;0.039062;1.039062;
94709;-0.033203;0.038086;1.038086;
94850;-0.032227;0.039062;1.040039;
94999;-0.034180;0.037109;1.040039;
95140;-0.034180;0.038086;1.040039;
95289;-0.036133;0.037109;1.041016;
95440;-0.032227;0.038086;1.040039;
95579;-0.033203;0.040039;1.039062;
95724;-0.035156;0.036133;1.037109;
95859;-0.035156;0.038086;1.041016;
96001;-0.034180;0.040039;1.039062;
96139;-0.033203;0.039062;1.040039;
96279;-0.034180;0.039062;1.040039;
96424;-0.034180;0.039062;1.038086;
96564;-0.033203;0.039062;1.040039;
96704;-0.034180;0.038086;1.039062;
96839;-0.035156;0.039062;1.039062;
96979;-0.033203;0.038086;1.038086;
97123;-0.033203;0.039062;1.038086;
97263;-0.035156;0.038086;1.039062;
97404;-0.034180;0.039062;1.039062;
97544;-0.033203;0.041016;1.038086;
97670;-0.034180;0.037109;1.038086;
97811;-0.034180;0.038086;1.038086;
97963;-0.034180;0.039062;1.040039;
98099;-0.034180;0.039062;1.039062;
98239;-0.035156;0.039062;1.040039;
98369;-0.033203;0.038086;1.039062;
98499;-0.035156;0.037109;1.038086;
98629;-0.036133;0.037109;1.039062;
98769;-0.033203;0.040039;1.040039;
98909;-0.034180;0.039062;1.039062;
99049;-0.033203;0.039062;1.039062;
99179;-0.035156;0.037109;1.038086;
99309;-0.035156;0.038086;1.039062;
99449;-0.033203;0.040039;1.039062;
99589;-0.033203;0.039062;1.039062;
99729;-0.035156;0.039062;1.038086;
99869;-0.034180;0.038086;1.038086;
100009;-0.033203;0.039062;1.038086;
100149;-0.033203;0.039062;1.039062;
100304;-0.034180;0.039062;1.039062;
100454;-0.035156;0.037109;1.038086;
100579;-0.034180;0.038086;1.039062;
100714;-0.034180;0.038086;1.041016;
100854;-0.034180;0.040039;1.038086;
100993;-0.032227;0.039062;1.038086;
101139;-0.033203;0.038086;1.040039;
101279;-0.036133;0.038086;1.040039;
101420;-0.035156;0.037109;1.039062;
101574;-0.034180;0.036133;1.040039;
101713;-0.032227;0.040039;1.040039;
101853;-0.032227;0.038086;1.039062;
101994;-0.034180;0.039062;1.040039;
102130;-0.034180;0.038086;1.039062;
102269;-0.033203;0.039062;1.038086;
102409;-0.035156;0.037109;1.040039;
102559;-0.034180;0.038086;1.040039;
102713;-0.034180;0.040039;1.039062;
102859;-0.033203;0.039062;1.041016;
102999;-0.036133;0.037109;1.039062;
103139;-0.034180;0.037109;1.039062;
103282;-0.032227;0.037109;1.039062;
103429;-0.034180;0.040039;1.041016;
103580;-0.033203;0.039062;1.040039;
103729;-0.033203;0.040039;1.040039;
103869;-0.034180;0.036133;1.039062;
104009;-0.033203;0.038086;1.039062;
104139;-0.034180;0.039062;1.040039;
104280;-0.034180;0.039062;1.040039;
104429;-0.033203;0.039062;1.039062;
104559;-0.033203;0.038086;1.039062;
104699;-0.034180;0.038086;1.041016;
104829;-0.034180;0.039062;1.040039;
104969;-0.033203;0.040039;1.040039;
105109;-0.034180;0.038086;1.041016;
105253;-0.034180;0.038086;1.039062;
105379;-0.034180;0.040039;1.039062;
105529;-0.034180;0.039062;1.038086;
105659;-0.033203;0.039062;1.039062;
105799;-0.033203;0.039062;1.039062;
105944;-0.034180;0.038086;1.041016;
106084;-0.035156;0.038086;1.041016;
106233;-0.034180;0.038086;1.041016;
106370;-0.034180;0.037109;1.038086;
106514;-0.034180;0.037109;1.038086;
106654;-0.034180;0.040039;1.041016;
106794;-0.034180;0.039062;1.039062;
106934;-0.033203;0.039062;1.039062;
107069;-0.034180;0.039062;1.039062;
107199;-0.033203;0.037109;1.038086;
107334;-0.033203;0.039062;1.041016;
107474;-0.034180;0.038086;1.039062;
107614;-0.033203;0.039062;1.040039;
107754;-0.034180;0.039062;1.040039;
107889;-0.033203;0.039062;1.038086;
108030;-0.032227;0.040039;1.039062;
108179;-0.033203;0.039062;1.039062;
108329;-0.034180;0.040039;1.041016;
108470;-0.033203;0.040039;1.039062;
108619;-0.033203;0.038086;1.039062;
108769;-0.034180;0.040039;1.041016;
108909;-0.034180;0.038086;1.040039;
109060;-0.035156;0.038086;1.040039;
109209;-0.034180;0.039062;1.038086;
109349;-0.033203;0.038086;1.038086;
109479;-0.033203;0.038086;1.039062;
109619;-0.033203;0.038086;1.038086;
109759;-0.034180;0.039062;1.040039;
109889;-0.034180;0.038086;1.040039;
110029;-0.033203;0.039062;1.039062;
110169;-0.034180;0.039062;1.041016;
110309;-0.033203;0.038086;1.040039;
110449;-0.033203;0.039062;1.039062;
110589;-0.034180;0.038086;1.040039;
110719;-0.033203;0.039062;1.039062;
110859;-0.034180;0.040039;1.039062;
111014;-0.034180;0.038086;1.040039;
111154;-0.034180;0.037109;1.040039;
111294;-0.034180;0.037109;1.040039;
111439;-0.034180;0.037109;1.040039;
111579;-0.033203;0.038086;1.040039;
111714;-0.035156;0.039062;1.039062;
111853;-0.034180;0.040039;1.040039;
111993;-0.034180;0.037109;1.040039;
112144;-0.033203;0.039062;1.039062;
112269;-0.034180;0.037109;1.039062;
112399;-0.035156;0.037109;1.038086;
112554;-0.035156;0.037109;1.040039;
112689;-0.034180;0.040039;1.039062;
112822;-0.034180;0.039062;1.039062;
112959;-0.034180;0.038086;1.038086;
113110;-0.035156;0.038086;1.039062;
113259;-0.034180;0.038086;1.039062;
113399;-0.032227;0.039062;1.039062;
113549;-0.033203;0.040039;1.039062;
113689;-0.034180;0.038086;1.038086;
113840;-0.034180;0.039062;1.039062;
113989;-0.033203;0.040039;1.040039;
114139;-0.034180;0.036133;1.039062;
114279;-0.033203;0.039062;1.040039;
114429;-0.034180;0.039062;1.040039;
114579;-0.034180;0.039062;1.038086;
114709;-0.033203;0.037109;1.038086;
114849;-0.034180;0.038086;1.040039;
114979;-0.033203;0.039062;1.039062;
115134;-0.035156;0.039062;1.039062;
115279;-0.033203;0.039062;1.040039;
115430;-0.034180;0.040039;1.040039;
115569;-0.035156;0.038086;1.040039;
115713;-0.034180;0.038086;1.040039;
115854;-0.033203;0.039062;1.039062;
115994;-0.033203;0.038086;1.040039;
116134;-0.034180;0.039062;1.040039;
116279;-0.034180;0.040039;1.039062;
116423;-0.033203;0.039062;1.039062;
116564;-0.034180;0.038086;1.039062;
116704;-0.034180;0.038086;1.039062;
116840;-0.034180;0.038086;1.040039;
116984;-0.034180;0.039062;1.039062;
117134;-0.034180;0.038086;1.040039;
117274;-0.034180;0.038086;1.038086;
117414;-0.034180;0.038086;1.039062;
117549;-0.033203;0.040039;1.039062;
117690;-0.034180;0.039062;1.039062;
117829;-0.035156;0.037109;1.038086;
117970;-0.034180;0.038086;1.037109;
118110;-0.034180;0.040039;1.041016;
118249;-0.034180;0.038086;1.040039;
118394;-0.034180;0.040039;1.037109;
118529;-0.034180;0.038086;1.038086;
118669;-0.034180;0.040039;1.040039;
118820;-0.035156;0.037109;1.040039;
118950;-0.034180;0.039062;1.038086;
119089;-0.033203;0.040039;1.039062;
119229;-0.035156;0.039062;1.039062;
119369;-0.034180;0.038086;1.040039;
119509;-0.034180;0.037109;1.040039;
119639;-0.033203;0.039062;1.038086;
119789;-0.033203;0.039062;1.040039;
119929;-0.034180;0.038086;1.041016;
120080;-0.033203;0.039062;1.040039;
120220;-0.034180;0.038086;1.038086;
120354;-0.035156;0.038086;1.040039;
120493;-0.033203;0.039062;1.039062;
120619;-0.035156;0.037109;1.039062;
120753;-0.034180;0.038086;1.039062;
120889;-0.034180;0.038086;1.040039;
121029;-0.034180;0.040039;1.039062;
121183;-0.035156;0.039062;1.040039;
121323;-0.034180;0.040039;1.037109;
121464;-0.034180;0.039062;1.038086;
121600;-0.034180;0.039062;1.041016;
121739;-0.034180;0.040039;1.038086;
121884;-0.034180;0.038086;1.038086;
122023;-0.033203;0.039062;1.041016;
122164;-0.035156;0.037109;1.038086;
122299;-0.033203;0.038086;1.039062;
122451;-0.034180;0.039062;1.038086;
122589;-0.035156;0.038086;1.038086;
122739;-0.034180;0.038086;1.040039;
122879;-0.034180;0.039062;1.040039;
123011;-0.033203;0.039062;1.038086;
123150;-0.033203;0.039062;1.038086;
123279;-0.034180;0.039062;1.040039;
123420;-0.034180;0.040039;1.039062;
123559;-0.033203;0.038086;1.038086;
123699;-0.034180;0.038086;1.039062;
123849;-0.033203;0.039062;1.039062;
124001;-0.034180;0.039062;1.040039;
124149;-0.034180;0.039062;1.039062;
124289;-0.034180;0.040039;1.040039;
124439;-0.034180;0.037109;1.039062;
124579;-0.034180;0.037109;1.038086;
124719;-0.034180;0.040039;1.040039;
124849;-0.034180;0.039062;1.039062;
125000;-0.034180;0.036133;1.037109;
125139;-0.034180;0.038086;1.038086;
125284;-0.034180;0.037109;1.038086;
125423;-0.034180;0.039062;1.041016;
125549;-0.034180;0.039062;1.038086;
125691;-0.034180;0.039062;1.038086;
125824;-0.034180;0.038086;1.038086;
125953;-0.033203;0.039062;1.040039;
126094;-0.034180;0.038086;1.040039;
126243;-0.033203;0.039062;1.039062;
126379;-0.032227;0.039062;1.040039;
126509;-0.035156;0.036133;1.040039;
126654;-0.035156;0.038086;1.039062;
126793;-0.033203;0.039062;1.040039;
126934;-0.034180;0.038086;1.039062;
127074;-0.035156;0.038086;1.040039;
127209;-0.034180;0.039062;1.040039;
127339;-0.035156;0.039062;1.041016;
127469;-0.033203;0.038086;1.040039;
127613;-0.034180;0.037109;1.039062;
127751;-0.034180;0.038086;1.039062;
127889;-0.033203;0.039062;1.039062;
128030;-0.034180;0.039062;1.040039;
128179;-0.034180;0.037109;1.039062;
128319;-0.034180;0.039062;1.039062;
128459;-0.033203;0.038086;1.039062;
128589;-0.033203;0.038086;1.038086;
128733;-0.034180;0.039062;1.040039;
128860;-0.034180;0.039062;1.040039;
129009;-0.034180;0.039062;1.039062;
129149;-0.033203;0.038086;1.038086;
129299;-0.033203;0.039062;1.039062;
129449;-0.034180;0.039062;1.040039;
129579;-0.034180;0.040039;1.040039;
129719;-0.035156;0.038086;1.039062;
129859;-0.034180;0.038086;1.038086;
130009;-0.033203;0.040039;1.041016;
130149;-0.034180;0.040039;1.040039;
130289;-0.034180;0.040039;1.038086;
130433;-0.034180;0.036133;1.039062;
130569;-0.033203;0.040039;1.038086;
130699;-0.034180;0.039062;1.039062;
130839;-0.034180;0.039062;1.039062;
130979;-0.034180;0.038086;1.038086;
131129;-0.033203;0.039062;1.039062;
131279;-0.033203;0.036133;1.040039;
131409;-0.034180;0.039062;1.041016;
131544;-0.034180;0.040039;1.038086;
131690;-0.034180;0.039062;1.038086;
131839;-0.034180;0.038086;1.039062;
131989;-0.035156;0.039062;1.041016;
132129;-0.034180;0.039062;1.040039;
132269;-0.034180;0.038086;1.039062;
132409;-0.033203;0.038086;1.038086;
132540;-0.034180;0.038086;1.040039;
132684;-0.034180;0.039062;1.040039;
132823;-0.032227;0.039062;1.040039;
132964;-0.034180;0.038086;1.039062;
133099;-0.034180;0.038086;1.039062;
133243;-0.033203;0.039062;1.038086;
133384;-0.035156;0.039062;1.040039;
133524;-0.033203;0.038086;1.038086;
133664;-0.034180;0.038086;1.040039;
133799;-0.035156;0.037109;1.039062;
133939;-0.033203;0.039062;1.040039;
134069;-0.036133;0.036133;1.040039;
134203;-0.034180;0.038086;1.040039;
134330;-0.033203;0.038086;1.039062;
134459;-0.034180;0.037109;1.039062;
134599;-0.033203;0.039062;1.041016;
134740;-0.034180;0.039062;1.040039;
134879;-0.034180;0.038086;1.039062;
135020;-0.034180;0.039062;1.039062;
135161;-0.034180;0.038086;1.039062;
135309;-0.033203;0.038086;1.037109;
135439;-0.034180;0.039062;1.040039;
135579;-0.033203;0.037109;1.038086;
135719;-0.034180;0.038086;1.039062;
135860;-0.034180;0.038086;1.039062;
135999;-0.034180;0.038086;1.038086;
136149;-0.034180;0.038086;1.038086;
136299;-0.033203;0.039062;1.038086;
136439;-0.034180;0.037109;1.039062;
136579;-0.035156;0.038086;1.038086;
136719;-0.035156;0.038086;1.040039;
136859;-0.034180;0.038086;1.040039;
137004;-0.033203;0.039062;1.040039;
137144;-0.033203;0.038086;1.039062;
137294;-0.034180;0.038086;1.041016;
137433;-0.033203;0.040039;1.039062;
137559;-0.035156;0.040039;1.040039;
137709;-0.034180;0.039062;1.040039;
137849;-0.033203;0.040039;1.039062;
137993;-0.034180;0.039062;1.039062;
138134;-0.033203;0.039062;1.040039;
138274;-0.035156;0.037109;1.039062;
138409;-0.034180;0.038086;1.038086;
138550;-0.033203;0.040039;1.041016;
138689;-0.034180;0.039062;1.040039;
138830;-0.034180;0.038086;1.038086;
138969;-0.035156;0.037109;1.038086;
139119;-0.033203;0.037109;1.041016;
139259;-0.034180;0.038086;1.041016;
139409;-0.035156;0.038086;1.040039;
139559;-0.034180;0.038086;1.038086;
139709;-0.035156;0.039062;1.038086;
139849;-0.035156;0.039062;1.039062;
139994;-0.034180;0.038086;1.039062;
140129;-0.034180;0.038086;1.039062;
140281;-0.034180;0.038086;1.040039;
140429;-0.034180;0.038086;1.039062;
140579;-0.034180;0.039062;1.040039;
140719;-0.035156;0.040039;1.040039;
140869;-0.034180;0.040039;1.038086;
141009;-0.033203;0.038086;1.039062;
141161;-0.034180;0.039062;1.040039;
141309;-0.035156;0.038086;1.039062;
141452;-0.034180;0.038086;1.038086;
141589;-0.033203;0.038086;1.038086;
141719;-0.034180;0.039062;1.040039;
141849;-0.033203;0.036133;1.039062;
141989;-0.033203;0.038086;1.039062;
142139;-0.036133;0.036133;1.039062;
142273;-0.035156;0.038086;1.038086;
142414;-0.032227;0.039062;1.039062;
142549;-0.033203;0.040039;1.039062;
142683;-0.035156;0.037109;1.039062;
142823;-0.034180;0.038086;1.039062;
142963;-0.033203;0.039062;1.039062;
143103;-0.035156;0.038086;1.039062;
143239;-0.033203;0.039062;1.039062;
143384;-0.035156;0.039062;1.039062;
143534;-0.034180;0.037109;1.039062;
143674;-0.034180;0.039062;1.038086;
143814;-0.034180;0.038086;1.039062;
143949;-0.035156;0.039062;1.040039;
144100;-0.034180;0.039062;1.040039;
144249;-0.033203;0.040039;1.038086;
144389;-0.034180;0.039062;1.039062;
144539;-0.033203;0.039062;1.039062;
144689;-0.035156;0.037109;1.039062;
144829;-0.034180;0.038086;1.038086;
144960;-0.034180;0.038086;1.038086;
145099;-0.034180;0.038086;1.038086;
145239;-0.034180;0.039062;1.040039;
145380;-0.034180;0.039062;1.038086;
145529;-0.034180;0.038086;1.038086;
145680;-0.033203;0.039062;1.039062;
145814;-0.034180;0.039062;1.038086;
145949;-0.033203;0.040039;1.038086;
146089;-0.035156;0.039062;1.039062;
146239;-0.034180;0.039062;1.037109;
146381;-0.033203;0.037109;1.039062;
146529;-0.033203;0.039062;1.039062;
146669;-0.034180;0.039062;1.036133;
146810;-0.034180;0.038086;1.038086;
146959;-0.034180;0.038086;1.038086;
147113;-0.035156;0.039062;1.040039;
147253;-0.034180;0.038086;1.040039;
147389;-0.033203;0.039062;1.038086;
147533;-0.034180;0.040039;1.039062;
147669;-0.034180;0.039062;1.039062;
147799;-0.035156;0.038086;1.038086;
147944;-0.034180;0.039062;1.039062;
148084;-0.033203;0.039062;1.040039;
148224;-0.034180;0.037109;1.039062;
148363;-0.032227;0.039062;1.038086;
148489;-0.035156;0.038086;1.039062;
148629;-0.035156;0.037109;1.039062;
148784;-0.034180;0.039062;1.039062;
148924;-0.033203;0.038086;1.040039;
149059;-0.033203;0.039062;1.039062;
149189;-0.033203;0.039062;1.039062;
149329;-0.034180;0.039062;1.039062;
149470;-0.034180;0.039062;1.039062;
149619;-0.033203;0.038086;1.039062;
149750;-0.035156;0.037109;1.037109;
149891;-0.034180;0.038086;1.041016;
150033;-0.034180;0.039062;1.039062;
150169;-0.034180;0.037109;1.039062;
150299;-0.034180;0.038086;1.040039;
150449;-0.034180;0.037109;1.038086;
150579;-0.033203;0.038086;1.037109;
150719;-0.035156;0.040039;1.040039;
150849;-0.033203;0.038086;1.039062;
150979;-0.034180;0.041016;1.039062;
151119;-0.035156;0.038086;1.039062;
151259;-0.034180;0.038086;1.038086;
151399;-0.035156;0.039062;1.038086;
151554;-0.036133;0.037109;1.038086;
151689;-0.033203;0.039062;1.037109;
151821;-0.033203;0.039062;1.038086;
151959;-0.036133;0.037109;1.039062;
152099;-0.035156;0.038086;1.039062;
152249;-0.035156;0.037109;1.038086;
152393;-0.033203;0.037109;1.038086;
152533;-0.033203;0.038086;1.038086;
152669;-0.033203;0.040039;1.040039;
152810;-0.033203;0.039062;1.040039;
152951;-0.034180;0.039062;1.037109;
153089;-0.034180;0.038086;1.038086;
153243;-0.035156;0.037109;1.039062;
153393;-0.034180;0.040039;1.039062;
153533;-0.035156;0.039062;1.039062;
153669;-0.032227;0.039062;1.039062;
153809;-0.032227;0.039062;1.039062;
153954;-0.036133;0.038086;1.038086;
154094;-0.035156;0.037109;1.039062;
154234;-0.034180;0.038086;1.040039;
154374;-0.034180;0.039062;1.039062;
154499;-0.034180;0.039062;1.040039;
154644;-0.032227;0.038086;1.040039;
154784;-0.035156;0.036133;1.039062;
154909;-0.034180;0.039062;1.038086;
155039;-0.034180;0.039062;1.038086;
155190;-0.035156;0.040039;1.041016;
155330;-0.034180;0.039062;1.040039;
155479;-0.035156;0.039062;1.041992;
155619;-0.033203;0.037109;1.036133;
155759;-0.034180;0.037109;1.038086;
155899;-0.034180;0.040039;1.040039;
156040;-0.034180;0.039062;1.039062;
156179;-0.034180;0.038086;1.037109;
156309;-0.034180;0.038086;1.038086;
156449;-0.034180;0.039062;1.039062;
156590;-0.034180;0.038086;1.040039;
156739;-0.034180;0.039062;1.039062;
156879;-0.033203;0.039062;1.039062;
157034;-0.032227;0.038086;1.041992;
157159;-0.033203;0.038086;1.039062;
157299;-0.032227;0.040039;1.038086;
157450;-0.035156;0.038086;1.039062;
157593;-0.033203;0.038086;1.037109;
157734;-0.033203;0.040039;1.041016;
157874;-0.034180;0.038086;1.040039;
158009;-0.032227;0.039062;1.040039;
158149;-0.033203;0.039062;1.040039;
158304;-0.035156;0.038086;1.038086;
158454;-0.034180;0.036133;1.040039;
158594;-0.034180;0.038086;1.038086;
158734;-0.034180;0.038086;1.039062;
158872;-0.034180;0.040039;1.040039;
158999;-0.033203;0.040039;1.039062;
159139;-0.034180;0.038086;1.040039;
159289;-0.033203;0.038086;1.040039;
159439;-0.032227;0.037109;1.039062;
159579;-0.034180;0.039062;1.040039;
159730;-0.033203;0.040039;1.039062;
159879;-0.034180;0.038086;1.040039;
160009;-0.035156;0.039062;1.039062;
160159;-0.035156;0.038086;1.039062;
160309;-0.035156;0.038086;1.038086;
160461;-0.034180;0.038086;1.040039;
160609;-0.034180;0.039062;1.040039;
160759;-0.034180;0.040039;1.039062;
160909;-0.035156;0.038086;1.039062;
161039;-0.034180;0.039062;1.040039;
161179;-0.034180;0.037109;1.039062;
161309;-0.034180;0.038086;1.039062;
161444;-0.032227;0.039062;1.038086;
161584;-0.034180;0.037109;1.038086;
161724;-0.033203;0.039062;1.039062;
161864;-0.035156;0.038086;1.039062;
161999;-0.034180;0.040039;1.038086;
162144;-0.034180;0.040039;1.038086;
162283;-0.035156;0.039062;1.040039;
162424;-0.034180;0.039062;1.040039;
162563;-0.035156;0.038086;1.041016;
162702;-0.034180;0.039062;1.037109;
162839;-0.034180;0.040039;1.039062;
162980;-0.033203;0.039062;1.039062;
163133;-0.033203;0.039062;1.039062;
163259;-0.035156;0.036133;1.038086;
163399;-0.034180;0.039062;1.040039;
163539;-0.034180;0.038086;1.039062;
163669;-0.034180;0.037109;1.038086;
163819;-0.033203;0.038086;1.039062;
163959;-0.034180;0.039062;1.038086;
164100;-0.035156;0.038086;1.040039;
164239;-0.035156;0.038086;1.040039;
164379;-0.033203;0.040039;1.040039;
164509;-0.033203;0.039062;1.039062;
164659;-0.034180;0.039062;1.040039;
164809;-0.034180;0.038086;1.039062;
164949;-0.033203;0.038086;1.037109;
165099;-0.033203;0.039062;1.038086;
165239;-0.034180;0.040039;1.041016;
165369;-0.033203;0.040039;1.038086;
165509;-0.034180;0.037109;1.038086;
165659;-0.034180;0.038086;1.039062;
165799;-0.033203;0.040039;1.040039;
165939;-0.034180;0.038086;1.038086;
166089;-0.034180;0.040039;1.040039;
166219;-0.034180;0.039062;1.041016;
166363;-0.034180;0.038086;1.037109;
166504;-0.033203;0.038086;1.040039;
166643;-0.034180;0.037109;1.038086;
166779;-0.034180;0.036133;1.039062;
166909;-0.033203;0.039062;1.039062;
167054;-0.034180;0.039062;1.040039;
167190;-0.033203;0.038086;1.039062;
167324;-0.034180;0.039062;1.039062;
167474;-0.034180;0.039062;1.040039;
167614;-0.034180;0.038086;1.040039;
167754;-0.032227;0.039062;1.040039;
167880;-0.034180;0.038086;1.039062;
168035;-0.034180;0.038086;1.040039;
168169;-0.034180;0.038086;1.039062;
168319;-0.034180;0.039062;1.040039;
168469;-0.034180;0.039062;1.039062;
168609;-0.035156;0.037109;1.039062;
168759;-0.035156;0.038086;1.038086;
168899;-0.033203;0.037109;1.039062;
169039;-0.033203;0.038086;1.037109;
169189;-0.034180;0.040039;1.041992;
169339;-0.035156;0.040039;1.039062;
169479;-0.034180;0.040039;1.038086;
169629;-0.034180;0.038086;1.037109;
169769;-0.034180;0.039062;1.037109;
169899;-0.034180;0.039062;1.039062;
170029;-0.034180;0.037109;1.038086;
170189;-0.034180;0.038086;1.038086;
170324;-0.033203;0.038086;1.040039;
170473;-0.034180;0.038086;1.039062;
170609;-0.033203;0.039062;1.040039;
170749;-0.034180;0.040039;1.039062;
170889;-0.034180;0.039062;1.038086;
171039;-0.034180;0.039062;1.039062;
171179;-0.034180;0.038086;1.039062;
171319;-0.034180;0.039062;1.039062;
171470;-0.036133;0.039062;1.040039;
171614;-0.034180;0.038086;1.039062;
171753;-0.034180;0.038086;1.038086;
171893;-0.034180;0.039062;1.039062;
172029;-0.033203;0.038086;1.038086;
172174;-0.035156;0.038086;1.040039;
172313;-0.033203;0.040039;1.039062;
172453;-0.035156;0.039062;1.039062;
172604;-0.035156;0.037109;1.040039;
172739;-0.034180;0.037109;1.040039;
172884;-0.033203;0.038086;1.038086;
173024;-0.033203;0.039062;1.040039;
173164;-0.036133;0.040039;1.038086;
173304;-0.035156;0.038086;1.040039;
173443;-0.035156;0.039062;1.039062;
173579;-0.034180;0.040039;1.039062;
173720;-0.035156;0.039062;1.040039;
173859;-0.034180;0.037109;1.038086;
174009;-0.034180;0.038086;1.037109;
174149;-0.035156;0.039062;1.040039;
174279;-0.034180;0.038086;1.037109;
174419;-0.033203;0.039062;1.040039;
174572;-0.033203;0.040039;1.038086;
174709;-0.035156;0.038086;1.040039;
174844;-0.035156;0.037109;1.040039;
174989;-0.034180;0.040039;1.038086;
175129;-0.033203;0.040039;1.039062;
175280;-0.032227;0.039062;1.039062;
175420;-0.035156;0.037109;1.040039;
175569;-0.035156;0.039062;1.039062;
175713;-0.033203;0.039062;1.039062;
175839;-0.034180;0.037109;1.038086;
175989;-0.033203;0.039062;1.039062;
176129;-0.034180;0.039062;1.040039;
176279;-0.033203;0.040039;1.039062;
176429;-0.034180;0.038086;1.039062;
176569;-0.035156;0.038086;1.039062;
176709;-0.033203;0.040039;1.038086;
176849;-0.033203;0.040039;1.039062;
176999;-0.033203;0.038086;1.038086;
177139;-0.034180;0.041016;1.039062;
177290;-0.034180;0.038086;1.039062;
177439;-0.034180;0.039062;1.040039;
177589;-0.034180;0.038086;1.039062;
177723;-0.034180;0.039062;1.038086;
177864;-0.033203;0.039062;1.039062;
178004;-0.034180;0.038086;1.039062;
178129;-0.034180;0.039062;1.039062;
178259;-0.035156;0.041016;1.039062;
178399;-0.034180;0.039062;1.040039;
178543;-0.034180;0.039062;1.038086;
178689;-0.034180;0.038086;1.038086;
178824;-0.034180;0.038086;1.040039;
178964;-0.035156;0.039062;1.040039;
179104;-0.034180;0.040039;1.040039;
179245;-0.033203;0.038086;1.038086;
179379;-0.033203;0.039062;1.038086;
179533;-0.034180;0.038086;1.040039;
179669;-0.034180;0.039062;1.040039;
179809;-0.033203;0.038086;1.039062;
179950;-0.033203;0.039062;1.038086;
180099;-0.034180;0.039062;1.039062;
180229;-0.035156;0.039062;1.040039;
180369;-0.034180;0.040039;1.040039;
180509;-0.034180;0.037109;1.037109;
180639;-0.035156;0.039062;1.040039;
180769;-0.034180;0.038086;1.040039;
180919;-0.034180;0.040039;1.039062;
181061;-0.033203;0.037109;1.039062;
181201;-0.033203;0.040039;1.039062;
181329;-0.035156;0.039062;1.039062;
181459;-0.033203;0.038086;1.038086;
181600;-0.034180;0.039062;1.040039;
181739;-0.035156;0.039062;1.039062;
181879;-0.034180;0.039062;1.039062;
182019;-0.034180;0.038086;1.040039;
182171;-0.034180;0.038086;1.037109;
182309;-0.034180;0.038086;1.039062;
182439;-0.035156;0.037109;1.039062;
182569;-0.033203;0.039062;1.038086;
182699;-0.035156;0.038086;1.040039;
182839;-0.034180;0.038086;1.038086;
182979;-0.034180;0.039062;1.039062;
183120;-0.035156;0.038086;1.040039;
183269;-0.034180;0.040039;1.039062;
183413;-0.033203;0.039062;1.037109;
183554;-0.033203;0.040039;1.039062;
183704;-0.034180;0.039062;1.040039;
183842;-0.035156;0.037109;1.037109;
183989;-0.035156;0.036133;1.039062;
184134;-0.034180;0.038086;1.039062;
184274;-0.035156;0.038086;1.040039;
184414;-0.033203;0.040039;1.040039;
184554;-0.033203;0.041016;1.038086;
184700;-0.034180;0.039062;1.039062;
184844;-0.035156;0.039062;1.039062;
184983;-0.033203;0.038086;1.038086;
185120;-0.033203;0.038086;1.040039;
185259;-0.035156;0.039062;1.038086;
185389;-0.034180;0.038086;1.038086;
185529;-0.035156;0.041016;1.040039;
185659;-0.034180;0.040039;1.037109;
185799;-0.034180;0.038086;1.039062;
185939;-0.034180;0.038086;1.039062;
186079;-0.035156;0.038086;1.038086;
186209;-0.034180;0.039062;1.040039;
186350;-0.034180;0.039062;1.040039;
186479;-0.034180;0.038086;1.037109;
186609;-0.035156;0.037109;1.039062;
186739;-0.035156;0.038086;1.040039;
186889;-0.035156;0.039062;1.038086;
187029;-0.034180;0.039062;1.040039;
187179;-0.035156;0.038086;1.040039;
187319;-0.034180;0.039062;1.039062;
187470;-0.033203;0.039062;1.039062;
187619;-0.034180;0.039062;1.040039;
187769;-0.034180;0.040039;1.039062;
187909;-0.034180;0.039062;1.039062;
188054;-0.034180;0.039062;1.039062;
188193;-0.034180;0.039062;1.039062;
188330;-0.034180;0.039062;1.039062;
188469;-0.034180;0.038086;1.038086;
188613;-0.034180;0.039062;1.038086;
188754;-0.034180;0.039062;1.039062;
188894;-0.034180;0.039062;1.037109;
189029;-0.034180;0.038086;1.039062;
189174;-0.035156;0.038086;1.040039;
189324;-0.035156;0.037109;1.038086;
189463;-0.034180;0.038086;1.039062;
189604;-0.034180;0.040039;1.039062;
189744;-0.035156;0.039062;1.038086;
189874;-0.034180;0.040039;1.039062;
190010;-0.035156;0.036133;1.040039;
190159;-0.036133;0.038086;1.039062;
190309;-0.033203;0.041016;1.038086;
190439;-0.033203;0.039062;1.039062;
190579;-0.034180;0.037109;1.039062;
190720;-0.033203;0.040039;1.039062;
190859;-0.034180;0.037109;1.039062;
190999;-0.034180;0.038086;1.040039;
191129;-0.034180;0.038086;1.039062;
191269;-0.034180;0.036133;1.039062;
191420;-0.035156;0.038086;1.040039;
191559;-0.035156;0.038086;1.037109;
191699;-0.033203;0.038086;1.038086;
191839;-0.034180;0.038086;1.040039;
191990;-0.034180;0.039062;1.039062;
192139;-0.034180;0.038086;1.039062;
192280;-0.035156;0.037109;1.038086;
192422;-0.034180;0.038086;1.037109;
192549;-0.033203;0.039062;1.040039;
192679;-0.034180;0.038086;1.040039;
192819;-0.033203;0.039062;1.038086;
192959;-0.035156;0.037109;1.040039;
193100;-0.035156;0.038086;1.040039;
193229;-0.035156;0.039062;1.039062;
193369;-0.034180;0.036133;1.040039;
193519;-0.034180;0.039062;1.039062;
193669;-0.033203;0.039062;1.039062;
193819;-0.034180;0.039062;1.040039;
193960;-0.035156;0.038086;1.038086;
194103;-0.034180;0.039062;1.040039;
194244;-0.035156;0.039062;1.039062;
194384;-0.034180;0.039062;1.040039;
194525;-0.033203;0.039062;1.039062;
194669;-0.035156;0.037109;1.039062;
194813;-0.034180;0.038086;1.038086;
194953;-0.035156;0.039062;1.039062;
195094;-0.034180;0.039062;1.040039;
195233;-0.034180;0.037109;1.038086;
195369;-0.034180;0.038086;1.039062;
195524;-0.034180;0.038086;1.038086;
195674;-0.034180;0.038086;1.041016;
195814;-0.035156;0.038086;1.038086;
195951;-0.033203;0.038086;1.038086;
196089;-0.034180;0.038086;1.038086;
196229;-0.034180;0.039062;1.039062;
196370;-0.034180;0.039062;1.040039;
196519;-0.034180;0.039062;1.040039;
196669;-0.034180;0.037109;1.038086;
196799;-0.033203;0.038086;1.039062;
196929;-0.034180;0.039062;1.039062;
197069;-0.033203;0.040039;1.040039;
197199;-0.034180;0.039062;1.040039;
197339;-0.033203;0.039062;1.038086;
197480;-0.035156;0.038086;1.037109;
197629;-0.034180;0.038086;1.041016;
197769;-0.035156;0.039062;1.040039;
197924;-0.035156;0.038086;1.036133;
198059;-0.033203;0.038086;1.040039;
198189;-0.034180;0.039062;1.040039;
198319;-0.033203;0.040039;1.037109;
198453;-0.035156;0.037109;1.039062;
198583;-0.033203;0.040039;1.040039;
198709;-0.033203;0.038086;1.039062;
198849;-0.035156;0.039062;1.038086;
198989;-0.034180;0.038086;1.040039;
199119;-0.033203;0.039062;1.039062;
199263;-0.033203;0.039062;1.041016;
199403;-0.034180;0.039062;1.039062;
199543;-0.034180;0.039062;1.039062;
199679;-0.035156;0.038086;1.037109;
199809;-0.034180;0.040039;1.041016;
199959;-0.035156;0.040039;1.041016;
200109;-0.035156;0.038086;1.040039;
200240;-0.033203;0.038086;1.038086;
200369;-0.034180;0.037109;1.039062;
200509;-0.034180;0.037109;1.038086;
200659;-0.034180;0.039062;1.039062;
200799;-0.034180;0.040039;1.040039;
200940;-0.034180;0.038086;1.039062;
201089;-0.034180;0.037109;1.038086;
201229;-0.034180;0.038086;1.039062;
201369;-0.035156;0.039062;1.039062;
201509;-0.035156;0.038086;1.040039;
201650;-0.034180;0.038086;1.040039;
201779;-0.032227;0.039062;1.039062;
201919;-0.035156;0.038086;1.038086;
202069;-0.035156;0.039062;1.038086;
202209;-0.035156;0.039062;1.041016;
202349;-0.035156;0.039062;1.036133;
202489;-0.034180;0.038086;1.036133;
202619;-0.035156;0.038086;1.038086;
202759;-0.034180;0.039062;1.039062;
202904;-0.033203;0.039062;1.040039;
203042;-0.036133;0.039062;1.039062;
203192;-0.034180;0.041016;1.039062;
203334;-0.034180;0.039062;1.040039;
203484;-0.034180;0.039062;1.038086;
203624;-0.033203;0.039062;1.038086;
203764;-0.033203;0.038086;1.037109;
203903;-0.034180;0.037109;1.040039;
204039;-0.034180;0.038086;1.040039;
204179;-0.034180;0.038086;1.039062;
204323;-0.036133;0.039062;1.039062;
204464;-0.033203;0.040039;1.037109;
204603;-0.033203;0.040039;1.041016;
204744;-0.034180;0.039062;1.037109;
204880;-0.033203;0.039062;1.040039;
205019;-0.036133;0.038086;1.037109;
205159;-0.035156;0.038086;1.039062;
205289;-0.034180;0.038086;1.040039;
205429;-0.034180;0.038086;1.037109;
205569;-0.033203;0.039062;1.040039;
205699;-0.034180;0.038086;1.038086;
205849;-0.034180;0.038086;1.038086;
206000;-0.034180;0.038086;1.037109;
206139;-0.034180;0.039062;1.040039;
206269;-0.035156;0.040039;1.039062;
206399;-0.033203;0.038086;1.038086;
206543;-0.035156;0.037109;1.039062;
206679;-0.034180;0.039062;1.038086;
206809;-0.033203;0.039062;1.037109;
206949;-0.034180;0.038086;1.039062;
207089;-0.034180;0.039062;1.040039;
207229;-0.035156;0.040039;1.039062;
207379;-0.035156;0.040039;1.040039;
207529;-0.034180;0.038086;1.037109;
207659;-0.034180;0.038086;1.038086;
207789;-0.034180;0.039062;1.041992;
207929;-0.034180;0.038086;1.038086;
208069;-0.034180;0.039062;1.039062;
208220;-0.034180;0.039062;1.040039;
208359;-0.034180;0.040039;1.037109;
208504;-0.034180;0.038086;1.039062;
208644;-0.033203;0.039062;1.041016;
208784;-0.034180;0.039062;1.039062;
208919;-0.034180;0.038086;1.038086;
209049;-0.034180;0.039062;1.038086;
209183;-0.034180;0.040039;1.040039;
209323;-0.035156;0.038086;1.039062;
209463;-0.034180;0.038086;1.040039;
209604;-0.035156;0.036133;1.038086;
209739;-0.034180;0.037109;1.037109;
209884;-0.033203;0.038086;1.038086;
210024;-0.034180;0.038086;1.040039;
210164;-0.033203;0.039062;1.039062;
210314;-0.034180;0.038086;1.038086;
210449;-0.034180;0.038086;1.039062;
210599;-0.034180;0.037109;1.038086;
210739;-0.035156;0.038086;1.039062;
210869;-0.034180;0.040039;1.039062;
211009;-0.033203;0.038086;1.038086;
211159;-0.033203;0.038086;1.039062;
211309;-0.033203;0.038086;1.041016;
211449;-0.035156;0.039062;1.039062;
211594;-0.034180;0.039062;1.040039;
211733;-0.034180;0.038086;1.039062;
211859;-0.034180;0.039062;1.038086;
211989;-0.034180;0.040039;1.041016;
212140;-0.035156;0.037109;1.037109;
212279;-0.034180;0.037109;1.038086;
212420;-0.034180;0.038086;1.039062;
212559;-0.034180;0.039062;1.039062;
212699;-0.034180;0.039062;1.038086;
212839;-0.034180;0.038086;1.039062;
212981;-0.034180;0.038086;1.040039;
213119;-0.035156;0.038086;1.038086;
213269;-0.035156;0.037109;1.037109;
213409;-0.033203;0.039062;1.039062;
213549;-0.033203;0.039062;1.039062;
213701;-0.034180;0.041016;1.040039;
213849;-0.035156;0.038086;1.036133;
213984;-0.034180;0.037109;1.039062;
214124;-0.033203;0.039062;1.038086;
214264;-0.033203;0.039062;1.040039;
214404;-0.035156;0.037109;1.037109;
214539;-0.034180;0.038086;1.037109;
214694;-0.035156;0.037109;1.040039;
214834;-0.035156;0.039062;1.038086;
214974;-0.035156;0.037109;1.039062;
215113;-0.034180;0.039062;1.038086;
215254;-0.034180;0.039062;1.040039;
215401;-0.033203;0.040039;1.039062;
215539;-0.033203;0.039062;1.037109;
215689;-0.035156;0.036133;1.039062;
215829;-0.034180;0.038086;1.040039;
215973;-0.034180;0.038086;1.037109;
216099;-0.034180;0.039062;1.039062;
216239;-0.033203;0.040039;1.039062;
216380;-0.034180;0.039062;1.038086;
216529;-0.034180;0.038086;1.038086;
216681;-0.033203;0.039062;1.040039;
216819;-0.033203;0.040039;1.039062;
216959;-0.033203;0.037109;1.037109;
217099;-0.034180;0.037109;1.038086;
217239;-0.035156;0.041016;1.039062;
217369;-0.035156;0.040039;1.040039;
217519;-0.034180;0.040039;1.038086;
217660;-0.035156;0.037109;1.038086;
217809;-0.034180;0.037109;1.037109;
217962;-0.034180;0.038086;1.038086;
218109;-0.035156;0.039062;1.040039;
218249;-0.034180;0.039062;1.039062;
218399;-0.033203;0.039062;1.040039;
218539;-0.035156;0.038086;1.039062;
218680;-0.034180;0.037109;1.038086;
218810;-0.034180;0.039062;1.039062;
218939;-0.033203;0.038086;1.037109;
219070;-0.035156;0.039062;1.039062;
219199;-0.035156;0.038086;1.039062;
219334;-0.034180;0.039062;1.040039;
219474;-0.035156;0.039062;1.039062;
219623;-0.032227;0.040039;1.039062;
219764;-0.033203;0.039062;1.039062;
219909;-0.034180;0.040039;1.040039;
220049;-0.034180;0.038086;1.037109;
220184;-0.034180;0.041016;1.037109;
220333;-0.035156;0.038086;1.039062;
220473;-0.035156;0.038086;1.039062;
220614;-0.033203;0.038086;1.039062;
220749;-0.034180;0.037109;1.039062;
220889;-0.034180;0.039062;1.039062;
221019;-0.033203;0.040039;1.038086;
221171;-0.034180;0.038086;1.040039;
221309;-0.034180;0.038086;1.040039;
221459;-0.034180;0.038086;1.040039;
221599;-0.034180;0.039062;1.038086;
221730;-0.036133;0.039062;1.039062;
221869;-0.034180;0.038086;1.039062;
222020;-0.034180;0.038086;1.038086;
222159;-0.034180;0.038086;1.039062;
222289;-0.034180;0.039062;1.039062;
222429;-0.033203;0.038086;1.038086;
222569;-0.034180;0.040039;1.040039;
222710;-0.036133;0.039062;1.041016;
222849;-0.035156;0.038086;1.038086;
222989;-0.033203;0.038086;1.039062;
223129;-0.034180;0.039062;1.040039;
223269;-0.034180;0.038086;1.039062;
223410;-0.032227;0.040039;1.039062;
223559;-0.035156;0.037109;1.040039;
223699;-0.034180;0.039062;1.039062;
223849;-0.034180;0.040039;1.038086;
223999;-0.034180;0.036133;1.038086;
224141;-0.035156;0.039062;1.039062;
224294;-0.034180;0.039062;1.040039;
224430;-0.033203;0.039062;1.039062;
224574;-0.034180;0.039062;1.039062;
224709;-0.034180;0.037109;1.039062;
224849;-0.034180;0.038086;1.038086;
225001;-0.033203;0.038086;1.038086;
225139;-0.034180;0.040039;1.040039;
225283;-0.035156;0.039062;1.040039;
225409;-0.033203;0.039062;1.038086;
225543;-0.035156;0.038086;1.040039;
225684;-0.034180;0.038086;1.039062;
225824;-0.034180;0.038086;1.038086;
225963;-0.034180;0.038086;1.041016;
226099;-0.033203;0.041016;1.039062;
226233;-0.033203;0.040039;1.039062;
226383;-0.034180;0.038086;1.040039;
226524;-0.033203;0.039062;1.040039;
226669;-0.033203;0.039062;1.040039;
226809;-0.033203;0.038086;1.039062;
226950;-0.034180;0.039062;1.039062;
227089;-0.034180;0.038086;1.038086;
227229;-0.034180;0.037109;1.039062;
227369;-0.034180;0.039062;1.040039;
227513;-0.034180;0.039062;1.041016;
227649;-0.034180;0.038086;1.040039;
227789;-0.034180;0.038086;1.038086;
227929;-0.034180;0.039062;1.040039;
228069;-0.035156;0.038086;1.040039;
228219;-0.036133;0.038086;1.039062;
228369;-0.033203;0.041016;1.039062;
228499;-0.034180;0.039062;1.040039;
228639;-0.034180;0.037109;1.038086;
228774;-0.035156;0.036133;1.039062;
228913;-0.035156;0.038086;1.039062;
229043;-0.034180;0.040039;1.038086;
229180;-0.033203;0.038086;1.038086;
229319;-0.035156;0.037109;1.039062;
229459;-0.034180;0.038086;1.040039;
229599;-0.034180;0.038086;1.037109;
229749;-0.035156;0.037109;1.039062;
229891;-0.035156;0.038086;1.038086;
230040;-0.033203;0.039062;1.037109;
230179;-0.034180;0.038086;1.038086;
230320;-0.034180;0.037109;1.038086;
230469;-0.034180;0.034180;1.041016;
230600;-0.032227;0.039062;1.041016;
230739;-0.033203;0.037109;1.039062;
230889;-0.034180;0.038086;1.036133;
231029;-0.034180;0.039062;1.041016;
231169;-0.035156;0.039062;1.040039;
231319;-0.033203;0.039062;1.039062;
231459;-0.034180;0.040039;1.038086;
231614;-0.034180;0.038086;1.038086;
231754;-0.034180;0.037109;1.040039;
231894;-0.034180;0.039062;1.040039;
232039;-0.034180;0.038086;1.040039;
232179;-0.033203;0.038086;1.038086;
232324;-0.034180;0.038086;1.039062;
232464;-0.034180;0.039062;1.040039;
232604;-0.035156;0.036133;1.040039;
232743;-0.033203;0.039062;1.038086;
232880;-0.034180;0.038086;1.040039;
233030;-0.034180;0.038086;1.038086;
233174;-0.034180;0.039062;1.038086;
233324;-0.034180;0.038086;1.040039;
233464;-0.034180;0.040039;1.039062;
233589;-0.034180;0.039062;1.039062;
233739;-0.034180;0.039062;1.040039;
233879;-0.034180;0.039062;1.040039;
234019;-0.034180;0.038086;1.038086;
234159;-0.034180;0.038086;1.038086;
234309;-0.033203;0.038086;1.038086;
234459;-0.034180;0.038086;1.038086;
234599;-0.034180;0.038086;1.038086;
234733;-0.033203;0.038086;1.040039;
234869;-0.033203;0.039062;1.041016;