Time;acc_x;acc_y;acc_z;

66760;0.023438;0.038086;0.991211;
66977;0.020508;0.034180;0.988281;
67127;0.024414;0.037109;0.992188;
67267;0.023438;0.034180;0.998047;
67407;0.021484;0.034180;0.995117;
67547;0.021484;0.037109;0.991211;
67687;0.021484;0.037109;0.999023;
67827;0.018555;0.032227;0.988281;
67967;0.020508;0.035156;0.982422;
68107;0.023438;0.034180;1.000000;
68247;0.021484;0.036133;0.999023;
68387;0.020508;0.035156;0.986328;
68527;0.019531;0.032227;0.993164;
68667;0.020508;0.033203;0.997070;
68807;0.020508;0.036133;1.002930;
68947;0.019531;0.032227;0.996094;
69087;0.021484;0.038086;1.000000;
69227;0.021484;0.036133;1.000977;
69363;0.019531;0.034180;0.994141;
69523;0.021484;0.036133;0.999023;
69692;0.019531;0.033203;0.991211;
69857;0.020508;0.032227;0.994141;
70007;0.021484;0.033203;1.001953;
70147;0.022461;0.035156;1.006836;
70287;0.019531;0.035156;0.999023;
70427;0.020508;0.039062;0.999023;
70563;0.019531;0.033203;0.992188;
70723;0.019531;0.035156;1.004883;
70887;0.019531;0.033203;1.005859;
71027;0.020508;0.036133;1.004883;
71167;0.019531;0.035156;1.004883;
71308;0.018555;0.035156;1.002930;
71477;0.020508;0.034180;1.009766;
71617;0.020508;0.033203;1.001953;
71752;0.021484;0.039062;1.005859;
71913;0.019531;0.036133;1.018555;
72054;0.018555;0.036133;1.008789;
72202;0.020508;0.033203;1.012695;
72373;0.019531;0.032227;1.012695;
72517;0.021484;0.033203;1.022461;
72652;0.021484;0.032227;1.016602;
72807;0.020508;0.036133;1.024414;
72947;0.019531;0.035156;1.016602;
73087;0.019531;0.033203;1.010742;
73228;0.015625;0.035156;1.022461;
73387;0.020508;0.034180;1.016602;
73537;0.022461;0.031250;1.013672;
73677;0.020508;0.034180;1.020508;
73817;0.018555;0.038086;1.021484;
73953;0.019531;0.034180;1.021484;
74107;0.021484;0.037109;1.020508;
74247;0.020508;0.035156;1.014648;
74382;0.019531;0.031250;1.005859;
74544;0.022461;0.035156;1.026367;
74703;0.017578;0.034180;1.021484;
74852;0.020508;0.034180;1.025391;
75012;0.019531;0.036133;1.011719;
75157;0.021484;0.039062;1.015625;
75297;0.020508;0.031250;1.021484;
75437;0.021484;0.036133;1.021484;
75572;0.023438;0.036133;1.027344;
75737;0.017578;0.034180;1.016602;
75877;0.021484;0.036133;1.014648;
76017;0.021484;0.032227;1.019531;
76152;0.021484;0.031250;1.019531;
76287;0.022461;0.035156;1.017578;
76427;0.020508;0.038086;1.027344;
76567;0.020508;0.037109;1.014648;
76707;0.024414;0.030273;1.014648;
76847;0.020508;0.033203;1.021484;
76987;0.018555;0.035156;1.025391;
77134;0.021484;0.038086;1.018555;
77293;0.021484;0.031250;1.016602;
77453;0.020508;0.032227;1.024414;
77603;0.021484;0.034180;1.016602;
77747;0.021484;0.033203;1.013672;
77887;0.019531;0.032227;1.022461;
78027;0.024414;0.038086;1.028320;
78167;0.018555;0.036133;1.020508;
78302;0.019531;0.036133;1.020508;
78457;0.023438;0.040039;1.023438;
78597;0.022461;0.034180;1.023438;
78747;0.024414;0.038086;1.028320;
78882;0.021484;0.038086;1.018555;
79037;0.019531;0.034180;1.004883;
79177;0.020508;0.036133;1.018555;
79317;0.021484;0.038086;1.024414;
79458;0.020508;0.039062;1.013672;
79612;0.020508;0.034180;1.019531;
79772;0.021484;0.041016;1.020508;
79923;0.020508;0.040039;1.021484;
80074;0.020508;0.036133;1.016602;
80237;0.018555;0.037109;1.012695;
80387;0.021484;0.032227;1.012695;
80527;0.020508;0.030273;1.014648;
80667;0.021484;0.033203;1.024414;
80817;0.021484;0.038086;1.025391;
80957;0.020508;0.032227;1.022461;
81097;0.020508;0.034180;1.023438;
81247;0.024414;0.034180;1.025391;
81383;0.021484;0.031250;1.017578;
81537;0.022461;0.037109;1.020508;
81677;0.021484;0.031250;1.021484;
81817;0.020508;0.033203;1.012695;
81952;0.021484;0.033203;1.020508;
82109;0.021484;0.036133;1.015625;
82263;0.019531;0.035156;1.013672;
82412;0.019531;0.030273;1.022461;
82573;0.020508;0.039062;1.022461;
82737;0.020508;0.035156;1.020508;
82877;0.022461;0.038086;1.007812;
83027;0.019531;0.037109;1.018555;
83167;0.021484;0.032227;1.015625;
83307;0.023438;0.037109;1.019531;
83447;0.021484;0.037109;1.022461;
83587;0.018555;0.034180;1.016602;
83727;0.020508;0.035156;1.008789;
83867;0.021484;0.031250;1.019531;
84007;0.023438;0.034180;1.028320;
84147;0.019531;0.035156;1.021484;
84287;0.024414;0.035156;1.016602;
84427;0.022461;0.036133;1.020508;
84567;0.021484;0.033203;1.028320;
84723;0.021484;0.036133;1.026367;
84882;0.021484;0.038086;1.023438;
85032;0.021484;0.037109;1.015625;
85167;0.022461;0.039062;1.012695;
85303;0.022461;0.036133;1.023438;
85457;0.022461;0.033203;1.006836;
85597;0.020508;0.038086;1.017578;
85737;0.018555;0.034180;1.021484;
85877;0.018555;0.036133;1.009766;
86017;0.022461;0.036133;1.015625;
86157;0.021484;0.031250;1.019531;
86297;0.020508;0.035156;1.013672;
86437;0.020508;0.038086;1.029297;
86577;0.021484;0.030273;1.026367;
86717;0.020508;0.039062;1.016602;
86857;0.020508;0.035156;1.019531;
86997;0.020508;0.036133;1.026367;
87137;0.020508;0.033203;1.018555;
87277;0.021484;0.035156;1.018555;
87412;0.022461;0.032227;1.016602;
87573;0.022461;0.033203;1.011719;
87732;0.018555;0.032227;1.011719;
87887;0.019531;0.038086;1.014648;
88037;0.020508;0.032227;1.013672;
88177;0.018555;0.035156;1.011719;
88317;0.022461;0.037109;1.018555;
88457;0.024414;0.033203;1.010742;
88597;0.020508;0.039062;1.010742;
88737;0.016602;0.041992;1.015625;
88877;0.020508;0.037109;1.007812;
89017;0.021484;0.024414;1.005859;
89157;0.021484;0.036133;1.021484;
89307;0.022461;0.032227;1.009766;
89447;0.021484;0.035156;1.016602;
89587;0.019531;0.038086;1.024414;
89737;0.022461;0.038086;1.025391;
89882;0.021484;0.036133;1.011719;
90044;0.020508;0.036133;1.024414;
90207;0.023438;0.034180;1.031250;
90347;0.025391;0.034180;1.037109;
90507;0.023438;0.030273;1.037109;
90647;0.023438;0.040039;1.030273;
90787;0.022461;0.032227;1.020508;
90937;0.020508;0.038086;1.021484;
91077;0.024414;0.036133;1.034180;
91217;0.021484;0.035156;1.028320;
91367;0.021484;0.032227;1.032227;
91507;0.025391;0.041016;1.030273;
91647;0.021484;0.037109;1.022461;
91787;0.020508;0.037109;1.025391;
91927;0.021484;0.038086;1.031250;
92067;0.018555;0.041016;1.029297;
92203;0.021484;0.038086;1.019531;
92352;0.020508;0.035156;1.024414;
92512;0.024414;0.038086;1.029297;
92667;0.023438;0.034180;1.035156;
92807;0.022461;0.032227;1.031250;
92947;0.022461;0.037109;1.033203;
93083;0.018555;0.031250;1.029297;
93237;0.021484;0.030273;1.028320;
93377;0.023438;0.030273;1.033203;
93517;0.022461;0.033203;1.035156;
93657;0.021484;0.032227;1.039062;
93797;0.020508;0.034180;1.033203;
93937;0.023438;0.031250;1.025391;
94077;0.022461;0.036133;1.034180;
94227;0.022461;0.034180;1.027344;
94363;0.020508;0.036133;1.026367;
94507;0.021484;0.041016;1.034180;
94643;0.022461;0.036133;1.034180;
94803;0.022461;0.030273;1.027344;
94962;0.023438;0.033203;1.032227;
95123;0.021484;0.033203;1.031250;
95277;0.020508;0.038086;1.038086;
95417;0.021484;0.028320;1.038086;
95557;0.020508;0.033203;1.033203;
95694;0.021484;0.032227;1.029297;
95837;0.022461;0.033203;1.021484;
95977;0.024414;0.034180;1.036133;
96117;0.023438;0.033203;1.026367;
96253;0.022461;0.031250;1.032227;
96384;0.022461;0.027344;1.031250;
96527;0.023438;0.026367;1.028320;
96667;0.023438;0.027344;1.038086;
96807;0.022461;0.026367;1.039062;
96948;0.024414;0.027344;1.036133;
97103;0.023438;0.028320;1.035156;
97263;0.023438;0.025391;1.042969;
97423;0.024414;0.030273;1.040039;
97583;0.022461;0.024414;1.040039;
97737;0.023438;0.027344;1.041992;
97877;0.025391;0.026367;1.042969;
98017;0.023438;0.030273;1.040039;
98157;0.021484;0.026367;1.043945;
98293;0.023438;0.022461;1.045898;
98447;0.023438;0.023438;1.048828;
98597;0.024414;0.022461;1.056641;
98737;0.024414;0.023438;1.062500;
98872;0.026367;0.027344;1.052734;
99027;0.024414;0.021484;1.057617;
99177;0.027344;0.021484;1.072266;
99317;0.024414;0.025391;1.066406;
99453;0.026367;0.019531;1.072266;
99617;0.025391;0.024414;1.082031;
99754;0.026367;0.028320;1.074219;
99905;0.025391;0.025391;1.077148;
100074;0.024414;0.020508;1.082031;
100225;0.027344;0.021484;1.087891;
100377;0.023438;0.020508;1.080078;
100517;0.026367;0.028320;1.082031;
100657;0.026367;0.018555;1.082031;
100797;0.028320;0.024414;1.083008;
100957;0.032227;0.021484;1.101562;
101097;0.025391;0.022461;1.099609;
101237;0.030273;0.021484;1.099609;
101377;0.028320;0.021484;1.100586;
101517;0.031250;0.016602;1.105469;
101657;0.028320;0.016602;1.107422;
101797;0.029297;0.018555;1.108398;
101947;0.031250;0.024414;1.111328;
102082;0.030273;0.013672;1.105469;
102232;0.028320;0.017578;1.115234;
102392;0.031250;0.017578;1.112305;
102533;0.033203;0.021484;1.109375;
102683;0.030273;0.012695;1.110352;
102843;0.029297;0.024414;1.125977;
102997;0.030273;0.020508;1.123047;
103137;0.034180;0.028320;1.120117;
103277;0.029297;0.025391;1.127930;
103417;0.029297;0.022461;1.131836;
103557;0.035156;0.019531;1.131836;
103697;0.028320;0.023438;1.140625;
103837;0.027344;0.018555;1.128906;
103977;0.033203;0.022461;1.126953;
104127;0.031250;0.025391;1.142578;
104267;0.031250;0.023438;1.145508;
104407;0.033203;0.027344;1.145508;
104547;0.033203;0.030273;1.142578;
104687;0.032227;0.027344;1.141602;
104822;0.031250;0.026367;1.131836;
104972;0.032227;0.032227;1.141602;
105103;0.033203;0.025391;1.130859;
105257;0.032227;0.022461;1.142578;
105397;0.033203;0.025391;1.147461;
105537;0.033203;0.026367;1.149414;
105677;0.033203;0.026367;1.138672;
105817;0.034180;0.025391;1.152344;
105957;0.031250;0.026367;1.144531;
106097;0.033203;0.022461;1.140625;
106237;0.032227;0.022461;1.145508;
106377;0.030273;0.025391;1.145508;
106517;0.033203;0.030273;1.141602;
106657;0.034180;0.026367;1.138672;
106797;0.031250;0.021484;1.133789;
106937;0.034180;0.028320;1.142578;
107077;0.032227;0.028320;1.148438;
107227;0.032227;0.025391;1.132812;
107392;0.031250;0.023438;1.125977;
107553;0.030273;0.024414;1.124023;
107703;0.032227;0.027344;1.127930;
107842;0.032227;0.017578;1.124023;
108017;0.033203;0.027344;1.136719;
108167;0.031250;0.022461;1.134766;
108317;0.033203;0.028320;1.129883;
108457;0.032227;0.030273;1.138672;
108597;0.028320;0.021484;1.124023;
108747;0.031250;0.027344;1.124023;
108887;0.033203;0.027344;1.137695;
109027;0.032227;0.028320;1.145508;
109177;0.032227;0.026367;1.135742;
109317;0.031250;0.024414;1.124023;
109457;0.033203;0.029297;1.132812;
109597;0.032227;0.026367;1.125977;
109737;0.033203;0.027344;1.128906;
109877;0.031250;0.026367;1.131836;
110013;0.032227;0.026367;1.131836;
110163;0.031250;0.029297;1.125000;
110314;0.031250;0.026367;1.128906;
110477;0.030273;0.027344;1.122070;
110617;0.031250;0.027344;1.123047;
110757;0.031250;0.027344;1.125000;
110897;0.033203;0.023438;1.122070;
111037;0.031250;0.022461;1.118164;
111177;0.033203;0.026367;1.133789;
111317;0.032227;0.027344;1.128906;
111457;0.030273;0.023438;1.116211;
111597;0.033203;0.025391;1.129883;
111737;0.032227;0.023438;1.124023;
111877;0.033203;0.027344;1.126953;
112017;0.033203;0.026367;1.130859;
112157;0.031250;0.025391;1.118164;
112297;0.032227;0.027344;1.125000;
112435;0.034180;0.028320;1.137695;
112592;0.032227;0.026367;1.119141;
112752;0.030273;0.028320;1.123047;
112917;0.032227;0.029297;1.125977;
113057;0.030273;0.029297;1.115234;
113197;0.033203;0.025391;1.129883;
113337;0.031250;0.027344;1.125000;
113477;0.032227;0.030273;1.120117;
113617;0.031250;0.031250;1.126953;
113757;0.030273;0.028320;1.130859;
113897;0.031250;0.022461;1.120117;
114037;0.031250;0.023438;1.120117;
114177;0.033203;0.026367;1.130859;
114317;0.033203;0.026367;1.118164;
114457;0.032227;0.028320;1.120117;
114597;0.033203;0.022461;1.137695;
114737;0.033203;0.024414;1.122070;
