datetime;time;load_cell;board_temperature;pressure_macki;pressure_tank;distance;acc_x;acc_y;acc_z;motor1_speed;motor2_speed;procedure_time;mechanical_state;motor1_temperature;motor2_temperature
2024-11-05_10-31-49.310223;906463;-277.333374;24.9375;0.021667;3.912084;112.0;0.195312;0.024414;1.606445;-60000;-60000;134052;0;0;0
2024-11-05_10-31-49.435640;906611;-277.333374;24.9375;0.021667;3.912084;113.0;0.186523;0.016602;1.588867;-60000;-60000;134169;0;0;0
2024-11-05_10-31-49.655796;906904;-277.333374;24.9375;0.050417;3.92;110.0;0.155273;0.023438;1.482422;-60000;-60000;134380;0;0;0
2024-11-05_10-31-49.750146;906904;-277.333374;24.9375;0.050417;3.92;110.0;0.155273;0.023438;1.482422;-60000;-60000;134478;0;0;0
2024-11-05_10-31-49.907146;907184;-256.0;24.9375;0.10125;3.912084;101.0;0.161133;0.010742;1.525391;-60000;-60000;134642;0;0;0
2024-11-05_10-31-50.048017;907184;-256.0;24.9375;0.10125;3.912084;101.0;0.161133;0.010742;1.525391;20000;20000;134781;1;0;0
2024-11-05_10-31-50.235947;907477;-245.333374;24.875;0.7325;4.202083;93.0;0.146484;0.014648;1.449219;20000;20000;134959;0;0;0
2024-11-05_10-31-50.345334;907614;-241.333374;24.875;0.102083;3.922084;95.0;0.128906;0.020508;1.392578;20000;20000;135091;0;0;0
2024-11-05_10-31-50.501753;907759;-229.333374;24.875;0.0825;3.926667;94.0;0.118164;0.022461;1.333008;20000;20000;135240;0;0;0
2024-11-05_10-31-50.658863;907907;-221.333374;24.875;0.077917;3.927083;95.0;0.104492;0.026367;1.239258;20000;20000;135400;0;0;0
2024-11-05_10-31-51.160378;908325;-174.666626;24.875;0.021667;3.912084;92.0;0.064453;0.020508;0.99707;20000;20000;135870;0;0;0
2024-11-05_10-31-51.285850;908467;-152.0;24.9375;0.021667;3.911667;93.0;0.054688;0.025391;0.904297;20000;20000;136029;0;0;0
2024-11-05_10-31-51.426501;908605;-133.333374;24.875;0.021667;3.912084;93.0;0.040039;0.029297;0.807617;80000;80000;171;0;0;0
2024-11-05_10-31-51.709418;908892;-117.333374;24.875;0.040833;3.910001;110.0;0.024414;0.025391;0.639648;80000;80000;449;0;0;0
2024-11-05_10-31-51.913021;909193;-93.333374;24.875;0.105;3.9075;137.0;0.012695;0.021484;0.480469;80000;80000;661;0;0;0
2024-11-05_10-31-52.054091;909339;-76.0;24.875;0.0625;3.907084;152.0;0.009766;0.021484;0.414062;80000;80000;801;0;0;0
2024-11-05_10-31-52.257715;909486;-70.666626;24.9375;0.108333;3.910417;167.0;0.006836;0.015625;0.352539;80000;80000;959;0;0;0
2024-11-05_10-31-52.398500;909627;-73.333374;24.875;0.111667;3.913333;182.0;0.005859;0.022461;0.300781;0;0;1129;0;0;0
2024-11-05_10-31-52.539280;909766;-58.666626;24.875;0.445417;4.529167;184.0;0.003906;0.027344;0.222656;0;0;1271;0;0;0
2024-11-05_10-31-52.774741;910044;-41.333374;24.875;0.083333;3.906667;182.0;0.001953;0.027344;0.146484;11666;11666;1520;0;2;0
2024-11-05_10-31-52.905748;910044;-41.333374;24.875;0.083333;3.906667;182.0;0.001953;0.027344;0.146484;35000;35000;1631;0;0;0
2024-11-05_10-31-53.010025;910187;-25.333374;24.9375;0.071667;3.905833;187.0;-0.000977;0.02832;0.124023;58333;58333;1749;0;0;0
2024-11-05_10-31-53.167256;910326;-25.333374;24.875;0.022917;3.906667;197.0;-0.001953;0.033203;0.092773;70000;70000;1911;0;0;0
2024-11-05_10-31-53.339947;910606;-34.666626;24.875;0.031667;3.906667;220.0;0.0;0.038086;0.064453;70000;70000;2059;0;0;0
2024-11-05_10-31-53.465123;910747;-30.666626;24.875;0.0525;3.906667;227.0;0.0;0.032227;0.057617;46666;46666;2211;0;0;0
2024-11-05_10-31-53.684316;910886;-25.333374;24.875;0.369167;3.978333;237.0;-0.001953;0.030273;0.052734;0;0;2420;0;0;0
2024-11-05_10-31-53.935179;911167;-22.666626;24.875;0.12125;3.907084;232.0;-0.003906;0.033203;0.041992;-46666;-46666;2650;0;0;0
2024-11-05_10-31-54.138413;911307;-21.333374;24.875;0.065833;3.906667;222.0;-0.001953;0.035156;0.040039;-70000;-70000;2868;0;0;0
2024-11-05_10-31-54.294927;911447;-17.333374;24.875;0.039167;3.906667;212.0;-0.003906;0.037109;0.043945;-70000;-70000;3037;0;0;0
2024-11-05_10-31-54.577310;911587;-17.333374;24.875;0.12125;3.906667;202.0;-0.006836;0.036133;0.035156;-46666;-46666;3171;0;0;0
2024-11-05_10-31-54.718395;911874;-16.0;24.875;0.2775;3.930833;179.0;-0.005859;0.03125;0.041016;30000;30000;3456;0;0;0
2024-11-05_10-31-54.874758;912158;-17.333374;24.875;0.05375;3.906667;189.0;-0.004883;0.033203;0.040039;60000;60000;3621;0;0;0
2024-11-05_10-31-55.047082;912311;-25.333374;24.875;0.06;3.907084;201.0;-0.004883;0.035156;0.044922;60000;60000;3781;0;0;0
2024-11-05_10-31-55.187721;912461;-21.333374;24.875;0.105;3.906667;214.0;-0.008789;0.03125;0.039062;60000;60000;3930;0;0;0
2024-11-05_10-31-55.360314;912608;-25.333374;24.875;0.226667;3.743334;221.0;-0.006836;0.030273;0.045898;50000;50000;4098;0;0;0
2024-11-05_10-31-55.516893;912757;-30.666626;24.875;0.593333;3.748334;230.0;-0.00293;0.029297;0.044922;10000;10000;4260;0;0;0
2024-11-05_10-31-55.657861;912897;-29.333374;24.875;1.093333;3.833334;232.0;-0.006836;0.03418;0.039062;0;0;4411;0;0;0
2024-11-05_10-31-56.019859;913037;-17.333374;24.875;0.780833;3.737917;229.0;-0.009766;0.030273;0.039062;0;0;4609;0;0;0
2024-11-05_10-31-56.238634;913454;4.0;24.875;0.91375;3.718333;229.0;-0.006836;0.02832;0.024414;-26666;-26666;4964;0;0;0
2024-11-05_10-31-56.442319;913600;12.0;24.875;0.9175;3.706667;227.0;-0.007812;0.029297;0.032227;-80000;-80000;5190;0;0;0
2024-11-05_10-31-56.647031;913887;65.333252;24.875;0.944167;3.706667;198.0;-0.009766;0.03125;0.035156;-80000;-80000;5390;0;0;0
2024-11-05_10-31-56.929339;914167;157.333252;24.875;0.949583;3.706667;175.0;-0.009766;0.029297;0.043945;-80000;-80000;5660;0;0;0
2024-11-05_10-31-57.070787;914304;181.333252;24.875;0.97125;3.707083;160.0;-0.010742;0.029297;0.035156;-80000;-80000;5809;0;0;0
2024-11-05_10-31-57.446262;914601;186.666748;24.875;0.97;3.707083;132.0;-0.012695;0.025391;0.045898;-60000;-60000;6170;0;0;0
2024-11-05_10-31-57.524380;914747;97.333252;24.875;0.954583;3.70625;121.0;-0.009766;0.026367;0.038086;-60000;-60000;6271;0;0;0
2024-11-05_10-31-57.664961;914886;12.0;24.875;1.0675;3.7075;113.0;-0.008789;0.024414;0.043945;-60000;-60000;6416;0;0;0
2024-11-05_10-31-57.852853;915015;12.0;24.875;0.8475;3.7075;104.0;-0.013672;0.026367;0.033203;-60000;-60000;6591;0;0;0
2024-11-05_10-31-58.009147;915147;-4.0;24.875;3.706667;3.712084;95.0;-0.012695;0.022461;0.036133;20000;20000;6741;1;0;0
2024-11-05_10-31-58.165402;915437;-16.0;24.875;0.899167;3.729584;92.0;-0.011719;0.026367;0.038086;20000;20000;6901;1;0;0
2024-11-05_10-31-58.385116;915574;-13.333374;24.875;0.793333;3.88125;95.0;-0.012695;0.025391;0.022461;20000;20000;7129;0;0;0
2024-11-05_10-31-58.510825;915717;-17.333374;24.875;0.294167;3.727083;97.0;-0.012695;0.026367;0.037109;20000;20000;7245;0;0;0
2024-11-05_10-31-58.635834;915855;-17.333374;24.875;0.213333;3.714167;94.0;-0.016602;0.027344;0.037109;20000;20000;7371;0;0;0
2024-11-05_10-31-58.776825;915997;-8.0;24.875;0.1325;3.728333;94.0;-0.012695;0.026367;0.037109;20000;20000;7521;0;0;0
2024-11-05_10-31-58.964576;916139;-10.666626;24.875;0.120833;3.724167;95.0;-0.014648;0.026367;0.02832;20000;20000;7685;0;0;0
2024-11-05_10-31-59.152460;916427;-10.666626;24.875;0.022917;3.712084;95.0;-0.014648;0.027344;0.024414;20000;20000;7890;0;0;0
2024-11-05_10-31-59.309193;916565;-13.333374;24.875;0.021667;3.712084;96.0;-0.015625;0.027344;0.020508;20000;20000;8050;0;0;0
2024-11-05_10-31-59.544174;916707;-8.0;24.875;0.021667;3.712084;96.0;-0.017578;0.026367;0.023438;20000;20000;8266;0;0;0
2024-11-05_10-31-59.748023;916990;-8.0;24.875;0.022083;3.712084;96.0;-0.015625;0.026367;0.025391;80000;80000;118;0;0;0
2024-11-05_10-31-59.892982;917137;-5.333374;24.875;0.039583;3.712084;101.0;-0.015625;0.026367;0.013672;80000;80000;280;0;0;0
2024-11-05_10-32-00.045947;917274;-5.333374;24.875;0.02375;3.712084;114.0;-0.016602;0.02832;-0.003906;80000;80000;430;0;0;0
2024-11-05_10-32-00.186618;917426;-16.0;24.875;0.061667;3.713334;125.0;-0.015625;0.029297;0.018555;80000;80000;575;0;0;0
2024-11-05_10-32-00.359127;917561;-13.333374;24.875;0.06;3.712084;139.0;-0.016602;0.02832;0.022461;80000;80000;741;0;0;0
2024-11-05_10-32-00.829579;917987;-18.666626;24.875;0.045;3.718333;180.0;-0.015625;0.030273;0.016602;0;0;1209;0;0;0
2024-11-05_10-32-01.268443;918424;-25.333374;24.875;0.122083;3.72;185.0;-0.015625;0.029297;0.021484;0;0;1624;0;0;0
2024-11-05_10-32-01.440470;918706;-22.666626;24.875;0.055417;3.7175;190.0;-0.013672;0.02832;0.014648;58333;58333;1840;0;0;0
2024-11-05_10-32-01.612640;918847;-22.666626;24.875;0.021667;3.7175;201.0;-0.016602;0.02832;0.015625;70000;70000;1999;0;0;0
2024-11-05_10-32-01.879087;919137;-22.666626;24.875;0.032083;3.7175;228.0;-0.014648;0.029297;0.019531;70000;70000;2272;0;0;0
2024-11-05_10-32-02.067318;919274;-34.666626;24.875;0.060417;3.717917;234.0;-0.015625;0.029297;0.011719;11666;11666;2451;0;0;0
2024-11-05_10-32-02.223596;919417;-50.666626;24.875;0.289583;3.815;242.0;-0.015625;0.026367;0.016602;-46666;-46666;2601;0;0;0
2024-11-05_10-32-02.443288;919717;-38.666626;24.875;0.02875;3.717917;218.0;-0.016602;0.03125;0.008789;-70000;-70000;2832;0;0;0
2024-11-05_10-32-02.631125;919854;-25.333374;24.875;0.09875;3.7175;206.0;-0.017578;0.029297;0.012695;-70000;-70000;2995;0;0;0
2024-11-05_10-32-02.850487;919998;-18.666626;24.875;0.078333;3.717917;200.0;-0.014648;0.030273;0.019531;0;0;3231;0;0;0
2024-11-05_10-32-02.991155;920277;-17.333374;24.875;0.167083;3.72875;194.0;-0.015625;0.02832;0.017578;49999;49999;3390;0;0;0
2024-11-05_10-32-03.163321;920415;-16.0;24.875;0.029583;3.7175;204.0;-0.017578;0.026367;0.017578;60000;60000;3550;0;0;0
2024-11-05_10-32-03.336042;920561;-17.333374;24.875;0.082917;3.7175;214.0;-0.015625;0.02832;0.007812;60000;60000;3714;0;0;0
2024-11-05_10-32-03.461109;920711;-22.666626;24.875;0.047917;3.5275;223.0;-0.016602;0.026367;0.015625;50000;50000;3861;0;0;0
2024-11-05_10-32-03.665480;920864;-36.0;24.875;0.521667;3.57625;233.0;-0.015625;0.025391;0.015625;30000;30000;4061;0;0;0
2024-11-05_10-32-03.789468;921012;-34.666626;24.875;0.742083;3.609584;238.0;-0.016602;0.02832;0.011719;10000;10000;4172;0;0;0
2024-11-05_10-32-03.946277;921149;-41.333374;24.875;0.828333;3.710417;245.0;-0.016602;0.027344;0.013672;0;0;4325;0;0;0
2024-11-05_10-32-04.102954;921296;-50.666626;24.875;0.793333;3.552917;239.0;-0.016602;0.026367;0.016602;0;0;4491;0;0;0
2024-11-05_10-32-04.275743;921439;-56.0;24.875;0.868333;3.548333;242.0;-0.018555;0.029297;0.015625;0;0;4668;0;0;0
2024-11-05_10-32-04.526179;921724;-25.333374;24.875;0.917083;3.529584;240.0;-0.019531;0.027344;0.012695;-53333;-53333;4910;0;0;0
2024-11-05_10-32-04.731643;922004;68.0;24.875;0.949583;3.529584;220.0;-0.016602;0.026367;0.013672;-80000;-80000;5109;0;0;0
2024-11-05_10-32-04.950161;922149;150.666748;24.875;0.949583;3.529584;205.0;-0.016602;0.02832;0.013672;-80000;-80000;5331;0;0;0
2024-11-05_10-32-05.064504;922294;309.333252;24.875;0.94875;3.529584;190.0;-0.018555;0.027344;0.016602;-80000;-80000;5439;0;0;0
2024-11-05_10-32-05.311588;922574;569.333252;24.875;0.965;3.530833;163.0;-0.016602;0.025391;0.016602;-80000;-80000;5683;0;0;0
2024-11-05_10-32-05.546041;922717;424.0;24.875;0.974167;3.529584;151.0;-0.018555;0.027344;0.014648;-60000;-60000;5926;0;0;0
2024-11-05_10-32-05.749225;922997;53.333252;24.875;0.846667;3.532084;131.0;-0.017578;0.024414;0.011719;-60000;-60000;6140;0;0;0
2024-11-05_10-32-05.921373;923137;28.0;24.875;0.742917;3.529584;120.0;-0.019531;0.026367;0.021484;-60000;-60000;6298;0;0;0
2024-11-05_10-32-06.030720;923274;1.333374;24.875;0.6325;3.53;111.0;-0.019531;0.025391;0.013672;-60000;-60000;6421;0;0;0
2024-11-05_10-32-06.149153;923417;-4.0;24.875;0.545833;3.534584;104.0;-0.016602;0.025391;0.017578;-60000;-60000;6531;0;0;0
2024-11-05_10-32-06.469344;923721;-5.333374;24.875;0.324167;3.5375;86.0;-0.019531;0.025391;0.022461;20000;20000;6849;1;0;0
2024-11-05_10-32-06.610348;923866;-4.0;24.875;0.505417;3.600833;88.0;-0.017578;0.025391;0.017578;20000;20000;6991;1;0;0
2024-11-05_10-32-06.751540;923992;-4.0;24.875;0.289583;3.685;89.0;-0.013672;0.025391;-0.003906;20000;20000;7142;1;0;0
2024-11-05_10-32-07.034198;924278;-4.0;24.875;0.318333;3.685;95.0;-0.018555;0.026367;0.017578;20000;20000;7422;0;0;0
2024-11-05_10-32-07.206492;924417;-8.0;24.875;0.054167;3.535;96.0;-0.020508;0.027344;0.016602;20000;20000;7601;0;0;0
2024-11-05_10-32-07.362732;924556;-4.0;24.875;0.071667;3.535;96.0;-0.018555;0.025391;0.017578;20000;20000;7761;0;0;0
2024-11-05_10-32-07.633887;924836;-8.0;24.9375;0.024583;3.539584;98.0;-0.020508;0.02832;0.023438;80000;80000;170;0;0;0
2024-11-05_10-32-07.864190;925104;0.0;24.875;0.032083;3.54;111.0;-0.025391;0.016602;0.024414;80000;80000;393;0;0;0
2024-11-05_10-32-08.004915;925247;-2.666626;24.875;0.09125;3.540417;122.0;-0.010742;0.029297;0.069336;80000;80000;540;0;0;0
2024-11-05_10-32-08.208063;925384;-16.0;24.9375;0.057917;3.540417;136.0;-0.020508;0.026367;0.012695;80000;80000;745;0;0;0
2024-11-05_10-32-08.301787;925527;-8.0;24.875;0.0975;3.54375;150.0;-0.022461;0.024414;0.005859;80000;80000;850;0;0;0
2024-11-05_10-32-08.536257;925807;-13.333374;24.875;0.106667;3.540417;176.0;-0.022461;0.025391;0.011719;0;0;1079;0;0;0
2024-11-05_10-32-08.637552;925807;-13.333374;24.875;0.106667;3.540417;176.0;-0.022461;0.025391;0.011719;0;0;1169;0;0;0
2024-11-05_10-32-08.951445;926087;-16.0;24.875;0.09375;3.548333;180.0;-0.022461;0.029297;0.016602;0;0;1464;0;0;0
2024-11-05_10-32-09.116314;926375;-13.333374;24.9375;0.025;3.540833;180.0;-0.023438;0.029297;0.011719;46666;46666;1648;0;0;0
2024-11-05_10-32-09.335683;926517;-16.0;24.9375;0.026667;3.542917;193.0;-0.021484;0.02832;0.015625;70000;70000;1868;0;0;0
2024-11-05_10-32-09.444967;926672;-21.333374;24.9375;0.021667;3.544167;205.0;-0.021484;0.026367;0.013672;70000;70000;1991;0;0;0
2024-11-05_10-32-09.554645;926822;-29.333374;24.9375;0.022917;3.542917;213.0;-0.022461;0.027344;0.014648;70000;70000;2101;0;0;0
2024-11-05_10-32-09.758312;926977;-30.666626;24.875;0.0525;3.546667;225.0;-0.022461;0.030273;0.016602;46666;46666;2300;0;0;0
2024-11-05_10-32-09.914670;927117;-41.333374;24.9375;0.0625;3.598334;239.0;-0.022461;0.02832;0.021484;-11666;-11666;2441;0;0;0
2024-11-05_10-32-10.040038;927254;-73.333374;24.9375;0.51;3.732917;234.0;-0.023438;0.027344;0.023438;-58333;-58333;2571;0;0;0
2024-11-05_10-32-10.239029;927397;-60.0;24.9375;0.037917;3.545417;226.0;-0.026367;0.029297;0.017578;-70000;-70000;2762;0;0;0
2024-11-05_10-32-10.354424;927534;-25.333374;24.9375;0.032083;3.545834;216.0;-0.023438;0.026367;0.023438;-70000;-70000;2891;0;0;0
2024-11-05_10-32-10.605708;927824;-16.0;24.9375;0.04625;3.545417;189.0;-0.024414;0.02832;0.025391;-46666;-46666;3150;0;0;0
2024-11-05_10-32-10.747352;927970;-8.0;24.9375;0.117917;3.5525;180.0;-0.025391;0.027344;0.023438;-35000;-35000;3291;0;0;0
2024-11-05_10-32-10.841369;928117;-4.0;24.9375;0.2225;3.605;173.0;-0.022461;0.030273;0.035156;0;0;3391;0;0;0
2024-11-05_10-32-10.983846;928266;-5.333374;24.9375;0.287917;3.673333;176.0;-0.027344;0.029297;0.02832;49999;49999;3530;0;0;0
2024-11-05_10-32-11.130381;928418;-13.333374;24.9375;0.048333;3.545417;184.0;-0.026367;0.02832;0.032227;60000;60000;3671;0;0;0
2024-11-05_10-32-11.282611;928567;-18.666626;24.9375;0.035833;3.5475;196.0;-0.027344;0.02832;0.024414;60000;60000;3831;0;0;0
2024-11-05_10-32-11.516491;928709;-18.666626;24.9375;0.093333;3.364584;207.0;-0.025391;0.027344;0.024414;60000;60000;4049;0;0;0
2024-11-05_10-32-11.735574;928997;-48.0;24.9375;0.66;3.42875;226.0;-0.026367;0.029297;0.024414;30000;30000;4265;0;0;0
2024-11-05_10-32-11.923456;929130;-50.666626;24.9375;0.802083;3.38625;229.0;-0.029297;0.02832;0.021484;0;0;4458;0;0;0
2024-11-05_10-32-12.080415;929267;-70.666626;24.9375;1.04125;3.404584;227.0;-0.030273;0.030273;0.024414;0;0;4621;0;0;0
2024-11-05_10-32-12.238177;929407;-64.0;24.9375;0.864167;3.365417;230.0;-0.029297;0.02832;0.026367;0;0;4779;0;0;0
2024-11-05_10-32-12.363263;929565;-41.333374;24.9375;0.8975;3.365;228.0;-0.026367;0.030273;0.020508;0;0;4911;0;0;0
2024-11-05_10-32-12.568002;929857;-30.666626;24.9375;0.95;3.36;223.0;-0.027344;0.03125;0.030273;-53333;-53333;5117;0;0;0
2024-11-05_10-32-12.693387;929857;-30.666626;24.9375;0.95;3.36;223.0;-0.027344;0.03125;0.030273;-80000;-80000;5229;0;0;0
2024-11-05_10-32-12.852432;930003;14.666626;24.9375;0.965417;3.359167;211.0;-0.027344;0.03125;0.026367;-80000;-80000;5389;0;0;0
2024-11-05_10-32-13.135658;930286;78.666748;24.9375;0.802917;3.354584;183.0;-0.029297;0.03125;0.016602;-80000;-80000;5632;0;0;0
2024-11-05_10-32-13.328379;930566;2.666626;24.9375;0.639167;3.345;157.0;-0.032227;0.027344;0.010742;-80000;-80000;5850;0;0;0
2024-11-05_10-32-13.463813;930707;-4.0;24.9375;0.599583;3.33875;144.0;-0.02832;0.030273;0.021484;-60000;-60000;6010;0;0;0
2024-11-05_10-32-13.746464;930987;-8.0;24.9375;0.207083;3.334167;124.0;-0.032227;0.029297;0.000977;-60000;-60000;6287;0;0;0
2024-11-05_10-32-14.029019;931267;-4.0;25.0;0.112083;3.3475;107.0;-0.032227;0.02832;-0.001953;-60000;-60000;6560;0;0;0
2024-11-05_10-32-14.093048;931267;-4.0;25.0;0.112083;3.3475;107.0;-0.032227;0.02832;-0.001953;-60000;-60000;6641;0;0;0
2024-11-05_10-32-14.266196;931546;-4.0;25.0;0.061667;3.338333;88.0;-0.03418;0.026367;-0.017578;20000;20000;6804;1;0;0
2024-11-05_10-32-14.438325;931687;0.0;24.9375;0.315833;3.367917;92.0;-0.03125;0.024414;-0.013672;20000;20000;6961;1;0;0
2024-11-05_10-32-14.603701;931824;0.0;25.0;0.195833;3.33875;96.0;-0.030273;0.027344;-0.011719;20000;20000;7140;0;0;0
2024-11-05_10-32-14.767665;931970;-4.0;24.9375;0.377083;3.35125;92.0;-0.03418;0.023438;-0.02832;20000;20000;7311;0;0;0
2024-11-05_10-32-14.896410;932121;-1.333374;24.9375;0.103333;3.347917;96.0;-0.032227;0.027344;-0.027344;20000;20000;7421;0;0;0
2024-11-05_10-32-15.050073;932271;0.0;25.0;0.106667;3.350834;95.0;-0.035156;0.02832;-0.030273;20000;20000;7590;0;0;0
2024-11-05_10-32-15.175413;932424;-4.0;25.0;0.11125;3.349584;96.0;-0.033203;0.030273;-0.032227;20000;20000;7721;0;0;0
2024-11-05_10-32-15.363113;932575;0.0;25.0;0.025417;3.34375;98.0;-0.036133;0.030273;-0.017578;20000;20000;7888;0;0;0
