datetime;time;load_cell;board_temperature;pressure_macki;pressure_tank;distance;acc_x;acc_y;acc_z;motor1_speed;motor2_speed;procedure_time;mechanical_state;motor1_temperature;motor2_temperature
2024-11-07_09-52-58.897635;1551056;142.666748;22.1875;0.155833;3.969584;51519.0;-0.017578;0.037109;0.023438;-60000;-60000;1551131;0;0;0
2024-11-07_09-52-59.132673;1551270;148.0;22.1875;0.119167;3.97;51519.0;-0.018555;0.032227;0.025391;-60000;-60000;1551360;0;0;0
2024-11-07_09-52-59.313547;1551485;142.666748;22.125;0.08375;3.989584;51519.0;-0.018555;0.032227;0.026367;-60000;-60000;1551545;0;0;0
2024-11-07_09-52-59.463094;1551586;142.666748;22.125;0.1975;3.989167;51519.0;-0.018555;0.032227;0.024414;-60000;-60000;1551711;0;0;0
2024-11-07_09-52-59.620134;1551782;142.666748;22.125;0.170417;0.18125;51519.0;-0.017578;0.03418;0.023438;-60000;-60000;1551861;0;0;0
2024-11-07_09-52-59.776928;1551895;145.333252;22.1875;0.085833;3.972083;51519.0;-0.018555;0.036133;0.020508;-60000;-60000;1552021;0;0;0
2024-11-07_09-52-59.933978;1552091;142.666748;22.125;0.697083;4.155417;51519.0;-0.017578;0.03125;0.014648;20000;20000;1552171;0;0;0
2024-11-07_09-53-00.091106;1552193;142.666748;22.1875;0.345417;3.964167;51519.0;-0.017578;0.030273;0.020508;20000;20000;1552331;0;0;0
2024-11-07_09-53-00.248199;1552390;142.666748;22.125;0.491667;3.970417;51519.0;-0.017578;0.03125;0.023438;20000;20000;1552487;0;0;0
2024-11-07_09-53-00.546285;1552691;140.0;22.125;0.095;3.9775;51519.0;-0.017578;0.035156;0.022461;20000;20000;1552764;0;0;0
2024-11-07_09-53-00.718960;1552891;142.666748;22.125;0.11625;3.971667;51519.0;-0.018555;0.037109;0.015625;20000;20000;1552948;0;0;0
2024-11-07_09-53-00.906873;1553092;146.666748;22.125;0.02375;3.964583;51519.0;-0.018555;0.03418;0.010742;69000;69000;65;0;0;0
2024-11-07_09-53-01.049446;1553198;142.666748;22.125;0.027917;3.964583;51519.0;-0.015625;0.035156;0.017578;69000;69000;205;0;0;0
2024-11-07_09-53-01.189405;1553300;145.333252;22.125;0.044167;3.964583;51519.0;0.0;1.60038;0.0;69000;69000;355;0;0;0
2024-11-07_09-53-01.424921;1553525;140.0;22.1875;0.09125;3.9675;51519.0;-0.023438;0.02832;-0.024414;69000;69000;581;0;0;0
2024-11-07_09-53-01.534719;1553610;142.666748;22.125;0.063333;3.967084;51519.0;0.0;1.60038;0.0;69000;69000;694;0;0;0
2024-11-07_09-53-01.660146;1553739;140.0;22.125;0.081667;3.964583;51519.0;-0.018555;0.030273;0.012695;0;0;801;0;0;0
2024-11-07_09-53-01.822635;1553945;136.0;22.125;0.067917;3.964583;51519.0;-0.016602;0.029297;0.021484;0;0;959;0;0;0
2024-11-07_09-53-01.958610;1554058;136.0;22.125;0.0525;3.968333;51519.0;-0.018555;0.027344;0.013672;0;0;1125;0;0;0
2024-11-07_09-53-02.130490;1554265;138.666748;22.125;0.065833;3.964583;51519.0;-0.018555;0.030273;0.022461;0;0;1285;0;0;0
2024-11-07_09-53-02.287112;1554466;138.666748;22.125;0.07375;3.964583;51519.0;-0.018555;0.032227;0.018555;34000;34000;1444;0;0;0
2024-11-07_09-53-02.552737;1554663;124.0;22.125;0.023333;3.964583;51519.0;-0.020508;0.03125;0.023438;68000;68000;1707;0;0;0
2024-11-07_09-53-02.772416;1554856;128.0;22.125;0.027917;3.964583;51519.0;-0.019531;0.033203;0.015625;68000;68000;1913;0;0;0
2024-11-07_09-53-02.897857;1555050;121.333252;22.125;0.04125;3.964583;51519.0;-0.020508;0.03125;0.030273;34000;34000;2065;0;0;0
2024-11-07_09-53-03.085687;1555166;121.333252;22.125;0.54375;4.1625;51519.0;-0.019531;0.030273;0.029297;-23333;-23333;2223;0;0;0
2024-11-07_09-53-03.257734;1555455;122.666748;22.125;0.086667;3.96375;51519.0;0.0;1.60038;0.0;-70000;-70000;2425;0;0;0
2024-11-07_09-53-03.492663;1555660;128.0;22.125;0.135417;3.964583;51519.0;0.0;1.60038;0.0;-70000;-70000;2646;0;0;0
2024-11-07_09-53-03.680837;1555785;136.0;22.125;3.966667;3.965834;51519.0;-0.023438;0.029297;0.014648;-70000;-70000;2836;0;0;0
2024-11-07_09-53-03.962419;1556103;137.333252;22.125;0.417917;3.974167;51519.0;-0.022461;0.02832;0.020508;0;0;3118;0;0;0
2024-11-07_09-53-04.165950;1556322;142.666748;22.125;0.1475;3.965;51519.0;-0.022461;0.02832;0.020508;59000;59000;3315;0;0;0
2024-11-07_09-53-04.432353;1556546;133.333252;22.125;0.05375;3.96375;51519.0;-0.021484;0.027344;0.012695;59000;59000;3587;0;0;0
2024-11-07_09-53-04.620492;1556785;130.666748;22.125;0.325;3.810417;51519.0;-0.025391;0.025391;0.014648;39333;39333;3786;0;0;0
2024-11-07_09-53-04.902390;1556985;130.666748;22.125;0.686667;3.974584;51519.0;-0.022461;0.02832;0.017578;9833;9833;4048;0;0;0
2024-11-07_09-53-05.090001;1557200;124.0;22.125;0.424167;4.06875;51519.0;-0.021484;0.027344;0.011719;0;0;4245;0;0;0
2024-11-07_09-53-05.294170;1557410;121.333252;22.125;0.107917;3.827084;51519.0;0.0;1.60038;0.0;0;0;4455;0;0;0
2024-11-07_09-53-05.482481;1557625;128.0;22.125;0.06375;3.82375;51519.0;-0.023438;0.026367;-0.000977;0;0;4623;0;0;0
2024-11-07_09-53-05.576227;1557724;128.0;22.125;0.115833;3.810417;51519.0;-0.022461;0.024414;0.0;-53333;-53333;4744;0;0;0
2024-11-07_09-53-05.732915;1557821;130.666748;22.125;0.0225;3.810834;51519.0;-0.021484;0.024414;0.005859;-80000;-80000;4885;0;0;0
2024-11-07_09-53-05.889910;1558022;130.666748;22.125;0.021667;3.810417;51519.0;-0.022461;0.024414;0.024414;-80000;-80000;5045;0;0;0
2024-11-07_09-53-06.046620;1558216;140.0;22.125;0.041667;3.810834;51519.0;-0.024414;0.023438;-0.006836;-80000;-80000;5195;0;0;0
2024-11-07_09-53-06.218910;1558323;148.0;22.125;0.03625;3.810417;51519.0;-0.023438;0.023438;-0.010742;-80000;-80000;5358;0;0;0
2024-11-07_09-53-06.343911;1558524;148.0;22.125;0.081667;3.818334;51519.0;-0.026367;0.024414;0.004883;-80000;-80000;5504;0;0;0
2024-11-07_09-53-06.515788;1558621;148.0;22.125;0.134583;3.819167;51519.0;-0.023438;0.025391;0.003906;-60000;-60000;5665;0;0;0
2024-11-07_09-53-06.751070;1558934;150.666748;22.125;0.06625;3.820417;51519.0;-0.02832;0.024414;-0.006836;-60000;-60000;5915;0;0;0
2024-11-07_09-53-06.908948;1559046;148.0;22.125;3.815833;3.82;51519.0;-0.025391;0.027344;0.008789;-60000;-60000;6075;0;0;0
2024-11-07_09-53-07.001090;1559130;148.0;22.125;0.091667;3.81625;51519.0;0.0;1.60038;0.0;20000;20000;6164;1;0;0
2024-11-07_09-53-07.158179;1559239;142.666748;22.125;0.502083;3.86125;51519.0;-0.023438;0.026367;0.013672;20000;20000;6305;1;0;0
2024-11-07_09-53-07.283260;1559460;148.0;22.125;0.525833;3.995;51519.0;-0.027344;0.027344;0.017578;20000;20000;6455;0;0;0
2024-11-07_09-53-07.564515;1559687;146.666748;22.125;0.26625;3.951667;51519.0;-0.025391;0.029297;0.023438;20000;20000;6724;0;0;0
2024-11-07_09-53-07.752011;1559901;145.333252;22.125;0.366667;3.86625;51519.0;0.0;1.60038;0.0;20000;20000;6911;0;0;0
2024-11-07_09-53-07.908259;1560017;142.666748;22.125;0.334167;3.8975;51519.0;-0.026367;0.025391;0.026367;20000;20000;7075;0;0;0
2024-11-07_09-53-08.067849;1560238;137.333252;22.125;0.223333;3.865;51519.0;-0.029297;0.026367;0.030273;20000;20000;7224;0;0;0
2024-11-07_09-53-08.237765;1560344;138.666748;22.125;0.24125;3.859167;51519.0;-0.02832;0.02832;0.033203;20000;20000;7383;0;0;0
2024-11-07_09-53-08.362764;1560543;137.333252;22.125;0.083333;3.83375;51519.0;-0.027344;0.027344;0.03418;20000;20000;7534;0;0;0
2024-11-07_09-53-08.550484;1560641;142.666748;22.125;0.11;3.81625;51519.0;-0.027344;0.02832;0.029297;69000;69000;101;0;0;0
2024-11-07_09-53-08.784870;1560935;138.666748;22.125;0.024167;3.815833;51519.0;0.0;1.60038;0.0;69000;69000;359;0;0;0
2024-11-07_09-53-09.020677;1561135;137.333252;22.125;0.071667;3.815833;51519.0;0.0;1.60038;0.0;69000;69000;568;0;0;0
2024-11-07_09-53-09.160826;1561345;128.0;22.125;3.819167;3.822083;51519.0;-0.02832;0.030273;0.022461;69000;69000;720;0;0;0
2024-11-07_09-53-09.317254;1561441;132.0;22.0625;0.113333;3.817083;51519.0;-0.030273;0.024414;0.008789;0;0;881;0;0;0
2024-11-07_09-53-09.458447;1561543;138.666748;22.125;0.740833;3.921667;51519.0;-0.030273;0.03125;0.020508;0;0;1021;0;0;0
2024-11-07_09-53-09.630664;1561761;136.0;22.125;0.134167;3.829167;51519.0;-0.030273;0.02832;0.012695;0;0;1204;0;0;0
2024-11-07_09-53-09.771286;1561882;138.666748;22.0625;0.12375;3.82875;51519.0;-0.03125;0.030273;0.006836;0;0;1342;0;0;0
2024-11-07_09-53-09.943442;1562116;136.0;22.125;3.815417;3.815833;51519.0;-0.030273;0.029297;0.0;34000;34000;1511;0;0;0
2024-11-07_09-53-10.099691;1562225;136.0;22.0625;3.816667;3.815833;51519.0;-0.03125;0.02832;0.001953;68000;68000;1661;0;0;0
2024-11-07_09-53-10.349784;1562520;128.0;22.125;0.022083;3.820417;51519.0;0.0;1.60038;0.0;68000;68000;1909;0;0;0
2024-11-07_09-53-10.428254;1562520;128.0;22.125;0.022083;3.820417;51519.0;0.0;1.60038;0.0;68000;68000;2000;0;0;0
2024-11-07_09-53-10.568875;1562731;109.333252;22.125;0.124167;3.820833;51519.0;-0.032227;0.032227;0.00293;34000;34000;2118;0;0;0
2024-11-07_09-53-10.819157;1562947;-794.666626;22.125;4.05875;3.977917;51519.0;-0.03418;0.03125;-0.001953;-23333;-23333;2381;0;0;0
2024-11-07_09-53-11.054121;1563143;-213.333374;22.125;0.04875;3.82125;51519.0;-0.033203;0.029297;0.003906;-70000;-70000;2611;0;0;0
2024-11-07_09-53-11.289006;1563445;136.0;22.125;0.114167;3.820417;51519.0;0.0;1.60038;0.0;-70000;-70000;2835;0;0;0
2024-11-07_09-53-11.367393;1563552;138.666748;22.125;0.111667;3.82125;51519.0;-0.03418;0.041992;0.000977;-70000;-70000;2940;0;0;0
2024-11-07_09-53-11.492394;1563654;140.0;22.125;0.094583;3.820833;51519.0;-0.035156;0.040039;-0.000977;-46666;-46666;3061;0;0;0
2024-11-07_09-53-11.679894;1563755;146.666748;22.0625;0.349583;3.982917;51519.0;-0.035156;0.039062;-0.005859;9833;9833;3237;0;0;0
2024-11-07_09-53-11.804892;1563961;146.666748;22.125;0.064167;3.820417;51519.0;-0.036133;0.032227;0.004883;49166;49166;3368;0;0;0
2024-11-07_09-53-11.992817;1564151;140.0;22.125;0.0725;3.82125;51519.0;-0.033203;0.027344;-0.009766;59000;59000;3553;0;0;0
2024-11-07_09-53-12.196068;1564351;136.0;22.0625;0.05375;3.82125;51519.0;-0.033203;0.02832;-0.000977;59000;59000;3764;0;0;0
2024-11-07_09-53-12.306379;1564453;128.0;22.0625;0.092917;3.63;51519.0;-0.035156;0.025391;0.0;59000;59000;3880;0;0;0
2024-11-07_09-53-12.447015;1564551;122.666748;22.125;0.4175;3.690834;51519.0;-0.037109;0.03125;0.006836;29500;29500;4011;0;0;0
2024-11-07_09-53-12.666267;1564763;104.0;22.125;0.52;3.69375;51519.0;-0.038086;0.03125;0.023438;0;0;4231;0;0;0
2024-11-07_09-53-12.884995;1565081;90.666748;22.125;0.069167;3.6775;51519.0;0.0;1.60038;0.0;0;0;4460;0;0;0
2024-11-07_09-53-13.072941;1565195;98.666748;22.125;0.0975;3.670417;51519.0;-0.041992;0.032227;0.021484;0;0;4640;0;0;0
2024-11-07_09-53-13.238062;1565300;106.666748;22.0625;0.0925;3.673333;51519.0;-0.041016;0.029297;0.012695;-26666;-26666;4801;0;0;0
2024-11-07_09-53-13.464705;1565620;129.333252;22.125;0.021667;3.66875;51519.0;0.0;1.60038;0.0;-80000;-80000;5025;0;0;0
2024-11-07_09-53-13.558588;1565727;137.333252;22.0625;0.021667;0.02125;51519.0;-0.048828;0.03125;0.055664;-80000;-80000;5130;0;0;0
2024-11-07_09-53-13.699216;1565818;130.666748;22.125;0.022083;3.670834;51519.0;-0.049805;0.032227;0.121094;-80000;-80000;5261;0;0;0
2024-11-07_09-53-13.840373;1566019;110.666748;22.0625;0.044167;3.674167;51519.0;-0.046875;0.03125;0.217773;-80000;-80000;5401;0;0;0
2024-11-07_09-53-14.014338;1566126;105.333252;22.125;0.076667;3.67625;51519.0;-0.046875;0.03125;0.265625;-80000;-80000;5581;0;0;0
2024-11-07_09-53-14.294453;1566435;65.333252;22.0625;0.104167;3.674583;51519.0;0.0;1.60038;0.0;-60000;-60000;5861;0;0;0
2024-11-07_09-53-14.466629;1566643;41.333374;22.125;0.099167;3.702084;51519.0;-0.024414;0.030273;0.650391;-60000;-60000;6041;0;0;0
2024-11-07_09-53-14.654131;1566835;12.0;22.125;0.0875;3.674167;51519.0;0.0;1.60038;0.0;-60000;-60000;6227;0;0;0
2024-11-07_09-53-14.873303;1567033;-8.0;22.125;0.124583;3.679584;51519.0;-0.00293;0.040039;0.975586;-60000;-60000;6438;0;0;0
2024-11-07_09-53-15.061026;1567131;-18.666626;22.125;0.15875;3.682084;51519.0;-0.000977;0.047852;1.045898;20000;20000;6596;1;0;0
2024-11-07_09-53-15.264161;1567405;-41.333374;22.0625;0.487083;3.819584;51519.0;0.0;1.60038;0.0;20000;20000;6821;1;0;0
2024-11-07_09-53-15.405268;1567522;-58.666626;22.125;0.344167;3.882917;51519.0;-0.003906;0.049805;1.080078;20000;20000;6981;0;0;0
2024-11-07_09-53-15.577303;1567715;-70.666626;22.125;0.276667;3.785;51519.0;0.0;1.60038;0.0;20000;20000;7129;0;0;0
2024-11-07_09-53-15.733716;1567816;-70.666626;22.125;0.263333;3.772084;51519.0;0.025391;0.033203;1.334961;20000;20000;7291;0;1;0
2024-11-07_09-53-15.874342;1568034;-73.333374;22.125;0.180417;3.75125;51519.0;0.037109;0.025391;1.383789;20000;20000;7442;0;1;0
2024-11-07_09-53-16.047432;1568131;-84.0;22.125;0.22;3.725834;51519.0;0.040039;0.024414;1.410156;20000;20000;7601;0;1;0
2024-11-07_09-53-16.204044;1568358;-101.333374;22.125;0.175833;3.718333;51519.0;0.045898;0.016602;1.449219;20000;20000;7763;0;1;0
2024-11-07_09-53-16.345861;1568465;-101.333374;22.125;3.704583;3.705417;51519.0;0.045898;0.022461;1.480469;69000;69000;3;0;0;0
2024-11-07_09-53-16.487192;1568661;-118.666626;22.125;0.025;3.679584;51519.0;0.053711;0.027344;1.524414;69000;69000;152;0;0;0
2024-11-07_09-53-16.643988;1568764;-118.666626;22.125;0.025833;3.679167;51519.0;0.056641;0.024414;1.59375;69000;69000;302;0;0;0
2024-11-07_09-53-16.800240;1568960;-125.333374;22.125;0.063333;3.679584;51519.0;0.056641;0.022461;1.667969;69000;69000;462;0;0;0
2024-11-07_09-53-17.112971;1569252;-152.0;22.125;0.082917;3.68375;51519.0;0.0;1.60038;0.0;69000;69000;762;0;0;0
2024-11-07_09-53-17.269616;1569387;-154.666626;22.125;0.430417;3.894583;51519.0;0.057617;0.021484;1.696289;0;0;932;0;0;0
2024-11-07_09-53-17.441842;1569613;-164.0;22.125;0.050833;3.690417;51519.0;0.055664;0.029297;1.749023;0;0;1092;0;0;0
2024-11-07_09-53-17.755526;1569911;-157.333374;22.125;0.0925;3.68625;51519.0;0.053711;0.025391;1.729492;0;0;1402;0;0;0
2024-11-07_09-53-18.005567;1570111;-145.333374;22.125;0.034583;3.685;51519.0;0.054688;0.025391;1.705078;45333;45333;1662;0;0;0
