datetime;time;load_cell;board_temperature;pressure_macki;pressure_tank;distance;acc_x;acc_y;acc_z;motor1_speed;motor2_speed;procedure_time;mechanical_state;motor1_temperature;motor2_temperature
2024-11-07_09-27-28.174309;24645;-2000.0;16.875;0.02125;0.145833;168.0;0.026367;0.037109;1.021484;0;0;24750;0;0;0
2024-11-07_09-27-28.346184;24786;-2000.0;16.875;0.145417;0.145833;168.0;0.02832;0.03418;1.021484;0;0;24921;0;0;0
2024-11-07_09-27-28.486808;24928;-2000.0;16.875;0.02125;0.140417;166.0;0.026367;0.035156;1.011719;0;0;25060;0;0;0
2024-11-07_09-27-28.643058;25075;-2000.0;16.875;0.02125;0.14;168.0;0.025391;0.035156;1.021484;0;0;25209;0;0;0
2024-11-07_09-27-28.924308;25364;-2000.0;16.875;0.02125;0.1425;168.0;0.027344;0.040039;1.024414;0;0;25502;0;0;0
2024-11-07_09-27-29.439933;25795;-2000.0;16.875;0.02125;0.140417;169.0;0.030273;0.035156;1.026367;0;0;26013;0;0;0
2024-11-07_09-27-29.580558;25933;-2000.0;16.875;0.02125;0.140417;168.0;0.027344;0.040039;1.018555;0;0;26160;0;0;0
2024-11-07_09-27-29.783684;26225;-2000.0;16.875;0.02125;0.140417;169.0;0.025391;0.037109;1.026367;0;0;26369;0;0;0
2024-11-07_09-27-29.955559;26365;-2000.0;16.875;0.02125;0.140417;167.0;0.02832;0.037109;1.020508;0;0;26529;0;0;0
2024-11-07_09-27-30.049309;26505;-2000.0;16.875;0.02125;0.140417;167.0;0.02832;0.037109;1.018555;0;0;26630;0;0;0
2024-11-07_09-27-30.205558;26650;-2000.0;16.875;0.02125;0.145833;168.0;0.026367;0.03418;1.025391;0;0;26780;0;0;0
2024-11-07_09-27-30.502433;26947;-2000.0;16.875;0.02125;0.140417;168.0;0.026367;0.038086;1.026367;0;0;27067;0;0;0
2024-11-07_09-27-30.674309;27090;-2000.0;16.875;0.02125;0.14;168.0;0.025391;0.036133;1.019531;0;0;27247;0;0;0
2024-11-07_09-27-30.830957;27222;-2000.0;16.875;0.02125;0.145833;167.0;0.025391;0.03418;1.023438;0;0;27410;0;0;0
2024-11-07_09-27-30.987207;27352;-2000.0;16.875;0.02125;0.145417;168.0;0.02832;0.036133;1.032227;0;0;27560;0;0;0
2024-11-07_09-27-31.143456;27496;-2000.0;16.875;0.02125;0.140417;167.0;0.02832;0.041016;1.018555;0;0;27728;0;0;0
2024-11-07_09-27-31.299707;27656;-2000.0;16.875;0.02125;0.145833;168.0;0.026367;0.040039;1.02832;0;0;27876;0;0;0
2024-11-07_09-27-31.455955;27809;-2000.0;16.875;0.02125;0.145833;169.0;0.02832;0.035156;1.023438;0;0;28030;0;0;0
2024-11-07_09-27-31.612207;28105;-2000.0;16.875;0.02125;0.145833;167.0;0.026367;0.036133;1.010742;0;0;28190;0;0;0
2024-11-07_09-27-31.862206;28242;-2000.0;16.875;0.02125;0.140417;169.0;0.027344;0.036133;1.019531;0;0;28436;0;0;0
2024-11-07_09-27-31.940331;28385;-2000.0;16.875;0.02125;0.145833;166.0;0.02832;0.035156;1.029297;0;0;28504;0;0;0
2024-11-07_09-27-32.127831;28526;-2000.0;16.875;0.02125;0.145833;168.0;0.025391;0.040039;1.025391;0;0;28681;0;0;0
2024-11-07_09-27-32.237207;28666;-2000.0;16.875;0.021667;0.145833;169.0;0.026367;0.040039;1.025391;0;0;28810;0;0;0
2024-11-07_09-27-32.409082;28805;-2000.0;16.875;0.021667;0.145833;168.0;0.025391;0.038086;1.025391;0;0;28990;0;0;0
2024-11-07_09-27-32.549707;28942;-2000.0;16.875;0.02125;0.145833;167.0;0.030273;0.038086;1.025391;0;0;29126;0;0;0
2024-11-07_09-27-32.784081;29223;-2000.0;16.9375;0.140417;0.140833;168.0;0.025391;0.037109;1.010742;0;0;29359;0;0;0
2024-11-07_09-27-32.862208;29223;-2000.0;16.9375;0.140417;0.140833;168.0;0.025391;0.037109;1.010742;0;0;29440;0;0;0
2024-11-07_09-27-33.065331;29502;-2000.0;16.9375;0.021667;0.145833;168.0;0.02832;0.039062;1.026367;0;0;29649;0;0;0
2024-11-07_09-27-33.299705;29795;-2000.0;16.875;0.02125;0.145833;168.0;0.027344;0.038086;1.022461;0;0;29876;0;0;0
2024-11-07_09-27-33.487225;29936;-2000.0;16.9375;0.02125;0.145417;167.0;0.026367;0.037109;1.017578;0;0;30060;0;0;0
2024-11-07_09-27-33.784082;30235;-2000.0;16.875;0.02125;0.145833;168.0;0.026367;0.036133;1.017578;0;0;30349;0;0;0
2024-11-07_09-27-33.940330;30385;-2000.0;16.9375;0.02125;0.145417;171.0;0.026367;0.036133;1.00293;0;0;30521;0;0;0
2024-11-07_09-27-34.112208;30528;-2000.0;16.9375;0.02125;0.145833;163.0;0.029297;0.039062;1.016602;0;0;30700;0;0;0
2024-11-07_09-27-34.409083;30827;-2000.0;16.9375;0.02125;0.140417;169.0;0.026367;0.035156;1.026367;0;0;30991;0;0;0
2024-11-07_09-27-34.627831;30986;-20.0;16.9375;0.02125;0.140417;167.0;0.02832;0.035156;1.020508;0;0;31209;0;0;0
2024-11-07_09-27-34.721582;31135;-21.333374;16.875;0.02125;0.140417;167.0;0.026367;0.038086;1.016602;0;0;31310;0;0;0
2024-11-07_09-27-34.893457;31278;-22.666626;16.875;0.02125;0.140417;168.0;0.026367;0.041016;1.018555;0;0;31470;0;0;0
2024-11-07_09-27-35.034082;31420;-25.333374;16.9375;0.02125;0.145833;170.0;0.025391;0.035156;1.020508;0;0;31613;0;0;0
2024-11-07_09-27-35.284084;31695;-20.0;16.9375;0.02125;0.14125;166.0;0.027344;0.037109;1.021484;0;0;31870;0;0;0
2024-11-07_09-27-35.455955;31835;-22.666626;16.9375;0.02125;0.140417;168.0;0.024414;0.036133;1.016602;0;0;32027;0;0;0
2024-11-07_09-27-35.612206;32115;-26.666626;16.9375;0.02125;0.144583;166.0;0.027344;0.038086;1.018555;0;0;32199;0;0;0
2024-11-07_09-27-35.674706;32115;-26.666626;16.9375;0.02125;0.144583;166.0;0.027344;0.038086;1.018555;0;0;32251;0;0;0
2024-11-07_09-27-35.830956;32255;-22.666626;16.9375;0.02125;0.140417;170.0;0.024414;0.038086;1.020508;0;0;32410;0;0;0
2024-11-07_09-27-35.971582;32395;-21.333374;16.9375;0.02125;0.14125;168.0;0.025391;0.037109;1.019531;0;0;32559;0;0;0
2024-11-07_09-27-36.205956;32675;-20.0;16.9375;0.02125;0.140417;169.0;0.027344;0.041016;1.025391;0;0;32790;0;0;0
2024-11-07_09-27-36.393455;32816;-22.666626;16.9375;0.144167;0.14375;167.0;0.029297;0.03418;1.013672;0;0;32964;0;0;0
2024-11-07_09-27-36.440332;32945;-20.0;16.9375;0.02125;0.140833;167.0;0.025391;0.041016;1.024414;0;0;33023;0;0;0
2024-11-07_09-27-36.627829;33082;-25.333374;16.9375;0.02125;0.141667;169.0;0.027344;0.036133;1.02832;0;0;33208;0;0;0
2024-11-07_09-27-36.846581;33219;-22.666626;16.9375;0.021667;0.14;166.0;0.023438;0.03418;1.015625;0;0;33429;0;0;0
2024-11-07_09-27-36.924706;33370;-20.0;16.9375;0.02125;0.140417;169.0;0.025391;0.037109;1.018555;0;0;33500;0;0;0
2024-11-07_09-27-37.080957;33521;-25.333374;16.9375;0.02125;0.1425;167.0;0.026367;0.036133;1.023438;0;0;33655;0;0;0
2024-11-07_09-27-37.221582;33675;-21.333374;16.9375;0.02125;0.140417;167.0;0.02832;0.041992;1.027344;0;0;33810;0;0;0
2024-11-07_09-27-37.440331;33823;-29.333374;16.9375;0.140417;0.14125;169.0;0.026367;0.037109;1.016602;0;0;34015;0;0;0
2024-11-07_09-27-37.534082;33967;-25.333374;16.9375;0.021667;0.140417;169.0;0.027344;0.036133;1.023438;0;0;34120;0;0;0
2024-11-07_09-27-37.705955;34105;-20.0;16.9375;0.02125;0.140417;171.0;0.02832;0.039062;1.026367;0;0;34282;0;0;0
2024-11-07_09-27-37.862206;34248;-25.333374;16.9375;0.02125;0.140417;165.0;0.02832;0.041016;1.02832;0;0;34440;0;0;0
2024-11-07_09-27-38.018455;34399;-22.666626;16.9375;0.02125;0.140833;169.0;0.024414;0.035156;1.008789;0;0;34591;0;0;0
2024-11-07_09-27-38.174706;34545;-22.666626;16.9375;0.02125;0.14125;169.0;0.027344;0.040039;1.021484;0;0;34750;0;0;0
2024-11-07_09-27-38.409081;34823;-25.333374;16.9375;0.021667;0.140417;169.0;0.029297;0.039062;1.035156;0;0;34999;0;0;0
2024-11-07_09-27-38.487207;34965;-21.333374;16.9375;0.02125;0.140417;168.0;0.027344;0.037109;1.026367;0;0;35070;0;0;0
2024-11-07_09-27-38.643455;35106;-17.333374;16.9375;0.02125;0.140417;168.0;0.027344;0.039062;1.024414;0;0;35229;0;0;0
2024-11-07_09-27-38.846591;35255;-21.333374;16.9375;0.02125;0.145;168.0;0.029297;0.040039;1.03125;0;0;35408;0;0;0
2024-11-07_09-27-39.034194;35395;-22.666626;16.9375;0.02125;0.141667;167.0;0.02832;0.036133;1.022461;0;0;35576;0;0;0
2024-11-07_09-27-39.097348;35535;-25.333374;16.9375;0.021667;0.145;167.0;0.025391;0.040039;1.023438;0;0;35683;0;0;0
2024-11-07_09-27-39.284238;35676;-22.666626;16.9375;0.02125;0.145833;166.0;0.026367;0.036133;1.014648;0;0;35860;0;0;0
2024-11-07_09-27-39.424970;35822;-21.333374;16.9375;0.02125;0.141667;167.0;0.027344;0.041992;1.022461;0;0;36000;0;0;0
2024-11-07_09-27-39.706711;36108;-21.333374;16.9375;0.02125;0.14375;168.0;0.026367;0.040039;1.020508;0;0;36280;0;0;0
2024-11-07_09-27-39.894208;36261;-22.666626;16.9375;0.021667;0.140417;171.0;0.027344;0.039062;1.018555;0;0;36470;0;0;0
2024-11-07_09-27-40.068558;36412;-22.666626;16.9375;0.02125;0.140417;170.0;0.024414;0.03418;1.014648;0;0;36634;0;0;0
2024-11-07_09-27-40.254124;36702;-25.333374;16.9375;0.021667;0.145;168.0;0.025391;0.040039;1.021484;0;0;36810;0;0;0
2024-11-07_09-27-40.472861;36843;-18.666626;16.9375;0.02125;0.145833;167.0;0.02832;0.039062;1.020508;0;0;37038;0;0;0
2024-11-07_09-27-40.519638;36988;-22.666626;16.9375;0.02125;0.140417;166.0;0.027344;0.037109;1.016602;0;0;37100;0;0;0
2024-11-07_09-27-40.707249;37139;-22.666626;16.9375;0.02125;0.140417;167.0;0.024414;0.039062;1.024414;0;0;37267;0;0;0
2024-11-07_09-27-40.832158;37283;-22.666626;16.9375;0.02125;0.140417;166.0;0.027344;0.038086;1.021484;0;0;37410;0;0;0
2024-11-07_09-27-40.973343;37412;-22.666626;16.9375;0.02125;0.142917;171.0;0.027344;0.037109;1.027344;0;0;37550;0;0;0
2024-11-07_09-27-41.207736;37705;-22.666626;16.9375;0.021667;0.140417;166.0;0.02832;0.040039;1.027344;0;0;37790;0;0;0
2024-11-07_09-27-41.301787;37705;-22.666626;16.9375;0.021667;0.140417;166.0;0.02832;0.040039;1.027344;0;0;37880;0;0;0
2024-11-07_09-27-41.458145;37849;-17.333374;17.0;0.02125;0.140417;170.0;0.027344;0.03125;1.015625;0;0;38030;0;0;0
2024-11-07_09-27-41.630006;37995;-25.333374;17.0;0.021667;0.140417;166.0;0.026367;0.036133;1.008789;0;0;38202;0;0;0
2024-11-07_09-27-41.880005;38275;-22.666626;17.0;0.02125;0.145;170.0;0.027344;0.035156;1.020508;0;0;38441;0;0;0
2024-11-07_09-27-42.020554;38412;-21.333374;16.9375;0.02125;0.145833;167.0;0.026367;0.038086;1.029297;0;0;38597;0;0;0
2024-11-07_09-27-42.083037;38545;-25.333374;17.0;0.02125;0.140417;168.0;0.026367;0.035156;1.015625;0;0;38652;0;0;0
2024-11-07_09-27-42.270673;38680;-34.666626;17.0;0.021667;0.14;169.0;0.026367;0.037109;1.020508;0;0;38838;0;0;0
2024-11-07_09-27-42.442495;38828;-20.0;17.0;0.02125;0.140417;169.0;0.02832;0.037109;1.025391;0;0;39005;0;0;0
2024-11-07_09-27-42.585198;38975;-22.666626;17.0;0.02125;0.140417;165.0;0.025391;0.041016;1.005859;0;0;39158;0;0;0
2024-11-07_09-27-42.712854;39112;-25.333374;17.0;0.02125;0.144583;168.0;0.026367;0.036133;1.009766;0;0;39290;0;0;0
2024-11-07_09-27-42.871608;39255;-21.333374;17.0;0.02125;0.145833;166.0;0.027344;0.038086;1.021484;0;0;39446;0;0;0
2024-11-07_09-27-43.176756;39542;-20.0;17.0;0.02125;0.145833;169.0;0.023438;0.03418;1.014648;0;0;39739;0;0;0
2024-11-07_09-27-43.329918;39686;-21.333374;17.0;0.145833;0.145833;170.0;0.027344;0.038086;1.012695;0;0;39912;0;0;0
2024-11-07_09-27-43.567787;39988;-17.333374;17.0;0.02125;0.145833;168.0;0.025391;0.038086;1.011719;0;0;40149;0;0;0
2024-11-07_09-27-43.647455;39988;-17.333374;17.0;0.02125;0.145833;168.0;0.025391;0.038086;1.011719;0;0;40216;0;0;0
2024-11-07_09-27-43.837009;40283;-18.666626;17.0;0.02125;0.145833;169.0;0.025391;0.039062;1.008789;0;0;40393;0;0;0
2024-11-07_09-27-43.964090;40415;-25.333374;17.0;0.021667;0.145833;167.0;0.025391;0.035156;1.003906;0;0;40540;0;0;0
2024-11-07_09-27-44.120950;40553;-25.333374;17.0;0.02125;0.145833;171.0;0.025391;0.035156;1.010742;0;0;40700;0;0;0
2024-11-07_09-27-44.261809;40699;-30.666626;17.0;0.02125;0.145833;168.0;0.026367;0.03418;1.013672;0;0;40848;0;0;0
2024-11-07_09-27-44.496332;40848;-30.666626;17.0;0.02125;0.145833;171.0;0.025391;0.033203;1.011719;0;0;41070;0;0;0
2024-11-07_09-27-44.590332;40992;-20.0;17.0;0.02125;0.145417;170.0;0.029297;0.032227;1.022461;0;0;41170;0;0;0
2024-11-07_09-27-44.872203;41294;-25.333374;17.0;0.02125;0.145833;170.0;0.027344;0.033203;1.026367;0;0;41438;0;0;0
2024-11-07_09-27-45.060064;41436;-29.333374;17.0;0.02125;0.145833;169.0;0.026367;0.035156;1.025391;0;0;41640;0;0;0
2024-11-07_09-27-45.202477;41573;-22.666626;17.0;0.02125;0.145833;168.0;0.029297;0.033203;1.02832;0;0;41782;0;0;0
2024-11-07_09-27-45.374729;41862;-22.666626;17.0;0.021667;0.140417;168.0;0.026367;0.042969;1.035156;0;0;41962;0;0;0
2024-11-07_09-27-45.531098;42009;-22.666626;17.0;0.02125;0.140417;169.0;0.027344;0.039062;1.03125;0;0;42110;0;0;0
2024-11-07_09-27-45.781363;42155;-34.666626;17.0;0.02125;0.140417;168.0;0.027344;0.044922;1.032227;0;0;42369;0;0;0
2024-11-07_09-27-45.844161;42292;-22.666626;17.0;0.02125;0.145833;169.0;0.027344;0.045898;1.025391;0;0;42422;0;0;0
2024-11-07_09-27-46.016035;42443;-29.333374;17.0;0.02125;0.140417;168.0;0.025391;0.045898;1.029297;0;0;42600;0;0;0
2024-11-07_09-27-46.188317;42588;-22.666626;17.0;0.02125;0.140417;169.0;0.025391;0.049805;1.032227;0;0;42766;0;0;0
2024-11-07_09-27-46.424269;42892;-22.666626;17.0;0.02125;0.145833;170.0;0.027344;0.049805;1.030273;0;0;42998;0;0;0
2024-11-07_09-27-46.597103;43033;-25.333374;17.0;0.02125;0.140417;168.0;0.025391;0.047852;1.032227;0;0;43176;0;0;0
2024-11-07_09-27-46.754909;43170;-21.333374;17.0625;0.02125;0.140417;170.0;0.025391;0.046875;1.026367;0;0;43332;0;0;0
2024-11-07_09-27-46.927365;43319;-22.666626;17.0;0.02125;0.140417;169.0;0.025391;0.045898;1.020508;0;0;43513;0;0;0
2024-11-07_09-27-47.162368;43616;-22.666626;17.0;0.021667;0.140417;170.0;0.026367;0.045898;1.025391;0;0;43749;0;0;0
2024-11-07_09-27-47.240681;43616;-22.666626;17.0;0.021667;0.140417;170.0;0.026367;0.045898;1.025391;0;0;43820;0;0;0
2024-11-07_09-27-47.413219;43905;-29.333374;17.0;0.02125;0.145833;169.0;0.026367;0.041016;1.022461;0;0;43981;0;0;0
2024-11-07_09-27-47.633061;44045;-29.333374;17.0;0.02125;0.140417;170.0;0.025391;0.040039;1.025391;0;0;44219;0;0;0
2024-11-07_09-27-47.711622;44190;-25.333374;17.0;0.02125;0.145833;169.0;0.02832;0.039062;1.027344;0;0;44290;0;0;0
2024-11-07_09-27-47.883497;44335;-22.666626;17.0;0.02125;0.145833;167.0;0.027344;0.038086;1.03418;0;0;44454;0;0;0
2024-11-07_09-27-48.072284;44473;-22.666626;17.0;0.02125;0.140417;169.0;0.027344;0.036133;1.023438;0;0;44629;0;0;0
2024-11-07_09-27-48.197939;44619;-21.333374;17.0625;0.02125;0.140417;168.0;0.027344;0.038086;1.026367;0;0;44781;0;0;0
2024-11-07_09-27-48.323292;44762;-22.666626;17.0;0.02125;0.140417;170.0;0.027344;0.033203;1.024414;0;0;44903;0;0;0
2024-11-07_09-27-48.511360;44905;-25.333374;17.0;0.02125;0.140417;171.0;0.027344;0.03125;1.020508;0;0;45089;0;0;0
2024-11-07_09-27-48.683953;45042;-22.666626;17.0;0.02125;0.140417;166.0;0.026367;0.033203;1.016602;0;0;45248;0;0;0
2024-11-07_09-27-48.793677;45185;-21.333374;17.0625;0.02125;0.141667;170.0;0.027344;0.035156;1.021484;0;0;45373;0;0;0
2024-11-07_09-27-48.965553;45471;-22.666626;17.0;0.021667;0.140417;166.0;0.027344;0.036133;1.025391;0;0;45552;0;0;0
2024-11-07_09-27-49.123561;45471;-22.666626;17.0;0.021667;0.140417;166.0;0.027344;0.036133;1.025391;0;0;45700;0;0;0
2024-11-07_09-27-49.266282;45768;-22.666626;17.0625;0.02125;0.145833;171.0;0.027344;0.037109;1.019531;0;0;45853;0;0;0
2024-11-07_09-27-49.440523;45921;-22.666626;17.0625;0.02125;0.145417;165.0;0.02832;0.038086;1.025391;0;0;46007;0;0;0
2024-11-07_09-27-49.596872;46064;-25.333374;17.0625;0.02125;0.145833;170.0;0.027344;0.033203;1.036133;0;0;46170;0;0;0
2024-11-07_09-27-49.753639;46206;-22.666626;17.0625;0.02125;0.140417;168.0;0.030273;0.041992;1.041016;0;0;46330;0;0;0
2024-11-07_09-27-49.941162;46362;-22.666626;17.0625;0.02125;0.140417;169.0;0.025391;0.039062;1.03125;0;0;46502;0;0;0
2024-11-07_09-27-50.098472;46513;-25.333374;17.0625;0.02125;0.140417;168.0;0.02832;0.037109;1.02832;0;0;46686;0;0;0
2024-11-07_09-27-50.207692;46661;-22.666626;17.0625;0.02125;0.140417;170.0;0.027344;0.035156;1.041992;0;0;46790;0;0;0
2024-11-07_09-27-50.379986;46805;-30.666626;17.0625;0.02125;0.140417;169.0;0.027344;0.040039;1.041016;0;0;46959;0;0;0
2024-11-07_09-27-50.661348;47085;-30.666626;17.0625;0.02125;0.140417;171.0;0.02832;0.039062;1.032227;0;0;47198;0;0;0
2024-11-07_09-27-50.973841;47366;-22.666626;17.0625;0.02125;0.145833;168.0;0.025391;0.037109;1.033203;0;0;47549;0;0;0
2024-11-07_09-27-51.255729;47653;-25.333374;17.0625;0.021667;0.140417;171.0;0.027344;0.039062;1.020508;0;0;47832;0;0;0
2024-11-07_09-27-51.302796;47795;-25.333374;17.0625;0.02125;0.145833;172.0;0.027344;0.037109;1.033203;0;0;47882;0;0;0
2024-11-07_09-27-51.475215;47920;-25.333374;17.0625;0.02125;0.145833;168.0;0.02832;0.037109;1.027344;0;0;48044;0;0;0
2024-11-07_09-27-51.662985;48068;-26.666626;17.0625;0.02125;0.140417;168.0;0.02832;0.038086;1.021484;0;0;48243;0;0;0
2024-11-07_09-27-51.772262;48215;-30.666626;17.0625;0.02125;0.145833;170.0;0.026367;0.037109;1.022461;0;0;48352;0;0;0
2024-11-07_09-27-52.006736;48358;-25.333374;17.0625;0.02125;0.145833;171.0;0.027344;0.038086;1.020508;0;0;48580;0;0;0
2024-11-07_09-27-52.100450;48502;-26.666626;17.0625;0.02125;0.145833;170.0;0.029297;0.038086;1.033203;0;0;48680;0;0;0
2024-11-07_09-27-52.257169;48653;-25.333374;17.0625;0.02125;0.145833;171.0;0.02832;0.033203;1.022461;0;0;48830;0;0;0
2024-11-07_09-27-52.413418;48809;-29.333374;17.0625;0.02125;0.02125;169.0;0.02832;0.041992;1.03418;0;0;49000;0;0;0
2024-11-07_09-27-52.663428;49102;-25.333374;17.125;0.02125;0.140417;168.0;0.027344;0.036133;1.02832;0;0;49228;0;0;0
2024-11-07_09-27-52.835243;49244;-29.333374;17.0625;0.02125;0.145833;168.0;0.025391;0.035156;1.020508;0;0;49403;0;0;0
2024-11-07_09-27-52.882073;49244;-29.333374;17.0625;0.02125;0.145833;168.0;0.025391;0.035156;1.020508;0;0;49460;0;0;0
2024-11-07_09-27-53.117298;49535;-22.666626;17.0625;0.02125;0.140417;171.0;0.02832;0.038086;1.030273;0;0;49690;0;0;0
2024-11-07_09-27-53.289570;49671;-22.666626;17.0625;0.02125;0.140417;168.0;0.027344;0.039062;1.02832;0;0;49860;0;0;0
2024-11-07_09-27-53.352445;49805;-26.666626;17.0625;0.02125;0.140417;171.0;0.025391;0.036133;1.023438;0;0;49941;0;0;0
2024-11-07_09-27-53.633796;50075;-22.666626;17.0625;0.02125;0.145833;170.0;0.026367;0.039062;1.017578;0;0;50203;0;0;0
2024-11-07_09-27-53.852978;50217;-22.666626;17.0625;0.02125;0.140417;169.0;0.024414;0.035156;1.018555;0;0;50415;0;0;0
2024-11-07_09-27-53.993715;50391;-21.333374;17.0625;0.021667;0.140417;170.0;0.026367;0.035156;1.022461;0;0;50569;0;0;0
2024-11-07_09-27-54.119150;50535;-25.333374;17.0625;0.02125;0.140417;169.0;0.027344;0.036133;1.024414;0;0;50710;0;0;0
2024-11-07_09-27-54.291633;50673;-30.666626;17.125;0.021667;0.140417;170.0;0.027344;0.038086;1.027344;0;0;50870;0;0;0
2024-11-07_09-27-54.839040;51243;-25.333374;17.125;0.02125;0.140417;170.0;0.02832;0.041016;1.020508;0;0;51372;0;0;0
2024-11-07_09-27-54.901434;51386;-25.333374;17.125;0.02125;0.140417;169.0;0.02832;0.036133;1.033203;0;0;51490;0;0;0
2024-11-07_09-27-55.073310;51526;-21.333374;17.0625;0.02125;0.140417;168.0;0.026367;0.042969;1.023438;0;0;51650;0;0;0
2024-11-07_09-27-55.309087;51665;-25.333374;17.125;0.02125;0.140417;167.0;0.026367;0.040039;1.024414;0;0;51879;0;0;0
2024-11-07_09-27-55.372069;51805;-21.333374;17.125;0.02125;0.140417;171.0;0.026367;0.038086;1.027344;0;0;51960;0;0;0
2024-11-07_09-27-55.559670;51945;-25.333374;17.125;0.140417;0.140417;169.0;0.026367;0.039062;1.029297;0;0;52130;0;0;0
2024-11-07_09-27-55.700420;52090;-22.666626;17.125;0.02125;0.140417;170.0;0.027344;0.038086;1.033203;0;0;52280;0;0;0
2024-11-07_09-27-55.967609;52389;-25.333374;17.125;0.02125;0.140417;171.0;0.026367;0.036133;1.027344;0;0;52551;0;0;0
2024-11-07_09-27-56.020066;52389;-25.333374;17.125;0.02125;0.140417;171.0;0.026367;0.036133;1.027344;0;0;52600;0;0;0
2024-11-07_09-27-56.156970;52539;-21.333374;17.125;0.02125;0.140417;167.0;0.027344;0.038086;1.027344;0;0;52741;0;0;0
2024-11-07_09-27-56.314873;52809;-20.0;17.125;0.02125;0.145833;170.0;0.026367;0.039062;1.030273;0;0;52900;0;0;0
2024-11-07_09-27-56.550916;52959;-30.666626;17.125;0.02125;0.145833;166.0;0.027344;0.035156;1.026367;0;0;53130;0;0;0
2024-11-07_09-27-56.631621;53112;-25.333374;17.125;0.021667;0.145833;169.0;0.027344;0.040039;1.027344;0;0;53210;0;0;0
2024-11-07_09-27-56.787640;53261;-22.666626;17.125;0.02125;0.145833;169.0;0.026367;0.041016;1.030273;0;0;53359;0;0;0
2024-11-07_09-27-57.024150;53406;-22.666626;17.125;0.02125;0.145833;170.0;0.02832;0.035156;1.026367;0;0;53591;0;0;0
2024-11-07_09-27-57.181800;53555;-22.666626;17.125;0.02125;0.140417;170.0;0.027344;0.038086;1.02832;0;0;53751;0;0;0
2024-11-07_09-27-57.291781;53693;-26.666626;17.125;0.02125;0.140417;168.0;0.027344;0.041992;1.036133;0;0;53844;0;0;0
2024-11-07_09-27-57.402254;53836;-21.333374;17.125;0.02125;0.140417;168.0;0.027344;0.039062;1.033203;0;0;53990;0;0;0
2024-11-07_09-27-57.575450;53972;-21.333374;17.125;0.02125;0.140417;169.0;0.025391;0.038086;1.023438;0;0;54150;0;0;0
2024-11-07_09-27-57.764581;54118;-25.333374;17.125;0.02125;0.140417;171.0;0.02832;0.041992;1.027344;0;0;54344;0;0;0
2024-11-07_09-27-57.889858;54266;-21.333374;17.125;0.02125;0.140417;168.0;0.026367;0.03418;1.032227;0;0;54461;0;0;0
2024-11-07_09-27-58.127017;54555;-21.333374;17.125;0.02125;0.140417;167.0;0.026367;0.041016;1.039062;0;0;54709;0;0;0
2024-11-07_09-27-58.285059;54696;-18.666626;17.125;0.02125;0.140417;167.0;0.025391;0.038086;1.030273;0;0;54861;0;0;0
2024-11-07_09-27-58.348035;54696;-18.666626;17.125;0.02125;0.140417;167.0;0.025391;0.038086;1.030273;0;0;54923;0;0;0
2024-11-07_09-27-58.504892;54979;-21.333374;17.125;0.02125;0.140417;169.0;0.02832;0.040039;1.032227;0;0;55079;0;0;0
2024-11-07_09-27-58.661876;55125;-30.666626;17.125;0.02125;0.140417;170.0;0.02832;0.038086;1.029297;0;0;55240;0;0;0
2024-11-07_09-27-58.881876;55271;-21.333374;17.125;0.02125;0.140417;169.0;0.02832;0.038086;1.025391;0;0;55460;0;0;0
2024-11-07_09-27-58.976180;55414;-22.666626;17.1875;0.02125;0.140417;169.0;0.02832;0.038086;1.029297;0;0;55550;0;0;0
2024-11-07_09-27-59.181213;55575;-18.666626;17.125;0.021667;0.140417;164.0;0.027344;0.035156;1.02832;0;0;55748;0;0;0
2024-11-07_09-27-59.338614;55720;-21.333374;17.125;0.02125;0.02125;166.0;0.026367;0.041992;1.022461;0;0;55920;0;0;0
2024-11-07_09-27-59.527592;56000;-21.333374;17.125;0.02125;0.140417;173.0;0.026367;0.039062;1.017578;0;0;56101;0;0;0
2024-11-07_09-27-59.670506;56141;-22.666626;17.125;0.02125;0.140417;169.0;0.027344;0.033203;1.021484;0;0;56251;0;0;0
2024-11-07_09-27-59.762935;56141;-22.666626;17.125;0.02125;0.140417;169.0;0.027344;0.033203;1.021484;0;0;56340;0;0;0
2024-11-07_09-27-59.998440;56432;-20.0;17.1875;0.02125;0.140417;168.0;0.027344;0.040039;1.023438;0;0;56555;0;0;0
2024-11-07_09-28-00.140220;56576;-25.333374;17.1875;0.02125;0.140417;169.0;0.027344;0.042969;1.022461;0;0;56709;0;0;0
2024-11-07_09-28-00.219053;56715;-20.0;17.1875;0.02125;0.140417;172.0;0.027344;0.037109;1.03418;0;0;56800;0;0;0
2024-11-07_09-28-00.391629;56855;-21.333374;17.1875;0.02125;0.140417;170.0;0.025391;0.038086;1.027344;0;0;56970;0;0;0
2024-11-07_09-28-00.548488;56995;-22.666626;17.1875;0.02125;0.140417;170.0;0.02832;0.036133;1.020508;0;0;57130;0;0;0
2024-11-07_09-28-00.705847;57145;-18.666626;17.1875;0.02125;0.140417;170.0;0.027344;0.033203;1.016602;0;0;57280;0;0;0
2024-11-07_09-28-00.863346;57283;-22.666626;17.1875;0.02125;0.140417;172.0;0.027344;0.037109;1.023438;0;0;57439;0;0;0
2024-11-07_09-28-01.035387;57426;-22.666626;17.1875;0.02125;0.140417;168.0;0.026367;0.036133;1.023438;0;0;57614;0;0;0
2024-11-07_09-28-01.489146;57865;-22.666626;17.1875;0.02125;0.140417;167.0;0.027344;0.038086;1.027344;0;0;58060;0;0;0
2024-11-07_09-28-01.661015;58008;-25.333374;17.1875;0.02125;0.140417;170.0;0.027344;0.038086;1.022461;0;0;58229;0;0;0
2024-11-07_09-28-01.879731;58304;-30.666626;17.1875;0.02125;0.140417;169.0;0.025391;0.039062;1.017578;0;0;58461;0;0;0
2024-11-07_09-28-01.942232;58445;-21.333374;17.1875;0.02125;0.14125;167.0;0.026367;0.036133;1.018555;0;0;58530;0;0;0
2024-11-07_09-28-02.114119;58590;-22.666626;17.1875;0.02125;0.140417;172.0;0.027344;0.037109;1.024414;0;0;58702;0;0;0
2024-11-07_09-28-02.274583;58741;-20.0;17.1875;0.02125;0.140833;167.0;0.026367;0.037109;1.009766;0;0;58850;0;0;0
2024-11-07_09-28-02.442628;58896;-20.0;17.1875;0.140417;0.143333;167.0;0.026367;0.036133;1.012695;0;0;59019;0;0;0
2024-11-07_09-28-02.661473;59035;-22.666626;17.1875;0.02125;0.140417;168.0;0.025391;0.041016;1.017578;0;0;59235;0;0;0
2024-11-07_09-28-02.864606;59190;-18.666626;17.1875;0.02125;0.140417;167.0;0.023438;0.039062;1.014648;0;0;59407;0;0;0
2024-11-07_09-28-03.052461;59484;-20.0;17.1875;0.02125;0.140833;168.0;0.025391;0.041016;1.026367;0;0;59640;0;0;0
2024-11-07_09-28-03.209217;59622;-22.666626;17.1875;0.02125;0.140417;170.0;0.025391;0.037109;1.014648;0;0;59790;0;0;0
2024-11-07_09-28-03.366970;59768;-30.666626;17.1875;0.02125;0.140417;173.0;0.027344;0.040039;1.016602;0;0;59940;0;0;0
2024-11-07_09-28-03.537935;59915;-22.666626;17.1875;0.02125;0.140417;168.0;0.02832;0.03418;1.026367;0;0;60115;0;0;0
2024-11-07_09-28-03.679201;60055;-21.333374;17.1875;0.02125;0.140417;169.0;0.026367;0.035156;1.024414;0;0;60260;0;0;0
2024-11-07_09-28-03.945125;60332;-25.333374;17.1875;0.02125;0.140417;171.0;0.027344;0.036133;1.018555;0;0;60531;0;0;0
2024-11-07_09-28-04.101888;60475;-22.666626;17.1875;0.02125;0.140417;169.0;0.026367;0.037109;1.025391;0;0;60678;0;0;0
2024-11-07_09-28-04.148768;60612;-22.666626;17.1875;0.02125;0.140417;167.0;0.026367;0.040039;1.024414;0;0;60732;0;0;0
2024-11-07_09-28-04.305072;60755;-22.666626;17.25;0.140417;0.140417;167.0;0.027344;0.040039;1.02832;0;0;60874;0;0;0
2024-11-07_09-28-04.492639;60891;-21.333374;17.1875;0.02125;0.140417;169.0;0.024414;0.036133;1.021484;0;0;61045;0;0;0
2024-11-07_09-28-04.633264;61036;-22.666626;17.1875;0.02125;0.140417;169.0;0.025391;0.036133;1.029297;0;0;61209;0;0;0
2024-11-07_09-28-04.789514;61172;-21.333374;17.1875;0.02125;0.140417;167.0;0.02832;0.037109;1.025391;0;0;61366;0;0;0
2024-11-07_09-28-04.930551;61315;-22.666626;17.25;0.02125;0.140417;169.0;0.027344;0.035156;1.032227;0;0;61510;0;0;0
2024-11-07_09-28-05.087438;61456;-22.666626;17.1875;0.02125;0.140417;171.0;0.027344;0.039062;1.025391;0;0;61667;0;0;0
2024-11-07_09-28-05.243688;61613;-21.333374;17.25;0.140417;0.140417;171.0;0.027344;0.038086;1.023438;0;0;61820;0;0;0
2024-11-07_09-28-05.400213;61894;-21.333374;17.1875;0.140417;0.140417;169.0;0.026367;0.041016;1.026367;0;0;61980;0;0;0
2024-11-07_09-28-05.619347;62039;-22.666626;17.25;0.021667;0.145833;169.0;0.025391;0.036133;1.020508;0;0;62188;0;0;0
2024-11-07_09-28-05.791659;62192;-26.666626;17.25;0.145833;0.145833;172.0;0.027344;0.037109;1.024414;0;0;62364;0;0;0
2024-11-07_09-28-05.854664;62335;-25.333374;17.25;0.02125;0.140417;169.0;0.026367;0.040039;1.020508;0;0;62439;0;0;0
2024-11-07_09-28-06.120698;62486;-20.0;17.25;0.02125;0.142083;168.0;0.026367;0.035156;1.019531;0;0;62702;0;0;0
2024-11-07_09-28-06.292572;62775;-21.333374;17.25;0.021667;0.140417;168.0;0.027344;0.038086;1.017578;0;0;62876;0;0;0
2024-11-07_09-28-06.323824;62775;-21.333374;17.25;0.021667;0.140417;168.0;0.027344;0.038086;1.017578;0;0;62910;0;0;0
2024-11-07_09-28-06.527580;62914;-20.0;17.25;0.021667;0.140417;167.0;0.02832;0.040039;1.013672;0;0;63097;0;0;0
2024-11-07_09-28-06.668206;63042;-29.333374;17.25;0.021667;0.142917;168.0;0.026367;0.041016;1.011719;0;0;63248;0;0;0
2024-11-07_09-28-06.809313;63185;-21.333374;17.25;0.02125;0.140417;170.0;0.025391;0.036133;1.010742;0;0;63392;0;0;0
2024-11-07_09-28-07.122573;63478;-22.666626;17.25;0.02125;0.140417;168.0;0.026367;0.040039;1.019531;0;0;63642;0;0;0
2024-11-07_09-28-07.356949;63776;-16.0;17.25;0.02125;0.141667;169.0;0.024414;0.035156;1.014648;0;0;63927;0;0;0
2024-11-07_09-28-07.419448;63916;-25.333374;17.25;0.02125;0.14;170.0;0.024414;0.040039;1.021484;0;0;64010;0;0;0
2024-11-07_09-28-07.591332;64055;-21.333374;17.25;0.02125;0.14125;169.0;0.02832;0.036133;1.013672;0;0;64170;0;0;0
2024-11-07_09-28-07.731950;64194;-20.0;17.25;0.14125;0.140417;169.0;0.02832;0.037109;1.015625;0;0;64320;0;0;0
2024-11-07_09-28-07.935773;64335;-21.333374;17.25;0.02125;0.145417;167.0;0.027344;0.036133;1.024414;0;0;64499;0;0;0
2024-11-07_09-28-08.154512;64615;-18.666626;17.25;0.02125;0.145833;169.0;0.025391;0.038086;1.026367;0;0;64730;0;0;0
2024-11-07_09-28-08.201386;64615;-18.666626;17.25;0.02125;0.145833;169.0;0.025391;0.038086;1.026367;0;0;64790;0;0;0
2024-11-07_09-28-08.435761;64756;-22.666626;17.25;0.02125;0.145833;170.0;0.025391;0.037109;1.020508;0;0;64959;0;0;0
2024-11-07_09-28-08.654519;65070;-22.666626;17.25;0.02125;0.141667;169.0;0.026367;0.039062;1.024414;0;0;65200;0;0;0
2024-11-07_09-28-08.843612;65221;-25.333374;17.25;0.02125;0.141667;169.0;0.027344;0.036133;1.023438;0;0;65407;0;0;0
2024-11-07_09-28-08.983787;65370;-16.0;17.25;0.02125;0.142083;168.0;0.02832;0.035156;1.016602;0;0;65570;0;0;0
2024-11-07_09-28-09.250075;65645;-22.666626;17.25;0.02125;0.142917;168.0;0.027344;0.036133;1.021484;0;0;65840;0;0;0
2024-11-07_09-28-09.312837;65795;-17.333374;17.25;0.02125;0.1425;170.0;0.025391;0.038086;1.014648;0;0;65900;0;0;0
2024-11-07_09-28-09.484708;65935;-22.666626;17.25;0.021667;0.141667;171.0;0.026367;0.035156;1.019531;0;0;66050;0;0;0
2024-11-07_09-28-09.672205;66075;-21.333374;17.25;0.021667;0.145833;170.0;0.029297;0.038086;1.014648;0;0;66200;0;0;0
2024-11-07_09-28-09.782106;66212;-17.333374;17.25;0.02125;0.145833;168.0;0.025391;0.036133;1.017578;0;0;66348;0;0;0
2024-11-07_09-28-09.953972;66358;-21.333374;17.25;0.02125;0.142083;167.0;0.027344;0.03418;1.022461;0;0;66530;0;0;0
2024-11-07_09-28-10.282096;66648;-20.0;17.25;0.02125;0.142083;170.0;0.02832;0.035156;1.017578;0;0;66841;0;0;0
2024-11-07_09-28-10.407103;66795;-20.0;17.3125;0.02125;0.140417;168.0;0.026367;0.041992;1.03418;0;0;66989;0;0;0
2024-11-07_09-28-10.563355;66935;-25.333374;17.25;0.02125;0.140833;169.0;0.026367;0.040039;1.022461;0;0;67140;0;0;0
2024-11-07_09-28-10.704660;67080;-17.333374;17.25;0.02125;0.141667;170.0;0.027344;0.037109;1.017578;0;0;67282;0;0;0
2024-11-07_09-28-10.876179;67362;-22.666626;17.25;0.02125;0.144167;169.0;0.025391;0.037109;1.024414;0;0;67460;0;0;0
2024-11-07_09-28-11.032426;67505;-21.333374;17.25;0.02125;0.14125;167.0;0.02832;0.040039;1.033203;0;0;67610;0;0;0
2024-11-07_09-28-11.251180;67645;-18.666626;17.25;0.02125;0.145833;169.0;0.027344;0.038086;1.015625;0;0;67817;0;0;0
2024-11-07_09-28-11.376184;67790;-29.333374;17.3125;0.02125;0.140417;168.0;0.02832;0.037109;1.029297;0;0;67928;0;0;0
2024-11-07_09-28-11.564375;67941;-21.333374;17.3125;0.02125;0.14125;169.0;0.027344;0.039062;1.024414;0;0;68110;0;0;0
2024-11-07_09-28-11.704640;68092;-21.333374;17.3125;0.02125;0.145833;168.0;0.025391;0.038086;1.016602;0;0;68278;0;0;0
2024-11-07_09-28-11.814013;68241;-18.666626;17.3125;0.02125;0.145833;170.0;0.025391;0.035156;1.009766;0;0;68391;0;0;0
2024-11-07_09-28-12.001511;68375;-20.0;17.3125;0.02125;0.145833;167.0;0.026367;0.039062;1.022461;0;0;68567;0;0;0
2024-11-07_09-28-12.220674;68657;-22.666626;17.3125;0.02125;0.142917;170.0;0.026367;0.039062;1.018555;0;0;68796;0;0;0
2024-11-07_09-28-12.267544;68657;-22.666626;17.3125;0.02125;0.142917;170.0;0.026367;0.039062;1.018555;0;0;68852;0;0;0
2024-11-07_09-28-12.439420;68808;-18.666626;17.3125;0.02125;0.1425;167.0;0.025391;0.035156;1.021484;0;0;69020;0;0;0
2024-11-07_09-28-12.564954;68955;-21.333374;17.3125;0.02125;0.140417;167.0;0.026367;0.036133;1.021484;0;0;69150;0;0;0
2024-11-07_09-28-12.736834;69095;-26.666626;17.3125;0.02125;0.140833;168.0;0.027344;0.039062;1.025391;0;0;69310;0;0;0
2024-11-07_09-28-12.893080;69378;-21.333374;17.3125;0.02125;0.140417;169.0;0.027344;0.038086;1.024414;0;0;69470;0;0;0
2024-11-07_09-28-13.050023;69522;-22.666626;17.3125;0.02125;0.140417;169.0;0.025391;0.038086;1.016602;0;0;69630;0;0;0
2024-11-07_09-28-13.239946;69666;-21.333374;17.3125;0.021667;0.14375;169.0;0.026367;0.042969;1.026367;0;0;69798;0;0;0
2024-11-07_09-28-13.382014;69816;-21.333374;17.3125;0.02125;0.14125;169.0;0.02832;0.035156;1.013672;0;0;69959;0;0;0
2024-11-07_09-28-13.523913;69952;-20.0;17.3125;0.02125;0.1425;172.0;0.02832;0.038086;1.023438;0;0;70100;0;0;0
2024-11-07_09-28-13.758298;70102;-29.333374;17.3125;0.02125;0.140417;168.0;0.02832;0.038086;1.030273;0;0;70310;0;0;0
2024-11-07_09-28-13.820796;70245;-18.666626;17.3125;0.02125;0.140417;167.0;0.02832;0.040039;1.025391;0;0;70410;0;0;0
2024-11-07_09-28-14.008296;70382;-22.666626;17.3125;0.02125;0.140417;169.0;0.02832;0.036133;1.02832;0;0;70570;0;0;0
2024-11-07_09-28-14.148909;70525;-29.333374;17.3125;0.02125;0.140417;167.0;0.025391;0.037109;1.017578;0;0;70721;0;0;0
2024-11-07_09-28-14.367666;70812;-26.666626;17.3125;0.02125;0.140417;169.0;0.025391;0.036133;1.022461;0;0;70956;0;0;0
2024-11-07_09-28-14.446141;70951;-26.666626;17.3125;0.02125;0.140417;168.0;0.027344;0.038086;1.023438;0;0;71030;0;0;0
2024-11-07_09-28-14.634335;71083;-21.333374;17.3125;0.02125;0.141667;170.0;0.02832;0.041016;1.025391;0;0;71200;0;0;0
2024-11-07_09-28-14.774953;71216;-22.666626;17.3125;0.02125;0.14375;167.0;0.02832;0.041016;1.024414;0;0;71360;0;0;0
2024-11-07_09-28-14.931213;71372;-30.666626;17.3125;0.02125;0.140833;170.0;0.027344;0.038086;1.032227;0;0;71510;0;0;0
2024-11-07_09-28-15.088143;71521;-22.666626;17.3125;0.02125;0.142083;172.0;0.027344;0.038086;1.03125;0;0;71670;0;0;0
2024-11-07_09-28-15.260013;71658;-21.333374;17.375;0.02125;0.140417;172.0;0.02832;0.035156;1.035156;0;0;71829;0;0;0
2024-11-07_09-28-15.416265;71805;-32.0;17.3125;0.02125;0.140417;167.0;0.027344;0.035156;1.02832;0;0;71979;0;0;0
2024-11-07_09-28-15.541267;71942;-21.333374;17.375;0.02125;0.140417;170.0;0.024414;0.037109;1.029297;0;0;72130;0;0;0
2024-11-07_09-28-15.728761;72086;-25.333374;17.3125;0.02125;0.143333;169.0;0.027344;0.037109;1.030273;0;0;72303;0;0;0
2024-11-07_09-28-15.869398;72371;-17.333374;17.3125;0.02125;0.143333;171.0;0.02832;0.039062;1.023438;0;0;72455;0;0;0
2024-11-07_09-28-16.010015;72510;-25.333374;17.3125;0.02125;0.14375;168.0;0.027344;0.036133;1.02832;0;0;72600;0;0;0
2024-11-07_09-28-16.291265;72655;-22.666626;17.3125;0.02125;0.142083;169.0;0.025391;0.036133;1.02832;0;0;72869;0;0;0
2024-11-07_09-28-16.338145;72795;-25.333374;17.3125;0.021667;0.141667;168.0;0.026367;0.038086;1.030273;0;0;72920;0;0;0
2024-11-07_09-28-16.619388;73083;-18.666626;17.375;0.021667;0.140417;166.0;0.027344;0.037109;1.030273;0;0;73199;0;0;0
2024-11-07_09-28-16.838142;73225;-21.333374;17.3125;0.021667;0.140417;166.0;0.027344;0.039062;1.029297;0;0;73415;0;0;0
2024-11-07_09-28-16.994389;73362;-20.0;17.375;0.02125;0.140417;168.0;0.02832;0.036133;1.016602;0;0;73546;0;0;0
2024-11-07_09-28-17.213142;73646;-18.666626;17.375;0.02125;0.140417;167.0;0.02832;0.039062;1.02832;0;0;73770;0;0;0
2024-11-07_09-28-17.260018;73646;-18.666626;17.375;0.02125;0.140417;167.0;0.02832;0.039062;1.02832;0;0;73850;0;0;0
2024-11-07_09-28-17.431894;73798;-21.333374;17.375;0.02125;0.140417;171.0;0.026367;0.039062;1.017578;0;0;74009;0;0;0
2024-11-07_09-28-17.650639;74094;-22.666626;17.375;0.02125;0.140417;171.0;0.026367;0.038086;1.03125;0;0;74190;0;0;0
2024-11-07_09-28-17.744393;74094;-22.666626;17.375;0.02125;0.140417;171.0;0.026367;0.038086;1.03125;0;0;74314;0;0;0
2024-11-07_09-28-18.041264;74380;-20.0;17.3125;0.02125;0.140417;166.0;0.027344;0.033203;1.027344;0;0;74603;0;0;0
2024-11-07_09-28-18.229259;74674;-22.666626;17.375;0.02125;0.140417;171.0;0.026367;0.03418;1.026367;0;0;74802;0;0;0
2024-11-07_09-28-18.401127;74801;-22.666626;17.375;0.02125;0.141667;173.0;0.027344;0.037109;1.035156;0;0;74959;0;0;0
2024-11-07_09-28-18.635500;75083;-17.333374;17.375;0.02125;0.140417;170.0;0.026367;0.039062;1.030273;0;0;75189;0;0;0
2024-11-07_09-28-18.791754;75236;-21.333374;17.375;0.02125;0.140417;170.0;0.027344;0.03418;1.029297;0;0;75369;0;0;0
2024-11-07_09-28-18.838630;75236;-21.333374;17.375;0.02125;0.140417;170.0;0.027344;0.03418;1.029297;0;0;75420;0;0;0
2024-11-07_09-28-19.041880;75513;-29.333374;17.375;0.021667;0.140417;168.0;0.02832;0.036133;1.023438;0;0;75630;0;0;0
2024-11-07_09-28-19.244868;75660;-18.666626;17.375;0.02125;0.140417;169.0;0.025391;0.03418;1.020508;0;0;75800;0;0;0
2024-11-07_09-28-19.635839;76095;-17.333374;17.375;0.02125;0.140417;171.0;0.026367;0.040039;1.025391;0;0;76200;0;0;0
2024-11-07_09-28-19.870221;76235;-22.666626;17.375;0.02125;0.140417;171.0;0.025391;0.037109;1.017578;0;0;76442;0;0;0
2024-11-07_09-28-19.932718;76375;-18.666626;17.375;0.02125;0.140417;171.0;0.027344;0.039062;1.021484;0;0;76510;0;0;0
2024-11-07_09-28-20.136522;76513;-22.666626;17.375;0.02125;0.140417;169.0;0.029297;0.030273;1.027344;0;0;76706;0;0;0
2024-11-07_09-28-20.292766;76655;-21.333374;17.375;0.021667;0.140417;167.0;0.027344;0.035156;1.03125;0;0;76872;0;0;0
2024-11-07_09-28-20.417771;76801;-17.333374;17.375;0.021667;0.140417;169.0;0.026367;0.037109;1.029297;0;0;77000;0;0;0
2024-11-07_09-28-20.589652;76948;-22.666626;17.375;0.02125;0.140417;169.0;0.026367;0.037109;1.013672;0;0;77166;0;0;0
2024-11-07_09-28-20.761515;77245;-22.666626;17.375;0.02125;0.140417;170.0;0.026367;0.036133;1.024414;0;0;77336;0;0;0
2024-11-07_09-28-20.917776;77245;-22.666626;17.375;0.02125;0.140417;170.0;0.026367;0.036133;1.024414;0;0;77462;0;0;0
2024-11-07_09-28-21.136974;77522;-20.0;17.375;0.140417;0.140417;170.0;0.026367;0.036133;1.016602;0;0;77690;0;0;0
2024-11-07_09-28-21.308858;77663;-21.333374;17.375;0.02125;0.140417;168.0;0.02832;0.036133;1.024414;0;0;77864;0;0;0
2024-11-07_09-28-21.574478;77957;-21.333374;17.375;0.02125;0.14125;171.0;0.027344;0.039062;1.021484;0;0;78146;0;0;0
2024-11-07_09-28-21.652608;78106;-25.333374;17.4375;0.140417;0.140417;172.0;0.029297;0.040039;1.017578;0;0;78230;0;0;0
2024-11-07_09-28-21.793234;78256;-21.333374;17.375;0.02125;0.143333;170.0;0.02832;0.040039;1.026367;0;0;78380;0;0;0
2024-11-07_09-28-22.043644;78405;-21.333374;17.375;0.021667;0.143333;170.0;0.029297;0.041016;1.022461;0;0;78607;0;0;0
2024-11-07_09-28-22.121777;78545;-22.666626;17.4375;0.02125;0.144583;167.0;0.032227;0.039062;1.017578;0;0;78700;0;0;0
2024-11-07_09-28-22.387402;78825;-22.666626;17.4375;0.02125;0.140417;168.0;0.033203;0.041992;1.02832;0;0;78973;0;0;0
2024-11-07_09-28-22.574896;78825;-22.666626;17.4375;0.02125;0.140417;168.0;0.033203;0.041992;1.02832;0;0;79007;0;0;0
2024-11-07_09-28-22.731632;79115;-32.0;17.375;0.02125;0.140417;171.0;0.03418;0.040039;1.026367;0;0;79315;0;0;0
2024-11-07_09-28-22.903496;79395;-22.666626;17.4375;0.02125;0.140833;169.0;0.033203;0.036133;1.030273;0;0;79480;0;0;0
2024-11-07_09-28-23.075371;79546;-16.0;17.4375;0.02125;0.141667;168.0;0.036133;0.038086;1.026367;0;0;79659;0;0;0
2024-11-07_09-28-23.294642;79682;-22.666626;17.4375;0.02125;0.140417;168.0;0.036133;0.038086;1.038086;0;0;79875;0;0;0
2024-11-07_09-28-23.372769;79825;-32.0;17.4375;0.021667;0.140833;171.0;0.035156;0.036133;1.033203;0;0;79950;0;0;0
2024-11-07_09-28-23.597012;79962;-16.0;17.4375;0.02125;0.142083;169.0;0.035156;0.039062;1.036133;0;0;80164;0;0;0
2024-11-07_09-28-23.780145;80246;-22.666626;17.4375;0.02125;0.140417;170.0;0.037109;0.03418;1.039062;0;0;80349;0;0;0
2024-11-07_09-28-23.827022;80246;-22.666626;17.4375;0.02125;0.140417;170.0;0.037109;0.03418;1.039062;0;0;80414;0;0;0
2024-11-07_09-28-23.998895;80403;-22.666626;17.4375;0.02125;0.140417;168.0;0.036133;0.03418;1.027344;0;0;80576;0;0;0
2024-11-07_09-28-24.172218;80546;-22.666626;17.4375;0.02125;0.140417;170.0;0.03418;0.03418;1.02832;0;0;80749;0;0;0
2024-11-07_09-28-24.312987;80674;-18.666626;17.4375;0.14125;0.14125;168.0;0.03418;0.03418;1.03125;0;0;80890;0;0;0
2024-11-07_09-28-24.516106;80962;-30.666626;17.4375;0.140417;0.140417;169.0;0.035156;0.033203;1.035156;0;0;81095;0;0;0
2024-11-07_09-28-24.750838;81109;-21.333374;17.4375;0.02125;0.142083;168.0;0.038086;0.036133;1.036133;0;0;81329;0;0;0
2024-11-07_09-28-25.063644;81542;-21.333374;17.4375;0.02125;0.144583;169.0;0.035156;0.037109;1.02832;0;0;81627;0;0;0
2024-11-07_09-28-25.313640;81685;-34.666626;17.4375;0.02125;0.140417;168.0;0.038086;0.035156;1.023438;0;0;81890;0;0;0
2024-11-07_09-28-25.470654;81970;-17.333374;17.4375;0.021667;0.140417;171.0;0.037109;0.038086;1.02832;0;0;82054;0;0;0
2024-11-07_09-28-25.549280;81970;-17.333374;17.4375;0.021667;0.140417;171.0;0.037109;0.038086;1.02832;0;0;82140;0;0;0
2024-11-07_09-28-25.767672;82255;-22.666626;17.4375;0.02125;0.140417;169.0;0.037109;0.037109;1.02832;0;0;82349;0;0;0
2024-11-07_09-28-25.892673;82255;-22.666626;17.4375;0.02125;0.140417;169.0;0.037109;0.037109;1.02832;0;0;82460;0;0;0
2024-11-07_09-28-26.033301;82393;-16.0;17.4375;0.02125;0.1425;168.0;0.038086;0.041016;1.019531;0;0;82610;0;0;0
2024-11-07_09-28-26.268363;82685;-22.666626;17.4375;0.02125;0.14375;172.0;0.038086;0.041016;1.025391;0;0;82823;0;0;0
2024-11-07_09-28-26.472854;82823;-18.666626;17.4375;0.02125;0.142083;172.0;0.039062;0.040039;1.027344;0;0;83031;0;0;0
2024-11-07_09-28-26.644878;83102;-32.0;17.5;0.02125;0.140417;165.0;0.039062;0.039062;1.021484;0;0;83220;0;0;0
2024-11-07_09-28-26.879133;83249;-18.666626;17.4375;0.02125;0.140417;169.0;0.039062;0.040039;1.029297;0;0;83448;0;0;0
2024-11-07_09-28-26.957379;83399;-18.666626;17.4375;0.02125;0.142917;169.0;0.039062;0.037109;1.023438;0;0;83540;0;0;0
2024-11-07_09-28-27.223809;83700;-21.333374;17.5;0.02125;0.140417;170.0;0.037109;0.040039;1.020508;0;0;83800;0;0;0
2024-11-07_09-28-27.380059;83851;-20.0;17.4375;0.02125;0.140417;169.0;0.037109;0.041992;1.024414;0;0;83966;0;0;0
2024-11-07_09-28-27.411306;83851;-20.0;17.4375;0.02125;0.140417;169.0;0.037109;0.041992;1.024414;0;0;84000;0;0;0
2024-11-07_09-28-27.614435;84001;-26.666626;17.4375;0.02125;0.140417;169.0;0.039062;0.042969;1.019531;0;0;84205;0;0;0
2024-11-07_09-28-27.779827;84145;-22.666626;17.5;0.140417;0.140417;170.0;0.037109;0.041992;1.020508;0;0;84322;0;0;0
2024-11-07_09-28-27.977720;84426;-25.333374;17.5;0.02125;0.140417;169.0;0.041016;0.040039;1.020508;0;0;84552;0;0;0
2024-11-07_09-28-28.056374;84426;-25.333374;17.5;0.02125;0.140417;169.0;0.041016;0.040039;1.020508;0;0;84630;0;0;0
2024-11-07_09-28-28.214656;84704;-18.666626;17.5;0.02125;0.140417;167.0;0.041016;0.038086;1.029297;0;0;84781;0;0;0
2024-11-07_09-28-28.372724;84845;-22.666626;17.5;0.02125;0.140417;167.0;0.039062;0.035156;1.025391;0;0;84950;0;0;0
2024-11-07_09-28-28.610861;84985;-30.666626;17.5;0.021667;0.140417;167.0;0.040039;0.038086;1.021484;0;0;85175;0;0;0
2024-11-07_09-28-28.674070;85122;-18.666626;17.5;0.02125;0.140417;168.0;0.037109;0.038086;1.024414;0;0;85250;0;0;0
2024-11-07_09-28-28.940315;85274;-20.0;17.5;0.02125;0.140417;169.0;0.040039;0.038086;1.017578;0;0;85480;0;0;0
2024-11-07_09-28-29.018992;85412;-26.666626;17.5;0.02125;0.140417;170.0;0.038086;0.036133;1.023438;0;0;85583;0;0;0
2024-11-07_09-28-29.144216;85556;-29.333374;17.5;0.02125;0.140417;170.0;0.039062;0.038086;1.03418;0;0;85720;0;0;0
2024-11-07_09-28-29.285124;85698;-17.333374;17.5;0.02125;0.140417;170.0;0.040039;0.037109;1.020508;0;0;85872;0;0;0
2024-11-07_09-28-29.458997;85842;-22.666626;17.5;0.02125;0.140417;170.0;0.036133;0.038086;1.024414;0;0;86041;0;0;0
2024-11-07_09-28-29.633769;86000;-30.666626;17.5;0.02125;0.140417;169.0;0.039062;0.035156;1.025391;0;0;86190;0;0;0
2024-11-07_09-28-29.772683;86145;-17.333374;17.5;0.02125;0.140417;170.0;0.036133;0.035156;1.025391;0;0;86349;0;0;0
2024-11-07_09-28-30.054822;86285;-13.333374;17.5;0.02125;0.144167;169.0;0.038086;0.035156;1.010742;0;0;86510;0;0;0
2024-11-07_09-28-30.352783;86725;-20.0;17.5;0.02125;0.140417;169.0;0.039062;0.038086;1.022461;0;0;86929;0;0;0
2024-11-07_09-28-30.399326;86878;-20.0;17.5;0.02125;0.140417;169.0;0.038086;0.037109;1.022461;0;0;86990;0;0;0
2024-11-07_09-28-30.649324;87031;-30.666626;17.5;0.02125;0.140417;169.0;0.039062;0.038086;1.013672;0;0;87219;0;0;0
2024-11-07_09-28-30.946551;87325;-13.333374;17.5;0.02125;0.14375;168.0;0.038086;0.03418;1.023438;0;0;87507;0;0;0
2024-11-07_09-28-31.009054;87475;-25.333374;17.5;0.021667;0.140417;169.0;0.038086;0.035156;1.017578;0;0;87595;0;0;0
2024-11-07_09-28-31.274896;87766;-13.333374;17.5;0.02125;0.140417;168.0;0.037109;0.038086;1.021484;0;0;87849;0;0;0
2024-11-07_09-28-31.321775;87766;-13.333374;17.5;0.02125;0.140417;168.0;0.037109;0.038086;1.021484;0;0;87902;0;0;0
2024-11-07_09-28-31.493847;87905;-21.333374;17.5;0.021667;0.140833;169.0;0.037109;0.033203;1.013672;0;0;88080;0;0;0
2024-11-07_09-28-31.743842;88182;-20.0;17.5;0.02125;0.140417;170.0;0.035156;0.036133;1.027344;0;0;88317;0;0;0
2024-11-07_09-28-31.900099;88325;-13.333374;17.5;0.02125;0.140417;172.0;0.039062;0.03418;1.016602;0;0;88489;0;0;0
2024-11-07_09-28-31.962599;88325;-13.333374;17.5;0.02125;0.140417;172.0;0.039062;0.03418;1.016602;0;0;88540;0;0;0
2024-11-07_09-28-32.134473;88615;-26.666626;17.5;0.02125;0.140417;170.0;0.038086;0.035156;1.018555;0;0;88699;0;0;0
2024-11-07_09-28-32.337600;88756;-17.333374;17.5625;0.021667;0.140417;170.0;0.039062;0.037109;1.020508;0;0;88912;0;0;0
2024-11-07_09-28-32.431346;88896;-17.333374;17.5625;0.02125;0.140417;169.0;0.037109;0.03418;1.022461;0;0;89020;0;0;0
2024-11-07_09-28-32.665721;89036;-26.666626;17.5;0.021667;0.140417;167.0;0.038086;0.036133;1.015625;0;0;89235;0;0;0
2024-11-07_09-28-32.743857;89185;-22.666626;17.5;0.02125;0.140417;170.0;0.039062;0.037109;1.023438;0;0;89320;0;0;0
2024-11-07_09-28-32.900102;89325;-17.333374;17.5625;0.02125;0.140417;169.0;0.040039;0.037109;1.026367;0;0;89480;0;0;0
2024-11-07_09-28-33.073020;89467;-21.333374;17.5625;0.02125;0.140417;170.0;0.038086;0.037109;1.021484;0;0;89660;0;0;0
2024-11-07_09-28-33.260524;89619;-32.0;17.5625;0.02125;0.140417;168.0;0.039062;0.037109;1.02832;0;0;89838;0;0;0
2024-11-07_09-28-33.369897;89770;-21.333374;17.5;0.02125;0.140417;169.0;0.038086;0.036133;1.013672;0;0;89950;0;0;0
2024-11-07_09-28-33.526147;89917;-18.666626;17.5625;0.02125;0.140417;168.0;0.037109;0.03418;1.022461;0;0;90100;0;0;0
2024-11-07_09-28-33.776150;90221;-25.333374;17.5625;0.02125;0.140417;169.0;0.037109;0.036133;1.015625;0;0;90359;0;0;0
2024-11-07_09-28-33.869897;90221;-25.333374;17.5625;0.02125;0.140417;169.0;0.037109;0.036133;1.015625;0;0;90429;0;0;0
2024-11-07_09-28-33.980086;90378;-20.0;17.5625;0.02125;0.140417;169.0;0.039062;0.037109;1.024414;0;0;90561;0;0;0
2024-11-07_09-28-34.177284;90524;-20.0;17.5625;0.140417;0.140417;168.0;0.036133;0.038086;1.025391;0;0;90740;0;0;0
2024-11-07_09-28-34.342408;90803;-16.0;17.5625;0.02125;0.140417;169.0;0.038086;0.038086;1.019531;0;0;90919;0;0;0
2024-11-07_09-28-34.450891;90945;-16.0;17.5625;0.02125;0.140417;169.0;0.036133;0.037109;1.020508;0;0;91040;0;0;0
2024-11-07_09-28-34.732501;91225;-34.666626;17.5625;0.02125;0.140417;171.0;0.038086;0.036133;1.021484;0;0;91309;0;0;0
2024-11-07_09-28-34.888749;91362;-20.0;17.5625;0.021667;0.140417;167.0;0.039062;0.038086;1.018555;0;0;91469;0;0;0
2024-11-07_09-28-34.920000;91362;-20.0;17.5625;0.021667;0.140417;167.0;0.039062;0.038086;1.018555;0;0;91507;0;0;0
2024-11-07_09-28-35.186156;91642;-30.666626;17.5625;0.02125;0.140417;166.0;0.039062;0.038086;1.025391;0;0;91747;0;0;0
2024-11-07_09-28-35.358038;91786;-30.666626;17.5625;0.021667;0.140417;167.0;0.041016;0.037109;1.017578;0;0;91913;0;0;0
2024-11-07_09-28-35.546224;91786;-30.666626;17.5625;0.021667;0.140417;167.0;0.041016;0.037109;1.017578;0;0;91983;0;0;0
2024-11-07_09-28-35.733374;92215;-34.666626;17.5625;0.02125;0.140417;169.0;0.038086;0.040039;1.024414;0;0;92300;0;0;0
2024-11-07_09-28-35.920873;92352;-22.666626;17.5625;0.02125;0.140417;170.0;0.038086;0.035156;1.018555;0;0;92480;0;0;0
2024-11-07_09-28-36.233367;92645;-29.333374;17.5625;0.02125;0.140417;168.0;0.037109;0.035156;1.024414;0;0;92810;0;0;0
2024-11-07_09-28-36.327126;92791;-30.666626;17.5625;0.02125;0.140417;170.0;0.039062;0.037109;1.019531;0;0;92910;0;0;0
2024-11-07_09-28-36.546216;92940;-16.0;17.5625;0.02125;0.140417;169.0;0.037109;0.037109;1.024414;0;0;93124;0;0;0
2024-11-07_09-28-36.672294;93086;-17.333374;17.5625;0.021667;0.140417;169.0;0.039062;0.040039;1.027344;0;0;93244;0;0;0
2024-11-07_09-28-36.860731;93226;-29.333374;17.625;0.02125;0.140417;169.0;0.038086;0.03418;1.017578;0;0;93398;0;0;0
2024-11-07_09-28-37.095098;93512;-13.333374;17.5625;0.02125;0.140417;171.0;0.040039;0.039062;1.026367;0;0;93630;0;0;0
2024-11-07_09-28-37.284145;93655;-18.666626;17.5625;0.02125;0.140417;168.0;0.039062;0.035156;1.019531;0;0;93860;0;0;0
2024-11-07_09-28-37.409925;93792;-26.666626;17.5625;0.02125;0.140417;172.0;0.038086;0.038086;1.03125;0;0;93990;0;0;0
2024-11-07_09-28-37.583452;93937;-22.666626;17.5625;0.02125;0.140417;167.0;0.039062;0.036133;1.022461;0;0;94157;0;0;0
2024-11-07_09-28-37.880960;94222;-21.333374;17.5625;0.02125;0.140417;168.0;0.037109;0.03418;1.032227;0;0;94436;0;0;0
2024-11-07_09-28-38.117204;94503;-22.666626;17.5625;0.021667;0.140417;167.0;0.039062;0.037109;1.030273;0;0;94690;0;0;0
2024-11-07_09-28-38.194021;94645;-18.666626;17.625;0.02125;0.140417;169.0;0.037109;0.037109;1.023438;0;0;94778;0;0;0
2024-11-07_09-28-38.365896;94784;-21.333374;17.625;0.02125;0.140417;165.0;0.039062;0.038086;1.017578;0;0;94948;0;0;0
2024-11-07_09-28-38.524412;94925;-25.333374;17.625;0.02125;0.140417;168.0;0.036133;0.038086;1.027344;0;0;95109;0;0;0
2024-11-07_09-28-38.851568;95212;-16.0;17.625;0.02125;0.140417;168.0;0.039062;0.038086;1.026367;0;0;95439;0;0;0
2024-11-07_09-28-39.024406;95505;-21.333374;17.625;0.02125;0.140417;169.0;0.036133;0.039062;1.025391;0;0;95605;0;0;0
2024-11-07_09-28-39.197304;95657;-17.333374;17.625;0.02125;0.140417;165.0;0.038086;0.039062;1.016602;0;0;95778;0;0;0
2024-11-07_09-28-39.291249;95657;-17.333374;17.625;0.02125;0.140417;165.0;0.038086;0.039062;1.016602;0;0;95874;0;0;0
2024-11-07_09-28-39.494737;95929;-21.333374;17.625;0.02125;0.140417;169.0;0.036133;0.040039;1.014648;0;0;96074;0;0;0
2024-11-07_09-28-39.651317;96079;-18.666626;17.625;0.02125;0.140417;167.0;0.038086;0.039062;1.02832;0;0;96239;0;0;0
2024-11-07_09-28-39.824382;96225;-17.333374;17.625;0.02125;0.140417;167.0;0.038086;0.038086;1.026367;0;0;96398;0;0;0
2024-11-07_09-28-39.981048;96375;-22.666626;17.625;0.02125;0.140417;168.0;0.037109;0.039062;1.021484;0;0;96559;0;0;0
2024-11-07_09-28-40.075303;96515;-17.333374;17.625;0.02125;0.140417;169.0;0.038086;0.037109;1.021484;0;0;96659;0;0;0
2024-11-07_09-28-40.232068;96653;-20.0;17.625;0.02125;0.140417;167.0;0.036133;0.038086;1.018555;0;0;96819;0;0;0
2024-11-07_09-28-40.530688;96934;-25.333374;17.625;0.02125;0.140417;169.0;0.038086;0.037109;1.020508;0;0;97105;0;0;0
2024-11-07_09-28-40.720015;97214;-20.0;17.625;0.02125;0.140417;168.0;0.037109;0.039062;1.024414;0;0;97300;0;0;0
2024-11-07_09-28-40.954977;97355;-30.666626;17.625;0.02125;0.140417;170.0;0.036133;0.036133;1.021484;0;0;97539;0;0;0
2024-11-07_09-28-41.033505;97495;-22.666626;17.625;0.02125;0.140417;167.0;0.036133;0.037109;1.026367;0;0;97610;0;0;0
2024-11-07_09-28-41.393623;97775;-25.333374;17.625;0.02125;0.140417;167.0;0.039062;0.038086;1.026367;0;0;97979;0;0;0
2024-11-07_09-28-41.487762;97912;-30.666626;17.625;0.02125;0.140417;168.0;0.036133;0.036133;1.022461;0;0;98069;0;0;0
2024-11-07_09-28-41.769450;98196;-16.0;17.625;0.140417;0.140417;172.0;0.038086;0.036133;1.020508;0;0;98349;0;0;0
2024-11-07_09-28-41.941561;98196;-16.0;17.625;0.140417;0.140417;172.0;0.038086;0.036133;1.020508;0;0;98388;0;0;0
2024-11-07_09-28-42.317654;98740;-17.333374;17.625;0.021667;0.140417;168.0;0.036133;0.03418;1.020508;0;0;98900;0;0;0
2024-11-07_09-28-42.426992;98884;-29.333374;17.625;0.02125;0.140417;168.0;0.038086;0.037109;1.036133;0;0;99010;0;0;0
2024-11-07_09-28-42.693655;99175;-16.0;17.625;0.02125;0.140417;169.0;0.037109;0.037109;1.03125;0;0;99279;0;0;0
2024-11-07_09-28-42.741110;99175;-16.0;17.625;0.02125;0.140417;169.0;0.037109;0.037109;1.03125;0;0;99329;0;0;0
2024-11-07_09-28-42.913563;99312;-25.333374;17.625;0.021667;0.140417;168.0;0.038086;0.040039;1.023438;0;0;99489;0;0;0
2024-11-07_09-28-43.102353;99455;-22.666626;17.625;0.02125;0.140417;172.0;0.036133;0.041016;1.029297;0;0;99666;0;0;0
2024-11-07_09-28-43.259113;99735;-21.333374;17.6875;0.02125;0.140417;170.0;0.037109;0.038086;1.016602;0;0;99834;0;0;0
2024-11-07_09-28-43.573259;100015;-22.666626;17.6875;0.02125;0.140417;169.0;0.039062;0.041016;1.02832;0;0;100161;0;0;0
2024-11-07_09-28-43.792845;100154;-22.666626;17.6875;0.02125;0.140417;168.0;0.037109;0.038086;1.027344;0;0;100367;0;0;0
2024-11-07_09-28-43.953217;100435;-32.0;17.6875;0.02125;0.140417;169.0;0.036133;0.038086;1.024414;0;0;100529;0;0;0
2024-11-07_09-28-43.997836;100435;-32.0;17.6875;0.02125;0.140417;169.0;0.036133;0.038086;1.024414;0;0;100579;0;0;0
2024-11-07_09-28-44.170026;100573;-17.333374;17.6875;0.02125;0.140417;170.0;0.038086;0.042969;1.029297;0;0;100749;0;0;0
2024-11-07_09-28-44.373364;100715;-18.666626;17.6875;0.02125;0.140417;169.0;0.036133;0.039062;1.024414;0;0;100916;0;0;0
2024-11-07_09-28-44.530894;100996;-30.666626;17.6875;0.02125;0.140417;172.0;0.037109;0.037109;1.026367;0;0;101119;0;0;0
2024-11-07_09-28-44.750919;101143;-13.333374;17.6875;0.02125;0.140417;170.0;0.037109;0.036133;1.021484;0;0;101330;0;0;0
2024-11-07_09-28-44.907789;101289;-22.666626;17.6875;0.021667;0.140417;167.0;0.039062;0.038086;1.033203;0;0;101491;0;0;0
2024-11-07_09-28-45.190151;101586;-18.666626;17.6875;0.02125;0.140417;167.0;0.037109;0.039062;1.021484;0;0;101775;0;0;0
2024-11-07_09-28-45.253079;101742;-21.333374;17.6875;0.02125;0.140417;171.0;0.037109;0.035156;1.022461;0;0;101830;0;0;0
2024-11-07_09-28-45.397830;101893;-34.666626;17.6875;0.02125;0.140417;168.0;0.037109;0.039062;1.024414;0;0;101979;0;0;0
2024-11-07_09-28-45.582986;102035;-22.666626;17.6875;0.02125;0.140417;167.0;0.036133;0.036133;1.013672;0;0;102147;0;0;0
2024-11-07_09-28-45.723868;102173;-20.0;17.6875;0.02125;0.140417;169.0;0.037109;0.035156;1.021484;0;0;102299;0;0;0
2024-11-07_09-28-45.865230;102315;-25.333374;17.6875;0.02125;0.140417;167.0;0.036133;0.037109;1.026367;0;0;102448;0;0;0
2024-11-07_09-28-46.038142;102454;-22.666626;17.6875;0.02125;0.140417;170.0;0.035156;0.035156;1.027344;0;0;102618;0;0;0
2024-11-07_09-28-46.257316;102732;-22.666626;17.6875;0.021667;0.140417;169.0;0.03418;0.041992;1.016602;0;0;102839;0;0;0
2024-11-07_09-28-46.461442;102875;-22.666626;17.6875;0.02125;0.140417;171.0;0.033203;0.040039;1.032227;0;0;103049;0;0;0
2024-11-07_09-28-46.653337;103012;-16.0;17.6875;0.02125;0.140417;171.0;0.036133;0.039062;1.018555;0;0;103240;0;0;0
2024-11-07_09-28-46.806277;103306;-30.666626;17.6875;0.021667;0.140417;169.0;0.033203;0.038086;1.020508;0;0;103389;0;0;0
2024-11-07_09-28-47.056268;103442;-8.0;17.6875;0.02125;0.140417;168.0;0.035156;0.038086;1.02832;0;0;103634;0;0;0
2024-11-07_09-28-47.135475;103585;-22.666626;17.6875;0.02125;0.140417;168.0;0.033203;0.038086;1.016602;0;0;103710;0;0;0
2024-11-07_09-28-47.291887;103722;-30.666626;17.6875;0.02125;0.140417;170.0;0.032227;0.035156;1.021484;0;0;103870;0;0;0
2024-11-07_09-28-47.448683;103865;-16.0;17.6875;0.02125;0.140417;169.0;0.03418;0.037109;1.017578;0;0;104029;0;0;0
2024-11-07_09-28-47.620534;104003;-21.333374;17.6875;0.02125;0.140417;170.0;0.03418;0.037109;1.022461;0;0;104200;0;0;0
2024-11-07_09-28-47.761698;104149;-26.666626;17.6875;0.02125;0.140417;171.0;0.036133;0.039062;1.018555;0;0;104340;0;0;0
2024-11-07_09-28-47.918532;104296;-18.666626;17.6875;0.02125;0.140417;170.0;0.035156;0.041992;1.029297;0;0;104499;0;0;0
2024-11-07_09-28-48.075154;104447;-22.666626;17.6875;0.02125;0.140417;167.0;0.037109;0.040039;1.02832;0;0;104650;0;0;0
2024-11-07_09-28-48.278854;104752;-16.0;17.6875;0.140417;0.140417;169.0;0.03418;0.043945;1.021484;0;0;104854;0;0;0
2024-11-07_09-28-48.717378;105165;-16.0;17.75;0.02125;0.140417;168.0;0.033203;0.037109;1.024414;0;0;105299;0;0;0
2024-11-07_09-28-48.952783;105307;-21.333374;17.6875;0.02125;0.140417;65535.0;0.035156;0.040039;1.020508;0;0;105529;0;0;0
2024-11-07_09-28-48.999663;105307;-21.333374;17.6875;0.02125;0.140417;65535.0;0.035156;0.040039;1.020508;0;0;105582;0;0;0
2024-11-07_09-28-49.250883;105518;-16.0;17.75;0.02125;0.162083;65535.0;0.033203;0.041992;1.020508;0;0;105824;0;0;0
2024-11-07_09-28-49.329016;105731;-25.333374;17.6875;0.02125;0.18375;65535.0;0.033203;0.038086;1.022461;0;0;105910;0;0;0
2024-11-07_09-28-49.486683;105731;-25.333374;17.6875;0.02125;0.18375;65535.0;0.033203;0.038086;1.022461;0;0;106060;0;0;0
2024-11-07_09-28-49.955430;106174;-22.666626;17.75;0.02125;0.232083;65535.0;0.033203;0.038086;1.018555;0;0;106530;0;0;0
2024-11-07_09-28-50.111689;106388;-22.666626;17.6875;0.02125;0.25375;65535.0;0.03418;0.035156;1.009766;0;0;106690;0;0;0
2024-11-07_09-28-50.299177;106598;-25.333374;17.75;0.02125;0.275417;65535.0;0.03418;0.038086;1.025391;0;0;106879;0;0;0
2024-11-07_09-28-50.502309;106811;-21.333374;17.75;0.02125;0.294583;65535.0;0.032227;0.033203;1.019531;0;0;107076;0;0;0
2024-11-07_09-28-50.674178;107028;-29.333374;17.75;0.02125;0.31875;65535.0;0.033203;0.03418;1.019531;0;0;107244;0;0;0
2024-11-07_09-28-50.721063;107028;-29.333374;17.75;0.02125;0.31875;65535.0;0.033203;0.03418;1.019531;0;0;107303;0;0;0
2024-11-07_09-28-50.924181;107254;-21.333374;17.75;0.021667;0.337083;65535.0;0.033203;0.038086;1.016602;0;0;107485;0;0;0
2024-11-07_09-28-51.064803;107468;-30.666626;17.75;0.02125;0.358333;65535.0;0.036133;0.037109;1.015625;0;0;107632;0;0;0
2024-11-07_09-28-51.189810;107468;-30.666626;17.75;0.02125;0.358333;65535.0;0.036133;0.037109;1.015625;0;0;107780;0;0;0
2024-11-07_09-28-51.361699;107692;-16.0;17.75;0.02125;0.374583;65535.0;0.03418;0.036133;1.02832;0;0;107947;0;0;0
2024-11-07_09-28-51.533877;107917;-34.666626;17.75;0.02125;0.395833;65535.0;0.032227;0.039062;1.012695;0;0;108119;0;0;0
2024-11-07_09-28-51.674495;107917;-34.666626;17.75;0.02125;0.395833;65535.0;0.032227;0.039062;1.012695;0;0;108250;0;0;0
2024-11-07_09-28-51.830741;108145;-17.333374;17.75;0.02125;0.411667;65535.0;0.033203;0.040039;1.025391;0;0;108410;0;0;0
2024-11-07_09-28-52.002619;108370;-26.666626;17.75;0.02125;0.412083;65535.0;0.03418;0.041016;1.02832;0;0;108590;0;0;0
2024-11-07_09-28-52.393247;108589;-18.666626;17.75;0.02125;0.406667;65535.0;0.036133;0.040039;1.036133;0;0;108955;0;0;0
2024-11-07_09-28-52.440528;108811;-29.333374;17.75;0.02125;0.40625;65535.0;0.032227;0.041016;1.024414;0;0;109030;0;0;0
2024-11-07_09-28-52.691324;109018;-25.333374;17.75;0.02125;0.40125;65535.0;0.03418;0.038086;1.027344;0;0;109280;0;0;0
2024-11-07_09-28-52.753823;109018;-25.333374;17.75;0.02125;0.40125;65535.0;0.03418;0.038086;1.027344;0;0;109342;0;0;0
2024-11-07_09-28-52.925700;109231;-22.666626;17.75;0.02125;0.40125;65535.0;0.032227;0.033203;1.026367;0;0;109506;0;0;0
2024-11-07_09-28-53.081957;109448;-22.666626;17.75;0.021667;0.40125;65535.0;0.033203;0.038086;1.02832;0;0;109660;0;0;0
2024-11-07_09-28-53.238200;109672;-20.0;17.75;0.021667;0.02125;65535.0;0.032227;0.041016;1.019531;0;0;109820;0;0;0
2024-11-07_09-28-53.550708;109888;-18.666626;17.75;0.02125;0.40125;65535.0;0.032227;0.038086;1.017578;0;0;110103;0;0;0
2024-11-07_09-28-53.707371;110103;-18.666626;17.75;0.02125;0.395833;65535.0;0.033203;0.041016;1.027344;0;0;110290;0;0;0
2024-11-07_09-28-53.863620;110103;-18.666626;17.75;0.02125;0.395833;65535.0;0.033203;0.041016;1.027344;0;0;110440;0;0;0
2024-11-07_09-28-54.035504;110333;-30.666626;17.75;0.02125;0.395833;65535.0;0.032227;0.036133;1.018555;0;0;110606;0;0;0
2024-11-07_09-28-54.176120;110551;-17.333374;17.8125;0.02125;0.395833;65535.0;0.029297;0.040039;1.018555;0;0;110750;0;0;0
2024-11-07_09-28-54.426132;110768;-25.333374;17.8125;0.02125;0.395833;65535.0;0.032227;0.038086;1.017578;0;0;111014;0;0;0
2024-11-07_09-28-54.488626;110768;-25.333374;17.8125;0.02125;0.395833;65535.0;0.032227;0.038086;1.017578;0;0;111073;0;0;0
2024-11-07_09-28-54.629673;110982;-20.0;17.75;0.02125;0.395833;65535.0;0.032227;0.041016;1.020508;0;0;111220;0;0;0
2024-11-07_09-28-54.801678;111201;-22.666626;17.8125;0.02125;0.395833;65535.0;0.032227;0.039062;1.024414;0;0;111389;0;0;0
2024-11-07_09-28-55.082931;111422;-25.333374;17.8125;0.02125;0.395833;65535.0;0.032227;0.039062;1.022461;0;0;111669;0;0;0
2024-11-07_09-28-55.270778;111635;-18.666626;17.8125;0.02125;0.390417;65535.0;0.032227;0.038086;1.015625;0;0;111840;0;0;0
2024-11-07_09-28-55.443354;111869;-29.333374;17.8125;0.02125;0.390417;65535.0;0.032227;0.033203;1.016602;0;0;112020;0;0;0
2024-11-07_09-28-55.678140;112103;-18.666626;17.8125;0.02125;0.390417;65535.0;0.032227;0.037109;1.02832;0;0;112254;0;0;0
2024-11-07_09-28-55.866158;112103;-18.666626;17.8125;0.02125;0.390417;65535.0;0.032227;0.037109;1.02832;0;0;112439;0;0;0
2024-11-07_09-28-56.100519;112326;-22.666626;17.8125;0.02125;0.390417;65535.0;0.033203;0.039062;1.02832;0;0;112642;0;0;0
2024-11-07_09-28-56.319265;112561;-22.666626;17.75;0.02125;0.390417;65535.0;0.03418;0.040039;1.029297;0;0;112897;0;0;0
2024-11-07_09-28-56.381768;112782;-21.333374;17.8125;0.02125;0.390417;65535.0;0.033203;0.03418;1.02832;0;0;112958;0;0;0
2024-11-07_09-28-56.553650;112782;-21.333374;17.8125;0.02125;0.390417;65535.0;0.033203;0.03418;1.02832;0;0;113130;0;0;0
2024-11-07_09-28-56.678640;113010;-37.333374;17.8125;0.021667;0.390417;65535.0;0.03418;0.035156;1.030273;0;0;113259;0;0;0
2024-11-07_09-28-56.850975;113228;-21.333374;17.8125;0.02125;0.389167;65535.0;0.033203;0.036133;1.02832;0;0;113429;0;0;0
2024-11-07_09-28-57.038475;113451;-22.666626;17.8125;0.02125;0.385;65535.0;0.03125;0.038086;1.03418;0;0;113610;0;0;0
2024-11-07_09-28-57.272843;113451;-22.666626;17.8125;0.02125;0.385;65535.0;0.03125;0.038086;1.03418;0;0;113800;0;0;0
2024-11-07_09-28-57.475976;113881;-25.333374;17.8125;0.02125;0.385;65535.0;0.03125;0.039062;1.030273;0;0;114030;0;0;0
2024-11-07_09-28-57.617120;113881;-25.333374;17.8125;0.02125;0.385;65535.0;0.03125;0.039062;1.030273;0;0;114203;0;0;0
2024-11-07_09-28-57.774189;114098;-21.333374;17.8125;0.02125;0.385;65535.0;0.030273;0.041016;1.027344;0;0;114350;0;0;0
2024-11-07_09-28-57.971349;114312;-18.666626;17.8125;0.02125;0.385417;65535.0;0.03125;0.042969;1.025391;0;0;114550;0;0;0
2024-11-07_09-28-58.151754;114528;-22.666626;17.8125;0.02125;0.385417;65535.0;0.03125;0.043945;1.029297;0;0;114729;0;0;0
2024-11-07_09-28-58.324048;114528;-22.666626;17.8125;0.02125;0.385417;65535.0;0.03125;0.043945;1.029297;0;0;114898;0;0;0
2024-11-07_09-28-58.402834;114751;-21.333374;17.8125;0.02125;0.386667;65535.0;0.033203;0.039062;1.033203;0;0;114980;0;0;0
2024-11-07_09-28-58.637506;114971;-17.333374;17.8125;0.02125;0.412083;65535.0;0.032227;0.040039;1.02832;0;0;115208;0;0;0
2024-11-07_09-28-58.747577;114971;-17.333374;17.8125;0.02125;0.412083;65535.0;0.032227;0.040039;1.02832;0;0;115317;0;0;0
2024-11-07_09-28-58.872579;115192;-21.333374;17.8125;0.02125;0.433333;65535.0;0.033203;0.038086;1.029297;0;0;115450;0;0;0
2024-11-07_09-28-59.028827;115414;-22.666626;17.8125;0.454583;0.454583;65535.0;0.03125;0.040039;1.021484;0;0;115610;0;0;0
2024-11-07_09-28-59.185416;115414;-22.666626;17.8125;0.454583;0.454583;65535.0;0.03125;0.040039;1.021484;0;0;115760;0;0;0
2024-11-07_09-28-59.466675;115856;-21.333374;17.8125;0.02125;0.4975;65535.0;0.03125;0.035156;1.018555;0;0;116030;0;0;0
2024-11-07_09-28-59.654551;115856;-21.333374;17.8125;0.02125;0.4975;65535.0;0.03125;0.035156;1.018555;0;0;116230;0;0;0
2024-11-07_09-28-59.935810;116322;-22.666626;17.875;0.535417;0.540417;65535.0;0.030273;0.038086;1.010742;0;0;116503;0;0;0
2024-11-07_09-29-00.130354;116541;-18.666626;17.8125;0.02125;0.55625;65535.0;0.03125;0.03418;1.020508;0;0;116697;0;0;0
2024-11-07_09-29-00.349101;116751;-22.666626;17.875;0.02125;0.5775;65535.0;0.032227;0.038086;1.026367;0;0;116930;0;0;0
2024-11-07_09-29-00.434113;116751;-22.666626;17.875;0.02125;0.5775;65535.0;0.032227;0.038086;1.026367;0;0;117010;0;0;0
2024-11-07_09-29-00.582519;116976;-17.333374;17.8125;0.021667;0.596667;65535.0;0.030273;0.039062;1.023438;0;0;117159;0;0;0
2024-11-07_09-29-00.815195;117202;-22.666626;17.875;0.02125;0.614583;65535.0;0.032227;0.039062;1.02832;0;0;117389;0;0;0
2024-11-07_09-29-00.897470;117202;-22.666626;17.875;0.02125;0.614583;65535.0;0.032227;0.039062;1.02832;0;0;117480;0;0;0
2024-11-07_09-29-01.069898;117411;-25.333374;17.8125;0.02125;0.63375;65535.0;0.03418;0.037109;1.024414;0;0;117639;0;0;0
2024-11-07_09-29-01.226280;117623;-22.666626;17.875;0.02125;0.65;65535.0;0.03418;0.038086;1.027344;0;0;117800;0;0;0
2024-11-07_09-29-01.414818;117838;-30.666626;17.875;0.02125;0.671667;65535.0;0.03418;0.037109;1.02832;0;0;117999;0;0;0
2024-11-07_09-29-01.571330;117838;-30.666626;17.875;0.02125;0.671667;65535.0;0.03418;0.037109;1.02832;0;0;118159;0;0;0
2024-11-07_09-29-01.743206;118061;-17.333374;17.875;0.02125;0.687917;65535.0;0.032227;0.039062;1.03125;0;0;118319;0;0;0
2024-11-07_09-29-01.868202;118281;-22.666626;17.875;0.02125;0.709167;65535.0;0.033203;0.035156;1.02832;0;0;118431;0;0;0
2024-11-07_09-29-02.102863;118501;-26.666626;17.875;0.02125;0.725417;65535.0;0.036133;0.038086;1.02832;0;0;118689;0;0;0
2024-11-07_09-29-02.149877;118501;-26.666626;17.875;0.02125;0.725417;65535.0;0.036133;0.038086;1.02832;0;0;118733;0;0;0
2024-11-07_09-29-02.321742;118722;-20.0;17.875;0.741667;0.741667;65535.0;0.032227;0.038086;1.030273;0;0;118880;0;0;0
2024-11-07_09-29-02.509256;118722;-20.0;17.875;0.741667;0.741667;65535.0;0.032227;0.038086;1.030273;0;0;119055;0;0;0
2024-11-07_09-29-02.642180;118938;-30.666626;17.875;0.021667;0.7625;65535.0;0.03418;0.035156;1.033203;0;0;119210;0;0;0
2024-11-07_09-29-02.761014;119150;-25.333374;17.875;0.02125;0.779167;65535.0;0.030273;0.039062;1.036133;0;0;119350;0;0;0
2024-11-07_09-29-02.933600;119361;-26.666626;17.875;0.02125;0.790833;65535.0;0.033203;0.038086;1.024414;0;0;119512;0;0;0
2024-11-07_09-29-03.093144;119361;-26.666626;17.875;0.02125;0.790833;65535.0;0.033203;0.038086;1.024414;0;0;119670;0;0;0
2024-11-07_09-29-03.279525;119588;-21.333374;17.875;0.02125;0.811667;65535.0;0.030273;0.038086;1.029297;0;0;119869;0;0;0
2024-11-07_09-29-03.405142;119809;-21.333374;17.875;0.02125;0.021667;65535.0;0.029297;0.041016;1.026367;0;0;119990;0;0;0
2024-11-07_09-29-03.546492;119809;-21.333374;17.875;0.02125;0.021667;65535.0;0.029297;0.041016;1.026367;0;0;120131;0;0;0
2024-11-07_09-29-03.721058;120036;-25.333374;17.875;0.02125;0.844167;65535.0;0.03125;0.035156;1.02832;0;0;120300;0;0;0
2024-11-07_09-29-04.049186;120272;-21.333374;17.875;0.02125;0.865417;65535.0;0.032227;0.039062;1.03125;0;0;120589;0;0;0
2024-11-07_09-29-04.221396;120502;-25.333374;17.875;0.02125;0.879167;65535.0;0.032227;0.033203;1.019531;0;0;120805;0;0;0
2024-11-07_09-29-04.440485;120721;-21.333374;17.875;0.02125;0.897917;65535.0;0.03125;0.036133;1.023438;0;0;121022;0;0;0
2024-11-07_09-29-04.503381;120721;-21.333374;17.875;0.02125;0.897917;65535.0;0.03125;0.036133;1.023438;0;0;121083;0;0;0
2024-11-07_09-29-04.659641;120938;-17.333374;17.875;0.02125;0.917083;65535.0;0.033203;0.037109;1.020508;0;0;121240;0;0;0
2024-11-07_09-29-04.847108;121160;-22.666626;17.875;0.02125;0.93;65535.0;0.035156;0.039062;1.033203;0;0;121426;0;0;0
2024-11-07_09-29-05.019019;121368;-22.666626;17.875;0.02125;0.94625;65535.0;0.03125;0.039062;1.033203;0;0;121594;0;0;0
2024-11-07_09-29-05.378852;121592;-32.0;17.875;0.021667;0.9625;65535.0;0.032227;0.040039;1.038086;0;0;121895;0;0;0
2024-11-07_09-29-05.472594;121808;-20.0;17.875;0.02125;0.9775;65535.0;0.030273;0.041016;1.035156;0;0;122022;0;0;0
2024-11-07_09-29-05.660100;122032;-17.333374;17.875;0.021667;0.9975;65535.0;0.030273;0.038086;1.023438;0;0;122230;0;0;0
2024-11-07_09-29-05.878850;122255;-30.666626;17.875;0.02125;1.013333;65535.0;0.030273;0.039062;1.02832;0;0;122459;0;0;0
2024-11-07_09-29-06.113474;122481;-22.666626;17.9375;0.02125;1.029583;65535.0;0.030273;0.039062;1.027344;0;0;122684;0;0;0
2024-11-07_09-29-06.347987;122690;-25.333374;17.875;0.02125;1.045417;65535.0;0.032227;0.040039;1.030273;0;0;122920;0;0;0
2024-11-07_09-29-06.598644;122912;-22.666626;17.875;0.02125;1.056667;65535.0;0.03125;0.037109;1.025391;0;0;123153;0;0;0
2024-11-07_09-29-06.801772;123118;-18.666626;17.875;0.021667;1.0775;65535.0;0.029297;0.036133;1.017578;0;0;123376;0;0;0
2024-11-07_09-29-06.848640;123118;-18.666626;17.875;0.021667;1.0775;65535.0;0.029297;0.036133;1.017578;0;0;123430;0;0;0
2024-11-07_09-29-07.004901;123341;-22.666626;17.9375;0.02125;1.08875;65535.0;0.030273;0.038086;1.021484;0;0;123580;0;0;0
2024-11-07_09-29-07.240665;123558;-21.333374;17.875;0.02125;1.104167;65535.0;0.030273;0.03418;1.019531;0;0;123810;0;0;0
2024-11-07_09-29-07.412532;123789;-21.333374;17.9375;0.02125;1.125417;65535.0;0.032227;0.039062;1.02832;0;0;123984;0;0;0
2024-11-07_09-29-07.475504;123789;-21.333374;17.9375;0.02125;1.125417;65535.0;0.032227;0.039062;1.02832;0;0;124050;0;0;0
2024-11-07_09-29-07.678622;124014;-34.666626;17.9375;0.02125;1.13625;65535.0;0.030273;0.039062;1.030273;0;0;124243;0;0;0
2024-11-07_09-29-07.928623;124242;-17.333374;17.9375;0.02125;1.152083;65535.0;0.027344;0.039062;1.022461;0;0;124482;0;0;0
2024-11-07_09-29-08.116126;124448;-21.333374;17.9375;0.02125;1.168333;65535.0;0.027344;0.041992;1.023438;0;0;124687;0;0;0
2024-11-07_09-29-08.288001;124668;-20.0;17.9375;0.02125;1.184167;65535.0;0.027344;0.041016;1.021484;0;0;124859;0;0;0
2024-11-07_09-29-08.506755;124881;-21.333374;17.9375;0.02125;1.194583;65535.0;0.027344;0.041016;1.020508;0;0;125089;0;0;0
2024-11-07_09-29-08.569245;124881;-21.333374;17.9375;0.02125;1.194583;65535.0;0.027344;0.041016;1.020508;0;0;125150;0;0;0
2024-11-07_09-29-08.727394;125088;-21.333374;17.9375;0.02125;1.210833;65535.0;0.027344;0.037109;1.008789;0;0;125299;0;0;0
2024-11-07_09-29-08.884063;125088;-21.333374;17.9375;0.02125;1.210833;65535.0;0.027344;0.037109;1.008789;0;0;125457;0;0;0
2024-11-07_09-29-09.088209;125308;-32.0;17.9375;0.021667;1.226667;65535.0;0.026367;0.039062;1.017578;0;0;125629;0;0;0
2024-11-07_09-29-09.245779;125523;-22.666626;17.9375;0.02125;1.237917;65535.0;0.027344;0.041992;1.018555;0;0;125825;0;0;0
2024-11-07_09-29-09.464788;125728;-22.666626;17.9375;0.02125;1.253333;65535.0;0.027344;0.039062;1.017578;0;0;126041;0;0;0
2024-11-07_09-29-09.528042;125951;-22.666626;17.9375;0.021667;1.269167;65535.0;0.027344;0.042969;1.023438;0;0;126109;0;0;0
2024-11-07_09-29-09.762410;126170;-18.666626;17.9375;0.021667;1.28;65535.0;0.026367;0.037109;1.017578;0;0;126339;0;0;0
2024-11-07_09-29-09.934289;126170;-18.666626;17.9375;0.021667;1.28;65535.0;0.026367;0.037109;1.017578;0;0;126504;0;0;0
2024-11-07_09-29-09.981160;126392;-21.333374;17.9375;0.02125;1.296667;65535.0;0.02832;0.038086;1.015625;0;0;126559;0;0;0
2024-11-07_09-29-10.153548;126392;-21.333374;17.9375;0.02125;1.296667;65535.0;0.02832;0.038086;1.015625;0;0;126724;0;0;0
2024-11-07_09-29-10.436000;126609;-22.666626;17.9375;0.02125;1.311667;65535.0;0.02832;0.039062;1.022461;0;0;126872;0;0;0
2024-11-07_09-29-10.608287;126834;-22.666626;17.9375;0.021667;1.330833;65535.0;0.029297;0.042969;1.024414;0;0;127190;0;0;0
2024-11-07_09-29-10.889845;127265;-18.666626;17.9375;0.02125;1.3575;65535.0;0.027344;0.039062;1.026367;0;0;127455;0;0;0
2024-11-07_09-29-11.077337;127499;-22.666626;17.9375;0.02125;1.37375;65535.0;0.027344;0.040039;1.022461;0;0;127660;0;0;0
2024-11-07_09-29-11.374222;127722;-18.666626;17.9375;0.02125;1.384583;65535.0;0.027344;0.038086;1.030273;0;0;127956;0;0;0
2024-11-07_09-29-11.655468;127928;-17.333374;17.9375;0.02125;1.399167;65535.0;0.027344;0.038086;1.024414;0;0;128192;0;0;0
2024-11-07_09-29-11.842979;128151;-25.333374;17.9375;0.02125;1.41125;65535.0;0.02832;0.041016;1.032227;0;0;128402;0;0;0
2024-11-07_09-29-12.014841;128368;-30.666626;17.9375;0.02125;1.427083;65535.0;0.027344;0.039062;1.033203;0;0;128590;0;0;0
2024-11-07_09-29-12.171090;128591;-18.666626;17.9375;0.02125;1.437917;65535.0;0.025391;0.036133;1.020508;0;0;128750;0;0;0
2024-11-07_09-29-12.405547;128800;-22.666626;17.9375;0.02125;1.450833;65535.0;0.025391;0.040039;1.020508;0;0;128969;0;0;0
2024-11-07_09-29-12.561932;128800;-22.666626;17.9375;0.02125;1.450833;65535.0;0.025391;0.040039;1.020508;0;0;129134;0;0;0
2024-11-07_09-29-12.749434;129022;-21.333374;17.9375;0.021667;1.46875;65535.0;0.025391;0.039062;1.018555;0;0;129328;0;0;0
2024-11-07_09-29-12.811940;129022;-21.333374;17.9375;0.021667;1.46875;65535.0;0.025391;0.039062;1.018555;0;0;129380;0;0;0
2024-11-07_09-29-12.999434;129238;-17.333374;17.9375;0.02125;1.480833;65535.0;0.026367;0.035156;1.024414;0;0;129543;0;0;0
2024-11-07_09-29-13.296785;129678;-30.666626;18.0;0.02125;1.5075;65535.0;0.02832;0.037109;1.027344;0;0;129869;0;0;0
2024-11-07_09-29-13.421789;129678;-30.666626;18.0;0.02125;1.5075;65535.0;0.02832;0.037109;1.027344;0;0;130000;0;0;0
2024-11-07_09-29-13.578044;129901;-30.666626;18.0;0.02125;1.52375;65535.0;0.029297;0.040039;1.037109;0;0;130160;0;0;0
2024-11-07_09-29-13.749919;130108;-25.333374;18.0;0.02125;1.532917;65535.0;0.02832;0.040039;1.037109;0;0;130321;0;0;0
2024-11-07_09-29-14.140963;130538;-30.666626;18.0;0.021667;1.560833;65535.0;0.027344;0.039062;1.032227;0;0;130701;0;0;0
2024-11-07_09-29-14.344101;130538;-30.666626;18.0;0.021667;1.560833;65535.0;0.027344;0.039062;1.032227;0;0;130786;0;0;0
2024-11-07_09-29-14.516222;130763;-21.333374;18.0;0.02125;1.5725;65535.0;0.029297;0.038086;1.032227;0;0;131099;0;0;0
2024-11-07_09-29-14.688444;130986;-21.333374;18.0;0.02125;1.588333;65535.0;0.024414;0.041016;1.023438;0;0;131262;0;0;0
2024-11-07_09-29-14.907199;131221;-20.0;18.0;0.021667;1.599167;65535.0;0.026367;0.041992;1.030273;0;0;131490;0;0;0
2024-11-07_09-29-14.985726;131221;-20.0;18.0;0.021667;1.599167;65535.0;0.026367;0.041992;1.030273;0;0;131560;0;0;0
2024-11-07_09-29-15.142436;131448;-25.333374;18.0;0.021667;1.615;65535.0;0.025391;0.039062;1.023438;0;0;131718;0;0;0
2024-11-07_09-29-15.470555;131670;-25.333374;18.0;0.02125;1.625833;65535.0;0.024414;0.041992;1.029297;0;0;132019;0;0;0
2024-11-07_09-29-15.673676;131892;-22.666626;18.0;0.021667;1.63625;65535.0;0.027344;0.042969;1.038086;0;0;132250;0;0;0
2024-11-07_09-29-15.783958;132112;-18.666626;18.0;0.02125;1.649583;65535.0;0.025391;0.041992;1.033203;0;0;132365;0;0;0
2024-11-07_09-29-15.908620;132331;-22.666626;18.0;0.02125;1.662917;65535.0;0.026367;0.038086;1.033203;0;0;132490;0;0;0
2024-11-07_09-29-16.159281;132551;-22.666626;18.0;0.02125;1.680833;65535.0;0.027344;0.040039;1.029297;0;0;132729;0;0;0
2024-11-07_09-29-16.315665;132551;-22.666626;18.0;0.02125;1.680833;65535.0;0.027344;0.040039;1.029297;0;0;132896;0;0;0
2024-11-07_09-29-16.362540;132758;-22.666626;18.0;0.02125;1.6875;65535.0;0.02832;0.040039;1.026367;0;0;132949;0;0;0
2024-11-07_09-29-16.644986;132978;-26.666626;18.0;0.021667;1.7;65535.0;0.02832;0.040039;1.024414;0;0;133216;0;0;0
2024-11-07_09-29-17.051626;133408;-20.0;18.0;0.02125;1.725;65535.0;0.027344;0.037109;1.03125;0;0;133621;0;0;0
2024-11-07_09-29-17.380185;133632;-22.666626;18.0;0.02125;1.74125;65535.0;0.027344;0.035156;1.023438;0;0;133937;0;0;0
2024-11-07_09-29-17.598934;133838;-26.666626;18.0;0.02125;1.752083;65535.0;0.025391;0.03418;1.027344;0;0;134162;0;0;0
2024-11-07_09-29-17.786425;134049;-21.333374;18.0;0.02125;1.762917;65535.0;0.027344;0.036133;1.02832;0;0;134360;0;0;0
2024-11-07_09-29-17.942673;134271;-18.666626;18.0;0.02125;1.77875;65535.0;0.027344;0.033203;1.021484;0;0;134520;0;0;0
2024-11-07_09-29-18.224386;134488;-22.666626;18.0;0.02125;1.789583;65535.0;0.029297;0.035156;1.029297;0;0;134785;0;0;0
2024-11-07_09-29-18.411883;134722;-22.666626;18.0;0.02125;1.800417;65535.0;0.024414;0.029297;1.019531;0;0;134981;0;0;0
2024-11-07_09-29-18.583764;134949;-22.666626;18.0;0.02125;1.81125;65535.0;0.026367;0.029297;1.029297;0;0;135137;0;0;0
2024-11-07_09-29-18.724387;134949;-22.666626;18.0;0.02125;1.81125;65535.0;0.026367;0.029297;1.029297;0;0;135292;0;0;0
2024-11-07_09-29-18.880633;135156;-17.333374;18.0625;0.021667;1.821667;65535.0;0.029297;0.032227;1.029297;0;0;135449;0;0;0
2024-11-07_09-29-19.052515;135379;-20.0;18.0;0.021667;1.8325;65535.0;0.026367;0.029297;1.022461;0;0;135631;0;0;0
2024-11-07_09-29-19.318888;135588;-21.333374;18.0625;0.02125;1.847917;65535.0;0.026367;0.03125;1.030273;0;0;135900;0;0;0
2024-11-07_09-29-19.507591;135811;-32.0;18.0;0.021667;1.859167;65535.0;0.027344;0.030273;1.022461;0;0;136090;0;0;0
2024-11-07_09-29-19.851819;136241;-22.666626;18.0625;0.02125;1.880834;65535.0;0.027344;0.036133;1.040039;0;0;136417;0;0;0
2024-11-07_09-29-20.039338;136241;-22.666626;18.0625;0.02125;1.880834;65535.0;0.027344;0.036133;1.040039;0;0;136598;0;0;0
2024-11-07_09-29-20.133073;136459;-22.666626;18.0625;0.02125;1.891667;65535.0;0.02832;0.030273;1.036133;0;0;136719;0;0;0
2024-11-07_09-29-20.289332;136684;-29.333374;18.0625;0.02125;1.9025;65535.0;0.029297;0.030273;1.036133;0;0;136859;0;0;0
2024-11-07_09-29-20.446082;136684;-29.333374;18.0625;0.02125;1.9025;65535.0;0.029297;0.030273;1.036133;0;0;137024;0;0;0
2024-11-07_09-29-20.727331;137121;-25.333374;18.0625;0.02125;1.924167;65535.0;0.02832;0.027344;1.048828;0;0;137296;0;0;0
2024-11-07_09-29-20.930462;137328;-22.666626;18.0625;0.02125;1.93375;65535.0;0.02832;0.027344;1.046875;0;0;137490;0;0;0
2024-11-07_09-29-21.196088;137538;-32.0;18.0625;0.02125;1.945417;65535.0;0.029297;0.023438;1.046875;0;0;137754;0;0;0
2024-11-07_09-29-21.399201;137752;-34.666626;18.0625;0.02125;1.95625;65535.0;0.029297;0.026367;1.051758;0;0;137976;0;0;0
2024-11-07_09-29-21.758578;138191;-20.0;18.0625;0.02125;1.979167;65535.0;0.02832;0.027344;1.066406;0;0;138348;0;0;0
2024-11-07_09-29-21.867961;138191;-20.0;18.0625;0.02125;1.979167;65535.0;0.02832;0.027344;1.066406;0;0;138430;0;0;0
2024-11-07_09-29-22.024203;138419;-30.666626;18.0625;0.02125;1.989167;65535.0;0.030273;0.026367;1.063477;0;0;138590;0;0;0
2024-11-07_09-29-22.165692;138419;-30.666626;18.0625;0.02125;1.989167;65535.0;0.030273;0.026367;1.063477;0;0;138735;0;0;0
2024-11-07_09-29-22.541694;138879;-32.0;18.0625;0.02125;2.017917;65535.0;0.029297;0.024414;1.073242;0;0;139093;0;0;0
2024-11-07_09-29-22.666609;138879;-32.0;18.0625;0.02125;2.017917;65535.0;0.029297;0.024414;1.073242;0;0;139229;0;0;0
2024-11-07_09-29-22.885445;139099;-29.333374;18.0625;0.02125;2.02875;65535.0;0.030273;0.025391;1.067383;0;0;139468;0;0;0
2024-11-07_09-29-22.932320;139320;-22.666626;18.0625;0.02125;2.039167;65535.0;0.03125;0.025391;1.084961;0;0;139519;0;0;0
2024-11-07_09-29-23.166700;139541;-36.0;18.0625;0.02125;2.05;65535.0;0.03125;0.021484;1.084961;0;0;139739;0;0;0
2024-11-07_09-29-23.338567;139748;-38.666626;18.0625;0.02125;2.055833;65535.0;0.03418;0.019531;1.09375;0;0;139922;0;0;0
2024-11-07_09-29-23.495654;139748;-38.666626;18.0625;0.02125;2.055833;65535.0;0.03418;0.019531;1.09375;0;0;140073;0;0;0
2024-11-07_09-29-23.574565;139968;-36.0;18.0625;0.02125;2.06625;65535.0;0.033203;0.023438;1.107422;0;0;140150;0;0;0
2024-11-07_09-29-23.777826;139968;-36.0;18.0625;0.02125;2.06625;65535.0;0.033203;0.023438;1.107422;0;0;140317;0;0;0
2024-11-07_09-29-23.871572;140191;-37.333374;18.0625;0.02125;2.077083;65535.0;0.030273;0.022461;1.102539;0;0;140459;0;0;0
2024-11-07_09-29-24.059075;140410;-50.666626;18.0625;0.02125;2.087917;65535.0;0.032227;0.021484;1.109375;0;0;140631;0;0;0
2024-11-07_09-29-24.230956;140633;-48.0;18.0625;0.02125;2.1025;65535.0;0.032227;0.022461;1.121094;0;0;140809;0;0;0
2024-11-07_09-29-24.434301;140838;-36.0;18.0625;0.02125;2.1125;65535.0;0.033203;0.021484;1.117188;0;0;140999;0;0;0
2024-11-07_09-29-24.560066;140838;-36.0;18.0625;0.02125;2.1125;65535.0;0.033203;0.021484;1.117188;0;0;141139;0;0;0
2024-11-07_09-29-24.685060;141061;-32.0;18.0625;0.02125;2.125;65535.0;0.032227;0.026367;1.133789;0;0;141257;0;0;0
2024-11-07_09-29-24.935070;141278;-36.0;18.0625;0.021667;2.130833;65535.0;0.03418;0.026367;1.124023;0;0;141496;0;0;0
2024-11-07_09-29-24.998096;141278;-36.0;18.0625;0.021667;2.130833;65535.0;0.03418;0.026367;1.124023;0;0;141581;0;0;0
2024-11-07_09-29-25.169989;141491;-50.666626;18.0625;0.02125;2.14125;65535.0;0.033203;0.024414;1.129883;0;0;141749;0;0;0
2024-11-07_09-29-25.280209;141708;-37.333374;18.0625;0.02125;2.151667;65535.0;0.03418;0.026367;1.144531;0;0;141860;0;0;0
2024-11-07_09-29-25.563096;141931;-34.666626;18.125;0.021667;2.1625;65535.0;0.03418;0.02832;1.146484;0;0;142151;0;0;0
2024-11-07_09-29-25.751005;142155;-45.333374;18.125;0.02125;2.168334;65535.0;0.035156;0.029297;1.143555;0;0;142317;0;0;0
2024-11-07_09-29-25.907251;142155;-45.333374;18.125;0.02125;2.168334;65535.0;0.035156;0.029297;1.143555;0;0;142490;0;0;0
2024-11-07_09-29-26.141624;142387;-50.666626;18.0625;0.02125;2.184167;65535.0;0.033203;0.027344;1.144531;0;0;142716;0;0;0
2024-11-07_09-29-26.219752;142607;-50.666626;18.125;0.021667;2.195;65535.0;0.033203;0.030273;1.147461;0;0;142805;0;0;0
2024-11-07_09-29-26.391622;142607;-50.666626;18.125;0.021667;2.195;65535.0;0.033203;0.030273;1.147461;0;0;142970;0;0;0
2024-11-07_09-29-26.610379;142834;-36.0;18.0625;2.2;2.205417;65535.0;0.035156;0.029297;1.144531;0;0;143164;0;0;0
2024-11-07_09-29-26.751003;143041;-30.666626;18.0625;0.02125;2.21625;65535.0;0.03418;0.03125;1.146484;0;0;143326;0;0;0
2024-11-07_09-29-26.922882;143258;-48.0;18.0625;0.02125;2.226667;65535.0;0.033203;0.027344;1.138672;0;0;143499;0;0;0
2024-11-07_09-29-27.141622;143481;-49.333374;18.125;0.02125;2.2325;65535.0;0.036133;0.030273;1.142578;0;0;143717;0;0;0
2024-11-07_09-29-27.361131;143688;-38.666626;18.125;0.02125;2.237917;65535.0;0.036133;0.030273;1.144531;0;0;143919;0;0;0
2024-11-07_09-29-27.470503;143688;-38.666626;18.125;0.02125;2.237917;65535.0;0.036133;0.030273;1.144531;0;0;144051;0;0;0
2024-11-07_09-29-27.783009;144128;-49.333374;18.125;0.02125;2.259167;65535.0;0.037109;0.02832;1.154297;0;0;144358;0;0;0
2024-11-07_09-29-28.034087;144351;-50.666626;18.125;0.021667;2.27;65535.0;0.037109;0.025391;1.150391;0;0;144609;0;0;0
2024-11-07_09-29-28.080979;144351;-50.666626;18.125;0.021667;2.27;65535.0;0.037109;0.025391;1.150391;0;0;144670;0;0;0
2024-11-07_09-29-28.253899;144558;-34.666626;18.125;0.021667;2.280833;65535.0;0.040039;0.02832;1.15625;0;0;144828;0;0;0
2024-11-07_09-29-28.866193;145222;-38.666626;18.125;0.02125;2.312083;65535.0;0.040039;0.032227;1.147461;0;0;145449;0;0;0
2024-11-07_09-29-29.038064;145438;-36.0;18.125;0.02125;2.323334;65535.0;0.042969;0.032227;1.143555;0;0;145619;0;0;0
2024-11-07_09-29-29.257479;145648;-50.666626;18.125;0.02125;2.323334;65535.0;0.041016;0.030273;1.148438;0;0;145839;0;0;0
2024-11-07_09-29-29.366857;145648;-50.666626;18.125;0.02125;2.323334;65535.0;0.041016;0.030273;1.148438;0;0;145950;0;0;0
2024-11-07_09-29-29.585898;145871;-36.0;18.125;0.02125;2.334167;65535.0;0.041016;0.03125;1.145508;0;0;146163;0;0;0
2024-11-07_09-29-29.664314;145871;-36.0;18.125;0.02125;2.334167;65535.0;0.041016;0.03125;1.145508;0;0;146240;0;0;0
2024-11-07_09-29-29.898690;146095;-50.666626;18.125;0.02125;2.344584;65535.0;0.040039;0.030273;1.145508;0;0;146456;0;0;0
2024-11-07_09-29-30.133517;146331;-48.0;18.125;0.02125;2.355417;65535.0;0.041992;0.029297;1.135742;0;0;146684;0;0;0
2024-11-07_09-29-30.289786;146561;-41.333374;18.125;0.02125;2.369167;65535.0;0.041992;0.030273;1.135742;0;0;146870;0;0;0
2024-11-07_09-29-30.540142;146782;-50.666626;18.125;0.02125;2.379584;65535.0;0.041016;0.030273;1.148438;0;0;147116;0;0;0
2024-11-07_09-29-30.587018;146998;-37.333374;18.125;0.02125;2.390417;65535.0;0.041992;0.035156;1.15332;0;0;147169;0;0;0
2024-11-07_09-29-30.805769;147212;-50.666626;18.125;0.02125;2.395833;65535.0;0.041016;0.03125;1.144531;0;0;147389;0;0;0
2024-11-07_09-29-30.930766;147212;-50.666626;18.125;0.02125;2.395833;65535.0;0.041016;0.03125;1.144531;0;0;147488;0;0;0
2024-11-07_09-29-31.180763;147418;-36.0;18.125;0.02125;2.405;65535.0;0.040039;0.03125;1.142578;0;0;147729;0;0;0
2024-11-07_09-29-31.227642;147628;-36.0;18.125;0.021667;2.417084;65535.0;0.042969;0.033203;1.135742;0;0;147803;0;0;0
2024-11-07_09-29-31.399516;147628;-36.0;18.125;0.021667;2.417084;65535.0;0.042969;0.033203;1.135742;0;0;147972;0;0;0
2024-11-07_09-29-31.541200;147851;-48.0;18.125;0.02125;2.4225;65535.0;0.041992;0.027344;1.132812;0;0;148118;0;0;0
2024-11-07_09-29-31.822984;148070;-30.666626;18.125;0.02125;2.432917;65535.0;0.040039;0.036133;1.149414;0;0;148406;0;0;0
2024-11-07_09-29-32.229990;148511;-32.0;18.125;0.02125;2.449167;65535.0;0.041016;0.027344;1.125977;0;0;148798;0;0;0
2024-11-07_09-29-32.495613;148721;-53.333374;18.125;0.02125;2.454583;65535.0;0.043945;0.030273;1.12793;0;0;149039;0;0;0
2024-11-07_09-29-32.651871;148938;-36.0;18.1875;0.02125;2.465417;65535.0;0.039062;0.033203;1.134766;0;0;149220;0;0;0
2024-11-07_09-29-32.793551;149161;-48.0;18.125;0.02125;2.475834;65535.0;0.041016;0.03125;1.136719;0;0;149370;0;0;0
2024-11-07_09-29-32.996321;149368;-38.666626;18.1875;0.02125;2.48625;65535.0;0.043945;0.026367;1.135742;0;0;149573;0;0;0
2024-11-07_09-29-33.105692;149368;-38.666626;18.1875;0.02125;2.48625;65535.0;0.043945;0.026367;1.135742;0;0;149681;0;0;0
2024-11-07_09-29-33.277575;149585;-48.0;18.1875;0.02125;2.491667;65535.0;0.041992;0.033203;1.134766;0;0;149852;0;0;0
2024-11-07_09-29-33.418191;149811;-48.0;18.125;0.02125;2.500834;65535.0;0.042969;0.029297;1.141602;0;0;150000;0;0;0
2024-11-07_09-29-33.652571;150039;-36.0;18.1875;0.02125;2.511667;65535.0;0.042969;0.035156;1.135742;0;0;150218;0;0;0
2024-11-07_09-29-33.840071;150039;-36.0;18.1875;0.02125;2.511667;65535.0;0.042969;0.035156;1.135742;0;0;150397;0;0;0
2024-11-07_09-29-33.902569;150262;-50.666626;18.125;0.02125;2.518333;65535.0;0.044922;0.032227;1.126953;0;0;150479;0;0;0
2024-11-07_09-29-34.043198;150262;-50.666626;18.125;0.02125;2.518333;65535.0;0.044922;0.032227;1.126953;0;0;150619;0;0;0
2024-11-07_09-29-34.183814;150484;-36.0;18.1875;0.02125;2.5275;65535.0;0.043945;0.036133;1.134766;0;0;150769;0;0;0
2024-11-07_09-29-34.356363;150688;-38.666626;18.1875;0.02125;2.534167;65535.0;0.042969;0.033203;1.140625;0;0;150927;0;0;0
2024-11-07_09-29-34.575813;150910;-48.0;18.1875;0.021667;2.544167;65535.0;0.044922;0.036133;1.126953;0;0;151149;0;0;0
2024-11-07_09-29-34.748111;151118;-25.333374;18.1875;0.02125;2.555834;65535.0;0.044922;0.032227;1.12207;0;0;151319;0;0;0
2024-11-07_09-29-34.841990;151118;-25.333374;18.1875;0.02125;2.555834;65535.0;0.044922;0.032227;1.12207;0;0;151418;0;0;0
2024-11-07_09-29-35.154496;151558;-30.666626;18.1875;0.021667;2.56625;65535.0;0.042969;0.03125;1.125;0;0;151720;0;0;0
2024-11-07_09-29-35.279495;151558;-30.666626;18.1875;0.021667;2.56625;65535.0;0.042969;0.03125;1.125;0;0;151869;0;0;0
2024-11-07_09-29-35.466999;151781;-50.666626;18.1875;0.02125;2.577917;65535.0;0.043945;0.033203;1.117188;0;0;152028;0;0;0
2024-11-07_09-29-35.623246;151998;-22.666626;18.1875;0.02125;2.5875;65535.0;0.042969;0.030273;1.124023;0;0;152199;0;0;0
2024-11-07_09-29-35.795129;151998;-22.666626;18.1875;0.02125;2.5875;65535.0;0.042969;0.030273;1.124023;0;0;152368;0;0;0
2024-11-07_09-29-36.029491;152221;-48.0;18.1875;0.021667;2.593333;65535.0;0.042969;0.033203;1.116211;0;0;152588;0;0;0
2024-11-07_09-29-36.186478;152438;-22.666626;18.1875;0.02125;2.604167;65535.0;0.043945;0.03125;1.112305;0;0;152769;0;0;0
2024-11-07_09-29-36.233350;152438;-22.666626;18.1875;0.02125;2.604167;65535.0;0.043945;0.03125;1.112305;0;0;152807;0;0;0
2024-11-07_09-29-36.467733;152661;-50.666626;18.1875;0.02125;2.609167;65535.0;0.041992;0.03125;1.125977;0;0;153009;0;0;0
2024-11-07_09-29-36.530232;152878;-29.333374;18.1875;0.02125;2.62;65535.0;0.041992;0.02832;1.116211;0;0;153120;0;0;0
2024-11-07_09-29-36.686479;153102;-57.333374;18.1875;0.02125;2.629584;65535.0;0.042969;0.030273;1.113281;0;0;153270;0;0;0
2024-11-07_09-29-36.874574;153102;-57.333374;18.1875;0.02125;2.629584;65535.0;0.042969;0.030273;1.113281;0;0;153437;0;0;0
2024-11-07_09-29-37.077699;153326;-22.666626;18.1875;0.02125;2.635834;65535.0;0.043945;0.030273;1.119141;0;0;153656;0;0;0
2024-11-07_09-29-37.202694;153550;-50.666626;18.1875;0.021667;2.646667;65535.0;0.044922;0.032227;1.121094;0;0;153771;0;0;0
2024-11-07_09-29-37.327695;153550;-50.666626;18.1875;0.021667;2.646667;65535.0;0.044922;0.032227;1.121094;0;0;153910;0;0;0
2024-11-07_09-29-37.547312;153775;-34.666626;18.1875;0.021667;2.651667;65535.0;0.043945;0.029297;1.119141;0;0;154090;0;0;0
2024-11-07_09-29-37.750993;153988;-48.0;18.1875;0.02125;2.6625;65535.0;0.042969;0.032227;1.116211;0;0;154317;0;0;0
2024-11-07_09-29-37.782563;154202;-34.666626;18.1875;0.021667;2.665417;65535.0;0.043945;0.027344;1.118164;0;0;154369;0;0;0
2024-11-07_09-29-37.970593;154202;-34.666626;18.1875;0.021667;2.665417;65535.0;0.043945;0.027344;1.118164;0;0;154538;0;0;0
2024-11-07_09-29-38.111226;154421;-34.666626;18.1875;0.02125;2.672917;65535.0;0.044922;0.03125;1.113281;0;0;154697;0;0;0
2024-11-07_09-29-38.314374;154628;-38.666626;18.1875;0.02125;2.68375;65535.0;0.042969;0.03125;1.118164;0;0;154881;0;0;0
2024-11-07_09-29-38.517822;154841;-29.333374;18.1875;0.02125;2.689584;65535.0;0.043945;0.032227;1.116211;0;0;155089;0;0;0
2024-11-07_09-29-38.690135;155058;-48.0;18.1875;0.02125;2.699583;65535.0;0.040039;0.029297;1.108398;0;0;155252;0;0;0
2024-11-07_09-29-38.971390;155281;-22.666626;18.1875;0.02125;2.707916;65535.0;0.043945;0.03418;1.120117;0;0;155542;0;0;0
2024-11-07_09-29-39.112013;155498;-50.666626;18.1875;0.02125;2.713333;65535.0;0.043945;0.033203;1.120117;0;0;155699;0;0;0
2024-11-07_09-29-39.315138;155498;-50.666626;18.1875;0.02125;2.713333;65535.0;0.043945;0.033203;1.120117;0;0;155868;0;0;0
2024-11-07_09-29-39.737016;156151;-38.666626;18.1875;0.021667;2.740417;65535.0;0.045898;0.033203;1.117188;0;0;156309;0;0;0
2024-11-07_09-29-39.815310;156151;-38.666626;18.1875;0.021667;2.740417;65535.0;0.045898;0.033203;1.117188;0;0;156390;0;0;0
2024-11-07_09-29-40.174699;156370;-36.0;18.1875;0.021667;2.745417;65535.0;0.043945;0.033203;1.117188;0;0;156729;0;0;0
2024-11-07_09-29-40.362650;156591;-41.333374;18.25;0.02125;2.75625;65535.0;0.044922;0.030273;1.133789;0;0;156932;0;0;0
2024-11-07_09-29-40.425142;156809;-30.666626;18.25;0.021667;2.763334;65535.0;0.042969;0.033203;1.12207;0;0;157012;0;0;0
2024-11-07_09-29-40.691059;157043;-48.0;18.1875;2.77125;2.771667;65535.0;0.044922;0.030273;1.116211;0;0;157270;0;0;0
2024-11-07_09-29-40.753555;157043;-48.0;18.1875;2.77125;2.771667;65535.0;0.044922;0.030273;1.116211;0;0;157329;0;0;0
2024-11-07_09-29-41.034814;157266;-30.666626;18.25;0.02125;2.77875;65535.0;0.044922;0.033203;1.128906;0;0;157600;0;0;0
2024-11-07_09-29-41.224095;157502;-53.333374;18.25;0.02125;2.788334;65535.0;0.044922;0.03418;1.121094;0;0;157800;0;0;0
2024-11-07_09-29-41.380988;157722;-34.666626;18.25;0.02125;2.79375;65535.0;0.046875;0.02832;1.114258;0;0;157960;0;0;0
2024-11-07_09-29-41.740363;158148;-38.666626;18.25;0.02125;2.805;65535.0;0.041992;0.03125;1.118164;0;0;158306;0;0;0
2024-11-07_09-29-41.865362;158148;-38.666626;18.25;0.02125;2.805;65535.0;0.041992;0.03125;1.118164;0;0;158438;0;0;0
2024-11-07_09-29-42.037237;158368;-29.333374;18.25;0.02125;2.815;65535.0;0.046875;0.032227;1.114258;0;0;158609;0;0;0
2024-11-07_09-29-42.163213;158591;-38.666626;18.25;0.021667;2.825834;65535.0;0.043945;0.030273;1.123047;0;0;158740;0;0;0
2024-11-07_09-29-42.429280;158798;-21.333374;18.25;0.021667;2.83;65535.0;0.043945;0.035156;1.110352;0;0;159003;0;0;0
2024-11-07_09-29-42.601151;159013;-53.333374;18.25;0.02125;2.83625;65535.0;0.043945;0.03125;1.114258;0;0;159179;0;0;0
2024-11-07_09-29-42.836021;159229;-25.333374;18.25;0.02125;2.843333;65535.0;0.043945;0.030273;1.120117;0;0;159386;0;0;0
2024-11-07_09-29-42.945385;159229;-25.333374;18.25;0.02125;2.843333;65535.0;0.043945;0.030273;1.120117;0;0;159529;0;0;0
2024-11-07_09-29-43.101909;159454;-48.0;18.25;0.02125;2.8525;65535.0;0.043945;0.03418;1.107422;0;0;159679;0;0;0
2024-11-07_09-29-43.321027;159668;-37.333374;18.25;0.02125;2.863333;65535.0;0.042969;0.029297;1.109375;0;0;159899;0;0;0
2024-11-07_09-29-43.414910;159668;-37.333374;18.25;0.02125;2.863333;65535.0;0.042969;0.029297;1.109375;0;0;159990;0;0;0
2024-11-07_09-29-43.682403;160091;-49.333374;18.25;0.02125;2.877084;65535.0;0.043945;0.03125;1.102539;0;0;160259;0;0;0
2024-11-07_09-29-43.729950;160091;-49.333374;18.25;0.02125;2.877084;65535.0;0.043945;0.03125;1.102539;0;0;160310;0;0;0
2024-11-07_09-29-44.028225;160308;-22.666626;18.25;0.02125;2.884167;65535.0;0.042969;0.033203;1.109375;0;0;160576;0;0;0
2024-11-07_09-29-44.216958;160521;-53.333374;18.25;0.02125;2.89;65535.0;0.044922;0.033203;1.117188;0;0;160799;0;0;0
2024-11-07_09-29-44.436921;160750;-26.666626;18.25;0.02125;2.8975;65535.0;0.044922;0.036133;1.111328;0;0;161020;0;0;0
2024-11-07_09-29-44.500365;160750;-26.666626;18.25;0.02125;2.8975;65535.0;0.044922;0.036133;1.111328;0;0;161090;0;0;0
2024-11-07_09-29-44.688497;160979;-41.333374;18.25;0.02125;2.90625;65535.0;0.042969;0.03418;1.116211;0;0;161259;0;0;0
2024-11-07_09-29-44.892053;161212;-25.333374;18.25;0.02125;2.91375;65535.0;0.041992;0.037109;1.104492;0;0;161469;0;0;0
2024-11-07_09-29-44.985802;161212;-25.333374;18.25;0.02125;2.91375;65535.0;0.041992;0.037109;1.104492;0;0;161560;0;0;0
2024-11-07_09-29-45.251898;161628;-38.666626;18.25;0.02125;2.924583;65535.0;0.043945;0.036133;1.106445;0;0;161819;0;0;0
2024-11-07_09-29-45.315049;161628;-38.666626;18.25;0.02125;2.924583;65535.0;0.043945;0.036133;1.106445;0;0;161877;0;0;0
2024-11-07_09-29-45.564665;161852;-32.0;18.25;0.02125;2.932917;65535.0;0.043945;0.037109;1.098633;0;0;162137;0;0;0
2024-11-07_09-29-45.752618;162071;-45.333374;18.25;0.02125;2.94375;65535.0;0.041016;0.032227;1.09082;0;0;162330;0;0;0
2024-11-07_09-29-45.908870;162288;-17.333374;18.25;0.02125;2.94875;65535.0;0.041992;0.03418;1.101562;0;0;162490;0;0;0
2024-11-07_09-29-46.049486;162288;-17.333374;18.25;0.02125;2.94875;65535.0;0.041992;0.03418;1.101562;0;0;162634;0;0;0
2024-11-07_09-29-46.221364;162512;-50.666626;18.25;0.02125;2.954167;65535.0;0.040039;0.032227;1.09082;0;0;162796;0;0;0
2024-11-07_09-29-46.597420;162951;-50.666626;18.25;0.021667;2.970417;65535.0;0.039062;0.033203;1.09668;0;0;163146;0;0;0
2024-11-07_09-29-46.675542;162951;-50.666626;18.25;0.021667;2.970417;65535.0;0.039062;0.033203;1.09668;0;0;163265;0;0;0
2024-11-07_09-29-46.972784;163391;-41.333374;18.25;0.021667;2.98625;65535.0;0.041992;0.035156;1.085938;0;0;163549;0;0;0
2024-11-07_09-29-47.285272;163608;-21.333374;18.25;0.02125;2.991667;65535.0;0.041016;0.033203;1.085938;0;0;163847;0;0;0
2024-11-07_09-29-47.472778;163821;-36.0;18.25;0.02125;2.99375;65535.0;0.041992;0.032227;1.077148;0;0;164050;0;0;0
2024-11-07_09-29-47.660274;164038;-34.666626;18.25;0.021667;3.002084;65535.0;0.038086;0.036133;1.072266;0;0;164239;0;0;0
2024-11-07_09-29-47.771075;164038;-34.666626;18.25;0.021667;3.002084;65535.0;0.038086;0.036133;1.072266;0;0;164352;0;0;0
2024-11-07_09-29-47.942065;164248;-30.666626;18.25;0.021667;3.012917;65535.0;0.038086;0.032227;1.083984;0;0;164513;0;0;0
2024-11-07_09-29-48.083026;164471;-29.333374;18.25;0.02125;3.012917;65535.0;0.038086;0.03418;1.068359;0;0;164669;0;0;0
2024-11-07_09-29-48.271024;164471;-29.333374;18.25;0.02125;3.012917;65535.0;0.038086;0.03418;1.068359;0;0;164837;0;0;0
2024-11-07_09-29-48.538071;164959;-29.333374;18.3125;0.02125;3.032084;65535.0;0.040039;0.035156;1.075195;0;0;165120;0;0;0
2024-11-07_09-29-48.725096;164959;-29.333374;18.3125;0.02125;3.032084;65535.0;0.040039;0.035156;1.075195;0;0;165300;0;0;0
2024-11-07_09-29-49.068858;165411;-21.333374;18.3125;0.02125;3.04875;65535.0;0.037109;0.03418;1.070312;0;0;165640;0;0;0
2024-11-07_09-29-49.225360;165630;-38.666626;18.3125;0.02125;3.05875;65535.0;0.038086;0.033203;1.072266;0;0;165783;0;0;0
2024-11-07_09-29-49.381614;165630;-38.666626;18.3125;0.02125;3.05875;65535.0;0.038086;0.033203;1.072266;0;0;165964;0;0;0
2024-11-07_09-29-49.600753;165852;-22.666626;18.3125;0.02125;3.06625;65535.0;0.038086;0.032227;1.064453;0;0;166183;0;0;0
2024-11-07_09-29-49.663027;166069;-36.0;18.3125;0.02125;3.069167;65535.0;0.035156;0.037109;1.075195;0;0;166239;0;0;0
2024-11-07_09-29-49.882437;166294;-22.666626;18.3125;0.02125;3.075;65535.0;0.037109;0.032227;1.069336;0;0;166469;0;0;0
2024-11-07_09-29-50.117178;166498;-32.0;18.3125;0.02125;3.085833;65535.0;0.039062;0.040039;1.064453;0;0;166684;0;0;0
2024-11-07_09-29-50.696379;166921;-34.666626;18.3125;0.02125;3.10125;65535.0;0.03418;0.036133;1.06543;0;0;167265;0;0;0
2024-11-07_09-29-50.774493;167138;-26.666626;18.3125;0.021667;3.106667;65535.0;0.03418;0.042969;1.052734;0;0;167347;0;0;0
2024-11-07_09-29-50.946364;167363;-17.333374;18.3125;0.02125;3.107917;65535.0;0.033203;0.042969;1.051758;0;0;167529;0;0;0
2024-11-07_09-29-51.149391;167363;-17.333374;18.3125;0.02125;3.107917;65535.0;0.033203;0.042969;1.051758;0;0;167694;0;0;0
2024-11-07_09-29-51.211995;167579;-34.666626;18.3125;0.02125;3.1175;65535.0;0.036133;0.041992;1.048828;0;0;167799;0;0;0
2024-11-07_09-29-51.399499;167804;-18.666626;18.3125;0.02125;3.127084;65535.0;0.03418;0.046875;1.054688;0;0;167979;0;0;0
2024-11-07_09-29-51.540440;167804;-18.666626;18.3125;0.02125;3.127084;65535.0;0.03418;0.046875;1.054688;0;0;168120;0;0;0
2024-11-07_09-29-51.743561;168008;-32.0;18.3125;0.02125;3.13375;65535.0;0.030273;0.041016;1.041992;0;0;168315;0;0;0
2024-11-07_09-29-51.899809;168218;-17.333374;18.3125;0.021667;3.139167;65535.0;0.030273;0.043945;1.037109;0;0;168475;0;0;0
2024-11-07_09-29-52.009190;168441;-25.333374;18.3125;0.02125;3.149584;65535.0;0.033203;0.042969;1.033203;0;0;168594;0;0;0
2024-11-07_09-29-52.150407;168441;-25.333374;18.3125;0.02125;3.149584;65535.0;0.033203;0.042969;1.033203;0;0;168733;0;0;0
2024-11-07_09-29-52.416037;168670;-21.333374;18.3125;0.02125;3.155;65535.0;0.033203;0.047852;1.038086;0;0;168989;0;0;0
2024-11-07_09-29-52.478534;168892;-17.333374;18.3125;0.02125;3.160417;65535.0;0.029297;0.046875;1.029297;0;0;169060;0;0;0
2024-11-07_09-29-52.745525;169125;-25.333374;18.3125;3.165833;3.17;65535.0;0.03125;0.043945;1.017578;0;0;169329;0;0;0
2024-11-07_09-29-52.808404;169125;-25.333374;18.3125;3.165833;3.17;65535.0;0.03125;0.043945;1.017578;0;0;169377;0;0;0
2024-11-07_09-29-52.949028;169341;-17.333374;18.3125;0.021667;3.174583;65535.0;0.03125;0.047852;1.020508;0;0;169530;0;0;0
2024-11-07_09-29-53.152570;169341;-17.333374;18.3125;0.021667;3.174583;65535.0;0.03125;0.047852;1.020508;0;0;169692;0;0;0
2024-11-07_09-29-53.261951;169560;-20.0;18.3125;0.021667;3.176667;65535.0;0.032227;0.045898;1.012695;0;0;169839;0;0;0
2024-11-07_09-29-53.433824;169784;-22.666626;18.3125;0.02125;3.187083;65535.0;0.030273;0.040039;1.013672;0;0;170019;0;0;0
2024-11-07_09-29-53.652565;169998;-17.333374;18.3125;0.02125;3.194584;65535.0;0.02832;0.043945;1.011719;0;0;170239;0;0;0
2024-11-07_09-29-53.730692;169998;-17.333374;18.3125;0.02125;3.194584;65535.0;0.02832;0.043945;1.011719;0;0;170310;0;0;0
2024-11-07_09-29-53.886955;170208;-20.0;18.3125;0.02125;3.197917;65535.0;0.029297;0.047852;1.016602;0;0;170456;0;0;0
2024-11-07_09-29-54.090873;170431;-18.666626;18.3125;0.02125;3.205833;65535.0;0.030273;0.044922;1.012695;0;0;170679;0;0;0
2024-11-07_09-29-54.356135;170648;-16.0;18.3125;0.02125;3.21375;65535.0;0.029297;0.043945;1.020508;0;0;170905;0;0;0
2024-11-07_09-29-54.715850;171091;-21.333374;18.3125;0.02125;3.224583;65535.0;0.02832;0.043945;1.011719;0;0;171299;0;0;0
2024-11-07_09-29-54.887718;171308;-18.666626;18.3125;0.021667;3.23;65535.0;0.03125;0.045898;1.013672;0;0;171469;0;0;0
2024-11-07_09-29-54.981459;171308;-18.666626;18.3125;0.021667;3.23;65535.0;0.03125;0.045898;1.013672;0;0;171560;0;0;0
2024-11-07_09-29-55.137712;171532;-20.0;18.3125;0.02125;3.240417;65535.0;0.030273;0.041016;1.021484;0;0;171720;0;0;0
2024-11-07_09-29-55.293970;171532;-20.0;18.3125;0.02125;3.240417;65535.0;0.030273;0.041016;1.021484;0;0;171867;0;0;0
2024-11-07_09-29-55.623624;171751;-22.666626;18.3125;0.02125;3.247917;65535.0;0.030273;0.044922;1.023438;0;0;172063;0;0;0
2024-11-07_09-29-55.748634;172181;-22.666626;18.375;0.02125;3.262084;65535.0;0.030273;0.046875;1.027344;0;0;172331;0;0;0
2024-11-07_09-29-55.920498;172181;-22.666626;18.375;0.02125;3.262084;65535.0;0.030273;0.046875;1.027344;0;0;172500;0;0;0
2024-11-07_09-29-56.093241;172397;-21.333374;18.3125;0.021667;3.267083;65535.0;0.032227;0.049805;1.036133;0;0;172670;0;0;0
2024-11-07_09-29-56.311632;172632;-25.333374;18.3125;0.02125;3.2725;65535.0;0.033203;0.053711;1.033203;0;0;172889;0;0;0
2024-11-07_09-29-56.483685;172861;-25.333374;18.375;0.021667;3.278334;65535.0;0.02832;0.049805;1.035156;0;0;173059;0;0;0
2024-11-07_09-29-56.577898;172861;-25.333374;18.375;0.021667;3.278334;65535.0;0.02832;0.049805;1.035156;0;0;173148;0;0;0
2024-11-07_09-29-56.702889;173081;-30.666626;18.3125;0.02125;3.283334;65535.0;0.030273;0.052734;1.042969;0;0;173278;0;0;0
2024-11-07_09-29-57.157087;173290;-21.333374;18.3125;0.02125;3.294167;65535.0;0.029297;0.053711;1.040039;0;0;173587;0;0;0
2024-11-07_09-29-57.375846;173721;-25.333374;18.375;0.02125;3.304584;65535.0;0.029297;0.052734;1.038086;0;0;173959;0;0;0
2024-11-07_09-29-57.548656;173938;-21.333374;18.375;0.02125;3.315417;65535.0;0.029297;0.047852;1.039062;0;0;174139;0;0;0
2024-11-07_09-29-57.720525;173938;-21.333374;18.375;0.02125;3.315417;65535.0;0.029297;0.047852;1.039062;0;0;174298;0;0;0
2024-11-07_09-29-57.798653;174151;-25.333374;18.3125;0.021667;3.315417;65535.0;0.030273;0.049805;1.041016;0;0;174380;0;0;0
2024-11-07_09-29-58.033033;174368;-25.333374;18.3125;0.02125;3.32625;65535.0;0.029297;0.046875;1.040039;0;0;174619;0;0;0
2024-11-07_09-29-58.112432;174368;-25.333374;18.3125;0.02125;3.32625;65535.0;0.029297;0.046875;1.040039;0;0;174690;0;0;0
2024-11-07_09-29-58.408867;174801;-22.666626;18.375;0.02125;3.336667;65535.0;0.030273;0.041016;1.040039;0;0;174969;0;0;0
2024-11-07_09-29-58.613273;174801;-22.666626;18.375;0.02125;3.336667;65535.0;0.030273;0.041016;1.040039;0;0;175158;0;0;0
2024-11-07_09-29-58.833087;175242;-18.666626;18.375;0.021667;3.3475;65535.0;0.02832;0.041016;1.035156;0;0;175409;0;0;0
2024-11-07_09-29-58.879970;175242;-18.666626;18.375;0.021667;3.3475;65535.0;0.02832;0.041016;1.035156;0;0;175458;0;0;0
2024-11-07_09-29-59.098724;175464;-22.666626;18.375;0.02125;3.352917;65535.0;0.02832;0.038086;1.03125;0;0;175689;0;0;0
2024-11-07_09-29-59.192469;175464;-22.666626;18.375;0.02125;3.352917;65535.0;0.02832;0.038086;1.03125;0;0;175780;0;0;0
2024-11-07_09-29-59.458099;175668;-22.666626;18.375;0.021667;3.363333;65535.0;0.030273;0.037109;1.032227;0;0;176026;0;0;0
2024-11-07_09-29-59.504973;175878;-21.333374;18.375;0.021667;3.363333;65535.0;0.029297;0.036133;1.039062;0;0;176080;0;0;0
2024-11-07_09-29-59.708542;176109;-20.0;18.375;0.021667;3.374167;65535.0;0.027344;0.041992;1.041016;0;0;176297;0;0;0
2024-11-07_09-29-59.943211;176327;-22.666626;18.3125;0.02125;3.384583;65535.0;0.02832;0.040039;1.038086;0;0;176516;0;0;0
2024-11-07_09-30-00.209276;176540;-22.666626;18.375;0.021667;3.384583;65535.0;0.027344;0.037109;1.041992;0;0;176795;0;0;0
2024-11-07_09-30-00.381154;176748;-25.333374;18.375;0.02125;3.398333;65535.0;0.02832;0.041992;1.038086;0;0;176959;0;0;0
2024-11-07_09-30-00.428026;176748;-25.333374;18.375;0.02125;3.398333;65535.0;0.02832;0.041992;1.038086;0;0;177010;0;0;0
2024-11-07_09-30-00.599913;176967;-20.0;18.375;0.02125;3.40375;65535.0;0.029297;0.041016;1.038086;0;0;177179;0;0;0
2024-11-07_09-30-00.834275;177191;-32.0;18.375;0.021667;3.409583;65535.0;0.02832;0.040039;1.037109;0;0;177409;0;0;0
2024-11-07_09-30-00.990528;177400;-29.333374;18.375;0.02125;3.414583;65535.0;0.03125;0.041992;1.040039;0;0;177569;0;0;0
2024-11-07_09-30-01.068642;177400;-29.333374;18.375;0.02125;3.414583;65535.0;0.03125;0.041992;1.040039;0;0;177650;0;0;0
2024-11-07_09-30-01.381144;177623;-22.666626;18.375;0.02125;3.42;65535.0;0.029297;0.039062;1.041016;0;0;177928;0;0;0
2024-11-07_09-30-01.709735;177838;-21.333374;18.375;0.021667;3.425417;65535.0;0.02832;0.042969;1.038086;0;0;178152;0;0;0
2024-11-07_09-30-01.850699;178061;-22.666626;18.375;0.02125;3.435834;65535.0;0.029297;0.042969;1.039062;0;0;178424;0;0;0
2024-11-07_09-30-02.006965;178281;-25.333374;18.375;0.02125;3.43625;65535.0;0.029297;0.038086;1.03418;0;0;178590;0;0;0
2024-11-07_09-30-02.163614;178488;-21.333374;18.375;0.02125;3.446667;65535.0;0.02832;0.039062;1.036133;0;0;178739;0;0;0
2024-11-07_09-30-02.335489;178698;-22.666626;18.375;0.02125;3.447084;65535.0;0.02832;0.038086;1.030273;0;0;178909;0;0;0
2024-11-07_09-30-02.601112;178921;-22.666626;18.375;0.02125;3.457917;65535.0;0.02832;0.037109;1.040039;0;0;179174;0;0;0
2024-11-07_09-30-02.804529;179128;-20.0;18.375;0.02125;3.463333;65535.0;0.027344;0.043945;1.037109;0;0;179370;0;0;0
2024-11-07_09-30-03.023594;179350;-18.666626;18.375;0.02125;3.46875;65535.0;0.027344;0.039062;1.036133;0;0;179589;0;0;0
2024-11-07_09-30-03.336783;179573;-25.333374;18.375;0.021667;3.477917;65535.0;0.029297;0.043945;1.037109;0;0;179915;0;0;0
2024-11-07_09-30-03.414901;179791;-21.333374;18.375;0.02125;3.479584;65535.0;0.027344;0.041016;1.033203;0;0;179990;0;0;0
2024-11-07_09-30-03.619512;180017;-21.333374;18.375;0.02125;3.484584;65535.0;0.02832;0.042969;1.035156;0;0;180200;0;0;0
2024-11-07_09-30-03.839437;180252;-21.333374;18.375;3.495417;3.495417;65535.0;0.02832;0.040039;1.032227;0;0;180429;0;0;0
2024-11-07_09-30-03.901931;180252;-21.333374;18.375;3.495417;3.495417;65535.0;0.02832;0.040039;1.032227;0;0;180479;0;0;0
2024-11-07_09-30-04.245682;180484;-22.666626;18.375;0.02125;3.500834;65535.0;0.02832;0.038086;1.03418;0;0;180779;0;0;0
2024-11-07_09-30-04.433184;180698;-22.666626;18.4375;0.02125;3.510417;65535.0;0.029297;0.040039;1.030273;0;0;180999;0;0;0
2024-11-07_09-30-04.684511;180921;-22.666626;18.4375;0.02125;3.514584;65535.0;0.02832;0.035156;1.032227;0;0;181255;0;0;0
2024-11-07_09-30-04.966623;181363;-22.666626;18.375;0.02125;3.5275;65535.0;0.029297;0.03418;1.030273;0;0;181538;0;0;0
2024-11-07_09-30-05.247869;181568;-22.666626;18.4375;0.02125;3.5275;65535.0;0.02832;0.032227;1.020508;0;0;181829;0;0;0
2024-11-07_09-30-05.310363;181568;-22.666626;18.4375;0.02125;3.5275;65535.0;0.02832;0.032227;1.020508;0;0;181880;0;0;0
2024-11-07_09-30-05.498259;181781;-22.666626;18.375;0.02125;3.542917;65535.0;0.030273;0.033203;1.026367;0;0;182042;0;0;0
2024-11-07_09-30-05.623261;181998;-30.666626;18.4375;0.02125;3.54375;65535.0;0.029297;0.03125;1.025391;0;0;182198;0;0;0
2024-11-07_09-30-05.842780;182221;-21.333374;18.4375;0.02125;3.55125;65535.0;0.029297;0.032227;1.029297;0;0;182419;0;0;0
2024-11-07_09-30-05.922570;182221;-21.333374;18.4375;0.02125;3.55125;65535.0;0.029297;0.032227;1.029297;0;0;182500;0;0;0
2024-11-07_09-30-06.078062;182428;-22.666626;18.4375;0.02125;3.555417;65535.0;0.029297;0.03418;1.025391;0;0;182660;0;0;0
2024-11-07_09-30-06.298155;182640;-32.0;18.4375;0.021667;3.56375;65535.0;0.029297;0.035156;1.025391;0;0;182879;0;0;0
2024-11-07_09-30-06.517362;182863;-25.333374;18.4375;0.02125;3.567917;65535.0;0.030273;0.032227;1.026367;0;0;183088;0;0;0
2024-11-07_09-30-06.720484;183068;-18.666626;18.4375;0.02125;3.575001;65535.0;0.030273;0.03418;1.03125;0;0;183288;0;0;0
2024-11-07_09-30-06.861115;183292;-22.666626;18.4375;0.02125;3.58125;65535.0;0.03125;0.040039;1.02832;0;0;183440;0;0;0
2024-11-07_09-30-07.017360;183292;-22.666626;18.4375;0.02125;3.58125;65535.0;0.03125;0.040039;1.02832;0;0;183600;0;0;0
2024-11-07_09-30-07.174931;183498;-20.0;18.4375;0.02125;3.585417;65535.0;0.029297;0.041016;1.025391;0;0;183760;0;0;0
2024-11-07_09-30-07.409318;183717;-25.333374;18.4375;0.02125;3.592084;65535.0;0.030273;0.037109;1.029297;0;0;183976;0;0;0
2024-11-07_09-30-07.475362;183717;-25.333374;18.4375;0.02125;3.592084;65535.0;0.030273;0.037109;1.029297;0;0;184050;0;0;0
2024-11-07_09-30-07.692243;183952;-29.333374;18.4375;0.02125;3.597501;65535.0;0.029297;0.036133;1.037109;0;0;184267;0;0;0
2024-11-07_09-30-07.817953;184167;-20.0;18.4375;0.02125;3.602917;65535.0;0.032227;0.036133;1.039062;0;0;184366;0;0;0
2024-11-07_09-30-07.974599;184384;-30.666626;18.4375;0.02125;3.612083;65535.0;0.030273;0.037109;1.03418;0;0;184559;0;0;0
2024-11-07_09-30-08.194769;184588;-20.0;18.4375;0.021667;3.61375;65535.0;0.029297;0.03418;1.039062;0;0;184779;0;0;0
2024-11-07_09-30-08.257257;184588;-20.0;18.4375;0.021667;3.61375;65535.0;0.029297;0.03418;1.039062;0;0;184828;0;0;0
2024-11-07_09-30-08.491639;184801;-21.333374;18.4375;0.02125;3.619167;65535.0;0.03125;0.03418;1.030273;0;0;185069;0;0;0
2024-11-07_09-30-08.632427;185018;-30.666626;18.4375;0.02125;3.63;65535.0;0.03125;0.03418;1.035156;0;0;185219;0;0;0
2024-11-07_09-30-08.882711;185241;-22.666626;18.4375;0.02125;3.635;65535.0;0.03125;0.033203;1.03418;0;0;185449;0;0;0
2024-11-07_09-30-09.055664;185449;-21.333374;18.4375;0.02125;3.640417;65535.0;0.030273;0.033203;1.035156;0;0;185623;0;0;0
2024-11-07_09-30-09.213351;185449;-21.333374;18.4375;0.02125;3.640417;65535.0;0.030273;0.033203;1.035156;0;0;185789;0;0;0
2024-11-07_09-30-09.478560;185892;-21.333374;18.4375;0.02125;3.65125;65535.0;0.032227;0.038086;1.033203;0;0;186057;0;0;0
2024-11-07_09-30-09.666060;185892;-21.333374;18.4375;0.02125;3.65125;65535.0;0.032227;0.038086;1.033203;0;0;186250;0;0;0
2024-11-07_09-30-09.822664;186112;-25.333374;18.4375;0.021667;3.656667;65535.0;0.02832;0.03125;1.023438;0;0;186400;0;0;0
2024-11-07_09-30-10.150791;186551;-21.333374;18.4375;0.021667;3.67125;65535.0;0.029297;0.039062;1.038086;0;0;186729;0;0;0
2024-11-07_09-30-10.324755;186551;-21.333374;18.4375;0.021667;3.67125;65535.0;0.029297;0.039062;1.038086;0;0;186891;0;0;0
2024-11-07_09-30-10.606311;186991;-17.333374;18.4375;0.02125;3.678333;65535.0;0.030273;0.033203;1.033203;0;0;187187;0;0;0
2024-11-07_09-30-10.763000;186991;-17.333374;18.4375;0.02125;3.678333;65535.0;0.030273;0.033203;1.033203;0;0;187339;0;0;0
2024-11-07_09-30-10.919938;187208;-18.666626;18.4375;0.02125;3.689167;65535.0;0.030273;0.037109;1.033203;0;0;187504;0;0;0
2024-11-07_09-30-11.263696;187654;-22.666626;18.4375;0.02125;3.699584;65535.0;0.032227;0.033203;1.033203;0;0;187849;0;0;0
2024-11-07_09-30-11.529889;187881;-32.0;18.4375;0.021667;3.71;65535.0;0.029297;0.035156;1.035156;0;0;188080;0;0;0
2024-11-07_09-30-11.764979;188102;-21.333374;18.4375;0.021667;3.710417;65535.0;0.030273;0.038086;1.039062;0;0;188339;0;0;0
2024-11-07_09-30-11.874691;188102;-21.333374;18.4375;0.021667;3.710417;65535.0;0.030273;0.038086;1.039062;0;0;188448;0;0;0
2024-11-07_09-30-12.109770;188318;-17.333374;18.4375;0.02125;3.72125;65535.0;0.030273;0.033203;1.030273;0;0;188675;0;0;0
2024-11-07_09-30-12.172414;188540;-25.333374;18.4375;0.021667;3.722083;65535.0;0.033203;0.039062;1.036133;0;0;188750;0;0;0
2024-11-07_09-30-12.328657;188758;-17.333374;18.4375;0.02125;3.731667;65535.0;0.029297;0.033203;1.018555;0;0;188910;0;0;0
2024-11-07_09-30-12.469278;188758;-17.333374;18.4375;0.02125;3.731667;65535.0;0.029297;0.033203;1.018555;0;0;189059;0;0;0
2024-11-07_09-30-12.690243;188970;-22.666626;18.4375;0.02125;3.737084;65535.0;0.030273;0.037109;1.023438;0;0;189229;0;0;0
2024-11-07_09-30-12.832933;189180;-25.333374;18.5;0.02125;3.747917;65535.0;0.03125;0.037109;1.030273;0;0;189410;0;0;0
2024-11-07_09-30-13.053126;189398;-18.666626;18.5;0.02125;3.750834;65535.0;0.030273;0.033203;1.02832;0;0;189629;0;0;0
2024-11-07_09-30-13.239669;189621;-30.666626;18.4375;0.02125;3.75625;65535.0;0.029297;0.03418;1.022461;0;0;189804;0;0;0
2024-11-07_09-30-13.494412;189838;-18.666626;18.4375;0.02125;3.761667;65535.0;0.030273;0.033203;1.025391;0;0;190079;0;0;0
2024-11-07_09-30-13.573781;189838;-18.666626;18.4375;0.02125;3.761667;65535.0;0.030273;0.033203;1.025391;0;0;190150;0;0;0
2024-11-07_09-30-13.731198;190051;-17.333374;18.5;0.021667;3.770833;65535.0;0.02832;0.03418;1.015625;0;0;190310;0;0;0
2024-11-07_09-30-14.033028;190268;-22.666626;18.5;0.02125;3.772084;65535.0;0.030273;0.03125;1.016602;0;0;190584;0;0;0
2024-11-07_09-30-14.303361;190710;-21.333374;18.4375;0.02125;3.782917;65535.0;0.027344;0.03418;1.021484;0;0;190879;0;0;0
2024-11-07_09-30-14.461766;190710;-21.333374;18.4375;0.02125;3.782917;65535.0;0.027344;0.03418;1.021484;0;0;191044;0;0;0
2024-11-07_09-30-14.534207;190932;-21.333374;18.5;0.02125;3.793333;65535.0;0.032227;0.038086;1.024414;0;0;191109;0;0;0
2024-11-07_09-30-14.744230;191157;-18.666626;18.5;0.02125;3.796667;65535.0;0.029297;0.035156;1.025391;0;0;191330;0;0;0
2024-11-07_09-30-14.917109;191157;-18.666626;18.5;0.02125;3.796667;65535.0;0.029297;0.035156;1.025391;0;0;191497;0;0;0
2024-11-07_09-30-14.963983;191393;-30.666626;18.5;0.021667;3.804167;65535.0;0.029297;0.03418;1.020508;0;0;191550;0;0;0
2024-11-07_09-30-15.278089;191621;-21.333374;18.5;0.02125;3.814584;65535.0;0.029297;0.032227;1.020508;0;0;191845;0;0;0
2024-11-07_09-30-15.654659;192048;-22.666626;18.5;0.021667;3.821667;65535.0;0.030273;0.035156;1.027344;0;0;192239;0;0;0
2024-11-07_09-30-15.764495;192048;-22.666626;18.5;0.021667;3.821667;65535.0;0.030273;0.035156;1.027344;0;0;192338;0;0;0
2024-11-07_09-30-15.920755;192271;-16.0;18.5;0.021667;3.825417;65535.0;0.025391;0.035156;1.017578;0;0;192509;0;0;0
2024-11-07_09-30-16.217970;192478;-25.333374;18.5;0.021667;3.835834;65535.0;0.02832;0.032227;1.022461;0;0;192785;0;0;0
2024-11-07_09-30-16.579524;192911;-16.0;18.5;0.02125;3.846251;65535.0;0.030273;0.035156;1.021484;0;0;193144;0;0;0
2024-11-07_09-30-16.750016;193130;-21.333374;18.5;0.021667;3.846667;65535.0;0.029297;0.035156;1.022461;0;0;193313;0;0;0
2024-11-07_09-30-16.922169;193130;-21.333374;18.5;0.021667;3.846667;65535.0;0.029297;0.035156;1.022461;0;0;193494;0;0;0
2024-11-07_09-30-17.062732;193352;-18.666626;18.5;0.02125;3.857083;65535.0;0.030273;0.035156;1.02832;0;0;193648;0;0;0
2024-11-07_09-30-17.156600;193568;-18.666626;18.5;0.02125;3.857083;65535.0;0.029297;0.03125;1.021484;0;0;193739;0;0;0
2024-11-07_09-30-17.391172;193793;-22.666626;18.5;0.02125;3.867917;65535.0;0.02832;0.037109;1.018555;0;0;193969;0;0;0
2024-11-07_09-30-17.501106;193793;-22.666626;18.5;0.02125;3.867917;65535.0;0.02832;0.037109;1.018555;0;0;194068;0;0;0
2024-11-07_09-30-17.783677;193998;-20.0;18.5;0.021667;3.871667;65535.0;0.029297;0.035156;1.021484;0;0;194357;0;0;0
2024-11-07_09-30-18.002891;194208;-22.666626;18.5;0.021667;3.875;65535.0;0.029297;0.03418;1.019531;0;0;194548;0;0;0
2024-11-07_09-30-18.174770;194430;-21.333374;18.5;0.02125;3.88375;65535.0;0.029297;0.037109;1.020508;0;0;194746;0;0;0
2024-11-07_09-30-18.393521;194638;-18.666626;18.5;0.021667;3.88375;65535.0;0.030273;0.036133;1.024414;0;0;194969;0;0;0
2024-11-07_09-30-18.832868;195096;-17.333374;18.5;0.021667;3.9;65535.0;0.03125;0.035156;1.027344;0;0;195409;0;0;0
2024-11-07_09-30-18.894918;195096;-17.333374;18.5;0.021667;3.9;65535.0;0.03125;0.035156;1.027344;0;0;195467;0;0;0
2024-11-07_09-30-19.176457;195551;-21.333374;18.5;0.021667;3.804167;65535.0;0.029297;0.033203;1.021484;0;0;195748;0;0;0
2024-11-07_09-30-19.553155;195771;-20.0;18.5;0.02125;3.809584;65535.0;0.03125;0.035156;1.025391;0;0;196100;0;0;0
2024-11-07_09-30-19.676961;195988;-25.333374;18.5;0.02125;3.814584;65535.0;0.029297;0.03418;1.032227;0;0;196260;0;0;0
2024-11-07_09-30-19.944516;196210;-25.333374;18.5;0.02125;3.82;65535.0;0.026367;0.035156;1.029297;0;0;196518;0;0;0
2024-11-07_09-30-19.991303;196418;-17.333374;18.5;0.021667;3.825417;65535.0;0.02832;0.037109;1.032227;0;0;196574;0;0;0
2024-11-07_09-30-20.164207;196418;-17.333374;18.5;0.021667;3.825417;65535.0;0.02832;0.037109;1.032227;0;0;196743;0;0;0
2024-11-07_09-30-20.304833;196641;-25.333374;18.5;0.021667;3.830833;65535.0;0.030273;0.036133;1.026367;0;0;196880;0;0;0
2024-11-07_09-30-20.618429;196860;-25.333374;18.5;0.021667;3.84125;65535.0;0.030273;0.035156;1.022461;0;0;197156;0;0;0
2024-11-07_09-30-20.774686;197081;-22.666626;18.5;0.02125;3.845417;65535.0;0.029297;0.03418;1.030273;0;0;197348;0;0;0
2024-11-07_09-30-21.071555;197498;-17.333374;18.5625;0.021667;3.855;65535.0;0.02832;0.036133;1.029297;0;0;197652;0;0;0
2024-11-07_09-30-21.228510;197498;-17.333374;18.5625;0.021667;3.855;65535.0;0.02832;0.036133;1.029297;0;0;197820;0;0;0
2024-11-07_09-30-21.572599;197938;-30.666626;18.5;0.021667;3.867917;65535.0;0.02832;0.030273;1.026367;0;0;198149;0;0;0
2024-11-07_09-30-21.746795;198161;-21.333374;18.5;0.02125;3.878333;65535.0;0.02832;0.036133;1.026367;0;0;198311;0;0;0
2024-11-07_09-30-21.965540;198371;-22.666626;18.5;0.024583;3.88;65535.0;0.029297;0.033203;1.026367;0;0;198550;0;0;0
2024-11-07_09-30-22.137911;198371;-22.666626;18.5;0.024583;3.88;65535.0;0.029297;0.033203;1.026367;0;0;198721;0;0;0
2024-11-07_09-30-22.184797;198595;-29.333374;18.5;0.079583;3.88375;65535.0;0.030273;0.036133;1.030273;0;0;198770;0;0;0
2024-11-07_09-30-22.434789;198835;-17.333374;18.5625;0.19125;3.883333;65535.0;0.030273;0.030273;1.032227;0;0;199008;0;0;0
2024-11-07_09-30-22.497629;198835;-17.333374;18.5625;0.19125;3.883333;65535.0;0.030273;0.030273;1.032227;0;0;199080;0;0;0
2024-11-07_09-30-22.655698;199060;-22.666626;18.5625;0.295;3.878333;65535.0;0.032227;0.035156;1.041992;0;0;199240;0;0;0
2024-11-07_09-30-22.891887;199282;-30.666626;18.5;0.350833;3.88625;65535.0;0.030273;0.03125;1.030273;0;0;199461;0;0;0
2024-11-07_09-30-23.079893;199282;-30.666626;18.5;0.350833;3.88625;65535.0;0.030273;0.03125;1.030273;0;0;199641;0;0;0
2024-11-07_09-30-23.145585;199502;-21.333374;18.5;0.430833;3.88375;65535.0;0.03125;0.03418;1.036133;0;0;199718;0;0;0
2024-11-07_09-30-23.315195;199721;-30.666626;18.5625;0.500833;3.885;65535.0;0.030273;0.035156;1.036133;0;0;199899;0;0;0
2024-11-07_09-30-23.534223;199942;-25.333374;18.5625;0.527917;3.885417;65535.0;0.02832;0.03418;1.03125;0;0;200118;0;0;0
2024-11-07_09-30-23.598548;199942;-25.333374;18.5625;0.527917;3.885417;65535.0;0.02832;0.03418;1.03125;0;0;200167;0;0;0
2024-11-07_09-30-23.742826;200148;-25.333374;18.5;0.539583;3.894167;65535.0;0.029297;0.033203;1.032227;0;0;200320;0;0;0
2024-11-07_09-30-23.894515;200148;-25.333374;18.5;0.539583;3.894167;65535.0;0.029297;0.033203;1.032227;0;0;200470;0;0;0
2024-11-07_09-30-24.051407;200358;-25.333374;18.5625;0.549167;3.899167;65535.0;0.030273;0.036133;1.033203;0;0;200630;0;0;0
2024-11-07_09-30-24.240240;200581;-22.666626;18.5;0.585417;3.900417;65535.0;0.02832;0.033203;1.029297;0;0;200803;0;0;0
2024-11-07_09-30-24.835619;201228;-20.0;18.5;0.654167;3.911667;65535.0;0.025391;0.032227;1.024414;0;0;201420;0;0;0
2024-11-07_09-30-25.039331;201453;-16.0;18.5625;0.665;3.915417;65535.0;0.027344;0.032227;1.016602;0;0;201629;0;0;0
2024-11-07_09-30-25.149792;201453;-16.0;18.5625;0.665;3.915417;65535.0;0.027344;0.032227;1.016602;0;0;201728;0;0;0
2024-11-07_09-30-25.384589;201658;-16.0;18.5625;0.67625;3.920834;65535.0;0.025391;0.033203;1.022461;0;0;201960;0;0;0
2024-11-07_09-30-25.556782;201868;-16.0;18.5625;0.691667;3.924583;65535.0;0.027344;0.032227;1.03125;0;0;202130;0;0;0
2024-11-07_09-30-25.625873;201868;-16.0;18.5625;0.691667;3.924583;65535.0;0.027344;0.032227;1.03125;0;0;202200;0;0;0
2024-11-07_09-30-25.777596;202103;-18.666626;18.5625;0.707917;3.93125;65535.0;0.027344;0.033203;1.032227;0;0;202353;0;0;0
2024-11-07_09-30-25.949896;202315;-10.666626;18.5625;0.72375;3.927917;65535.0;0.026367;0.029297;1.032227;0;0;202507;0;0;0
2024-11-07_09-30-26.090526;202315;-10.666626;18.5625;0.72375;3.927917;65535.0;0.026367;0.029297;1.032227;0;0;202671;0;0;0
2024-11-07_09-30-26.293645;202536;-10.666626;18.5625;0.734583;3.93875;65535.0;0.025391;0.032227;1.027344;0;0;202873;0;0;0
2024-11-07_09-30-26.403016;202756;-8.0;18.5625;0.74;3.942083;65535.0;0.026367;0.035156;1.02832;0;0;202980;0;0;0
2024-11-07_09-30-26.778710;203188;-2.666626;18.5625;0.750833;3.9475;65535.0;0.027344;0.039062;1.032227;0;0;203369;0;0;0
2024-11-07_09-30-26.952826;203188;-2.666626;18.5625;0.750833;3.9475;65535.0;0.027344;0.039062;1.032227;0;0;203535;0;0;0
2024-11-07_09-30-27.187616;203412;-2.666626;18.5625;0.751667;3.958333;65535.0;0.023438;0.036133;1.032227;0;0;203720;0;0;0
2024-11-07_09-30-27.453242;203852;-1.333374;18.5625;0.755833;3.968333;65535.0;0.025391;0.035156;1.035156;0;0;204029;0;0;0
2024-11-07_09-30-27.609815;203852;-1.333374;18.5625;0.755833;3.968333;65535.0;0.025391;0.035156;1.035156;0;0;204194;0;0;0
2024-11-07_09-30-27.672188;204072;2.666626;18.5625;0.755833;3.96875;65535.0;0.025391;0.037109;1.03125;0;0;204247;0;0;0
2024-11-07_09-30-27.813377;204072;2.666626;18.5625;0.755833;3.96875;65535.0;0.025391;0.037109;1.03125;0;0;204390;0;0;0
2024-11-07_09-30-27.971452;204288;2.666626;18.5625;0.76125;3.979167;65535.0;0.027344;0.03418;1.027344;0;0;204550;0;0;0
2024-11-07_09-30-28.175213;204498;0.0;18.5625;0.76125;3.979167;65535.0;0.023438;0.033203;1.027344;0;0;204738;0;0;0
2024-11-07_09-30-28.362723;204711;2.666626;18.5625;0.766667;3.984584;65535.0;0.025391;0.036133;1.030273;0;0;204925;0;0;0
2024-11-07_09-30-28.709198;204929;4.0;18.5625;0.766667;3.993334;65535.0;0.023438;0.036133;1.022461;0;0;205251;0;0;0
2024-11-07_09-30-28.937304;205151;4.0;18.5625;0.772083;3.995;65535.0;0.024414;0.037109;1.019531;0;0;205518;0;0;0
2024-11-07_09-30-29.055163;205368;8.0;18.625;0.772083;4.000417;65535.0;0.025391;0.035156;1.024414;0;0;205640;0;0;0
2024-11-07_09-30-29.211831;205590;8.0;18.5625;0.7775;4.005833;65535.0;0.024414;0.032227;1.019531;0;0;205789;0;0;0
2024-11-07_09-30-29.430679;205798;2.666626;18.5625;0.782917;4.010833;65535.0;0.026367;0.03125;1.015625;0;0;206010;0;0;0
2024-11-07_09-30-29.524856;205798;2.666626;18.5625;0.782917;4.010833;65535.0;0.026367;0.03125;1.015625;0;0;206110;0;0;0
2024-11-07_09-30-29.696748;206019;10.666626;18.5625;0.787917;4.01125;65535.0;0.025391;0.030273;1.017578;0;0;206283;0;0;0
2024-11-07_09-30-29.884489;206252;10.666626;18.5625;0.793333;4.021667;65535.0;0.024414;0.03418;1.020508;0;0;206456;0;0;0
2024-11-07_09-30-30.103239;206468;12.0;18.5625;0.793333;4.021667;65535.0;0.024414;0.033203;1.014648;0;0;206689;0;0;0
2024-11-07_09-30-30.150516;206468;12.0;18.5625;0.793333;4.021667;65535.0;0.024414;0.033203;1.014648;0;0;206729;0;0;0
2024-11-07_09-30-30.511915;206911;10.666626;18.5625;0.79875;4.035417;65535.0;0.029297;0.03125;1.018555;0;0;207078;0;0;0
