datetime;time;load_cell;board_temperature;pressure_macki;pressure_tank;distance;acc_x;acc_y;acc_z;motor1_speed;motor2_speed;procedure_time;mechanical_state;motor1_temperature;motor2_temperature
2024-11-05_11-18-50.675005;495490;21.333374;24.3125;0.021667;3.375834;96.0;0.085938;0.018555;1.228516;-60000;-60000;495698;0;0;0
2024-11-05_11-18-50.832225;495770;66.666748;24.25;0.486667;3.39875;91.0;0.057617;0.021484;1.030273;20000;20000;495864;1;0;0
2024-11-05_11-18-51.004344;495907;90.666748;24.25;0.355417;3.553334;93.0;0.039062;0.033203;0.895508;20000;20000;496024;0;0;0
2024-11-05_11-18-51.145646;496051;104.0;24.25;0.115417;3.371667;92.0;0.033203;0.037109;0.791016;20000;20000;496173;0;0;0
2024-11-05_11-18-51.302031;496197;120.0;24.25;0.108333;3.402917;92.0;0.023438;0.040039;0.678711;20000;20000;496332;0;0;0
2024-11-05_11-18-51.490157;496342;140.0;24.25;0.09125;3.402917;95.0;0.021484;0.042969;0.612305;20000;20000;496502;0;0;0
2024-11-05_11-18-51.646882;496490;150.666748;24.25;0.117083;3.380833;97.0;0.014648;0.040039;0.5;20000;20000;496649;0;0;0
2024-11-05_11-18-51.787505;496627;166.666748;24.25;0.04625;3.3725;96.0;0.005859;0.033203;0.378906;20000;20000;496804;0;0;0
2024-11-05_11-18-51.944933;496771;181.333252;24.25;0.021667;3.370417;95.0;0.003906;0.03418;0.31543;20000;20000;496965;0;0;0
2024-11-05_11-18-52.257621;497057;192.0;24.25;0.021667;3.370417;94.0;0.001953;0.032227;0.219727;20000;20000;497274;0;0;0
2024-11-05_11-18-52.461407;497339;208.0;24.25;0.021667;3.370417;92.0;-0.00293;0.033203;0.119141;20000;20000;497488;0;0;0
2024-11-05_11-18-52.586478;497482;210.666748;24.25;0.021667;3.370417;94.0;0.0;0.029297;0.109375;20000;20000;497613;0;0;0
2024-11-05_11-18-52.766998;497629;216.0;24.25;0.021667;3.370417;96.0;-0.000977;0.029297;0.087891;1000;1000;142;0;0;0
2024-11-05_11-18-52.883938;497774;-22.666626;24.25;0.050833;3.375417;93.0;-0.000977;0.035156;0.075195;1166;1166;272;0;0;0
2024-11-05_11-18-53.071825;497907;-20.0;24.25;0.116667;3.397917;93.0;-0.001953;0.026367;0.058594;1500;1500;450;0;0;0
2024-11-05_11-18-53.213203;498066;-21.333374;24.25;0.105833;3.382917;93.0;-0.000977;0.027344;0.046875;1833;1833;601;0;0;0
2024-11-05_11-18-53.386048;498213;-18.666626;24.25;0.094583;3.3825;93.0;-0.003906;0.027344;0.033203;2333;2333;761;0;0;0
2024-11-05_11-18-53.511043;498367;-20.0;24.25;0.085833;3.385834;97.0;-0.00293;0.030273;0.030273;3000;3000;911;0;0;0
2024-11-05_11-18-53.682956;498509;-17.333374;24.25;0.0875;3.370833;95.0;-0.00293;0.026367;0.030273;3666;3666;1071;0;0;0
2024-11-05_11-18-53.808287;498653;-18.666626;24.25;0.10625;3.392083;95.0;-0.007812;0.029297;0.011719;4666;4666;1198;0;2;2
2024-11-05_11-18-53.969900;498800;-17.333374;24.25;0.10875;3.392083;97.0;-0.000977;0.029297;0.025391;6000;6000;1362;0;2;2
2024-11-05_11-18-54.136680;498937;-21.333374;24.25;0.117917;3.385834;98.0;-0.005859;0.03418;0.035156;6666;6666;1522;0;0;0
2024-11-05_11-18-54.283552;499213;-17.333374;24.25;0.099583;3.38625;100.0;-0.007812;0.030273;0.020508;8000;8000;1668;0;0;0
2024-11-05_11-18-54.435183;499352;-18.666626;24.25;0.112917;3.370833;103.0;-0.005859;0.02832;0.032227;10666;10666;1827;0;0;0
2024-11-05_11-18-54.607085;499497;-17.333374;24.25;0.141667;3.385834;102.0;-0.005859;0.03125;0.02832;12000;12000;1991;0;0;0
2024-11-05_11-18-54.873418;499777;-16.0;24.25;0.092917;3.38375;106.0;-0.010742;0.03125;0.015625;16000;16000;2251;0;2;0
2024-11-05_11-18-55.170549;500057;-17.333374;24.25;0.097083;3.370833;111.0;-0.007812;0.030273;0.013672;24000;24000;2570;0;0;0
2024-11-05_11-18-55.405321;500201;-16.0;24.25;0.095833;3.384583;115.0;-0.009766;0.026367;0.013672;26666;26666;2791;0;0;0
2024-11-05_11-18-55.577195;500485;-16.0;24.25;0.104583;3.394167;122.0;-0.007812;0.026367;0.004883;32000;32000;2946;0;0;0
2024-11-05_11-18-55.734230;500622;-18.666626;24.25;0.05;3.370417;129.0;-0.008789;0.025391;0.009766;42666;42666;3122;0;0;0
2024-11-05_11-18-55.891449;500768;-18.666626;24.25;0.116667;3.379583;136.0;-0.006836;0.026367;0.014648;48000;48000;3262;0;0;0
2024-11-05_11-18-56.033468;500909;-18.666626;24.25;0.095;3.370417;144.0;-0.007812;0.025391;0.011719;58666;58666;3422;0;0;0
2024-11-05_11-18-56.190344;501040;-17.333374;24.25;0.053333;3.377917;151.0;-0.007812;0.02832;0.004883;64000;64000;3576;0;0;0
2024-11-05_11-18-56.535231;501473;-22.666626;24.25;0.09625;3.370417;187.0;-0.007812;0.020508;0.000977;64000;64000;3931;0;0;0
2024-11-05_11-18-56.707263;501623;-20.0;24.25;0.057917;3.370833;195.0;-0.014648;0.020508;0.004883;64000;64000;4101;0;0;0
2024-11-05_11-18-56.816639;501623;-20.0;24.25;0.057917;3.370833;195.0;-0.014648;0.020508;0.004883;45000;45000;4202;0;0;0
2024-11-05_11-18-56.941636;501770;-30.666626;24.25;0.07625;3.362917;211.0;-0.011719;0.018555;0.000977;7000;7000;4330;0;0;0
2024-11-05_11-18-57.114075;501907;-21.333374;24.25;0.6975;3.442917;211.0;-0.011719;0.021484;0.011719;-50000;-50000;4496;0;0;0
2024-11-05_11-18-57.254719;502199;-16.0;24.25;0.747083;3.21125;198.0;-0.008789;0.020508;0.001953;-50000;-50000;4642;0;0;0
2024-11-05_11-18-57.412059;502199;-16.0;24.25;0.747083;3.21125;198.0;-0.008789;0.020508;0.001953;-50000;-50000;4791;0;0;0
2024-11-05_11-18-57.584400;502490;10.666626;24.25;0.890833;3.195;182.0;-0.013672;0.023438;0.013672;-50000;-50000;4981;0;0;0
2024-11-05_11-18-57.756835;502627;18.666626;24.25;0.934583;3.19375;174.0;-0.017578;0.020508;-0.001953;-50000;-50000;5140;0;0;0
2024-11-05_11-18-57.913125;502770;38.666626;24.25;0.945;3.187917;167.0;-0.013672;0.023438;0.017578;-50000;-50000;5301;0;0;0
2024-11-05_11-18-58.022872;502917;50.666748;24.25;1.01875;3.1875;157.0;-0.014648;0.020508;0.012695;-50000;-50000;5411;0;0;0
2024-11-05_11-18-58.211516;503060;65.333252;24.25;1.009583;3.178333;147.0;-0.014648;0.023438;0.016602;-50000;-50000;5580;0;0;0
2024-11-05_11-18-58.369045;503199;64.0;24.25;1.041667;3.19375;141.0;-0.011719;0.018555;0.02832;-50000;-50000;5742;0;0;0
2024-11-05_11-18-58.511198;503340;69.333252;24.25;1.045;3.187917;132.0;-0.016602;0.017578;0.017578;-50000;-50000;5900;0;0;0
2024-11-05_11-18-58.681964;503481;53.333252;24.25;1.0525;3.188334;123.0;-0.012695;0.015625;0.03418;-60000;-60000;6061;0;0;0
2024-11-05_11-18-58.901700;503773;38.666626;24.25;0.912917;3.178333;106.0;-0.013672;0.015625;0.024414;-60000;-60000;6291;0;0;0
2024-11-05_11-18-58.995674;503919;-2.666626;24.1875;0.82875;3.192083;95.0;-0.016602;0.015625;0.023438;-60000;-60000;6379;0;0;0
2024-11-05_11-18-59.185195;504060;-16.0;24.25;0.729167;3.2;89.0;-0.013672;0.014648;0.022461;20000;20000;6565;1;0;0
2024-11-05_11-18-59.293506;504216;-13.333374;24.25;1.037917;3.419584;88.0;-0.017578;0.017578;0.037109;20000;20000;6692;1;0;0
2024-11-05_11-18-59.434577;504363;-16.0;24.25;0.81875;3.2225;92.0;-0.005859;0.014648;0.101562;20000;20000;6823;1;0;0
2024-11-05_11-18-59.606976;504496;-17.333374;24.25;0.82625;3.362083;94.0;-0.013672;0.022461;0.022461;20000;20000;6994;0;0;0
2024-11-05_11-18-59.748306;504627;-20.0;24.25;0.214167;3.190417;95.0;-0.016602;0.021484;0.025391;20000;20000;7140;0;0;0
2024-11-05_11-18-59.904555;504770;-18.666626;24.1875;0.102083;3.194584;94.0;-0.014648;0.022461;0.027344;20000;20000;7301;0;0;0
2024-11-05_11-19-00.060834;504920;-17.333374;24.25;0.103333;3.180417;92.0;-0.014648;0.026367;0.035156;20000;20000;7461;0;0;0
2024-11-05_11-19-00.342825;505201;-17.333374;24.25;0.025;3.183333;93.0;-0.016602;0.03125;0.032227;20000;20000;7729;0;0;0
2024-11-05_11-19-00.562255;505487;-16.0;24.1875;0.021667;3.183333;92.0;-0.016602;0.02832;0.035156;20000;20000;7939;0;0;0
2024-11-05_11-19-00.718453;505632;-18.666626;24.25;0.021667;3.190833;94.0;-0.017578;0.023438;0.027344;1000;1000;61;0;0;0
2024-11-05_11-19-00.874905;505777;-18.666626;24.25;0.060417;3.184167;95.0;-0.016602;0.02832;0.026367;1333;1333;238;0;0;0
2024-11-05_11-19-01.015524;505920;-17.333374;24.25;0.125833;3.20375;94.0;-0.018555;0.029297;0.026367;1666;1666;380;0;0;0
2024-11-05_11-19-01.172732;506058;-20.0;24.25;0.131667;3.202917;96.0;-0.016602;0.03125;0.032227;2000;2000;531;0;0;0
2024-11-05_11-19-01.328379;506200;-17.333374;24.1875;0.09375;3.187083;96.0;-0.015625;0.027344;0.027344;2666;2666;690;0;0;0
2024-11-05_11-19-01.485540;506339;-16.0;24.25;0.070833;3.195;96.0;-0.018555;0.030273;0.027344;3333;3333;840;0;0;0
2024-11-05_11-19-01.626177;506480;-16.0;24.1875;0.12875;3.205417;95.0;-0.016602;0.029297;0.023438;4000;4000;991;0;0;0
2024-11-05_11-19-01.923899;506623;-18.666626;24.25;0.135417;3.194584;96.0;-0.015625;0.030273;0.021484;5333;5333;1157;0;0;0
2024-11-05_11-19-02.096791;507040;-20.0;24.25;3.19625;3.19875;98.0;-0.017578;0.030273;0.012695;7333;7333;1454;0;0;0
2024-11-05_11-19-02.268947;507171;-17.333374;24.25;0.05875;3.197917;101.0;-0.019531;0.032227;0.016602;9333;9333;1620;0;0;0
2024-11-05_11-19-02.435803;507323;-13.333374;24.1875;0.111667;3.2025;103.0;-0.017578;0.02832;0.012695;10666;10666;1783;0;0;0
2024-11-05_11-19-02.565917;507472;-16.0;24.1875;0.081667;3.195417;103.0;-0.018555;0.032227;0.006836;12000;12000;1921;0;0;0
2024-11-05_11-19-02.707320;507622;-18.666626;24.25;0.109167;3.196667;105.0;-0.016602;0.029297;0.011719;14666;14666;2071;0;0;0
2024-11-05_11-19-02.879197;507769;-16.0;24.1875;3.189584;3.18875;105.0;-0.015625;0.03125;0.003906;18666;18666;2231;0;2;0
2024-11-05_11-19-03.051072;507910;-13.333374;24.1875;3.19125;3.189167;109.0;-0.018555;0.03125;0.013672;21333;21333;2410;0;0;0
2024-11-05_11-19-03.285755;508190;-16.0;24.25;0.080417;3.199167;114.0;-0.017578;0.03125;0.010742;26666;26666;2632;0;0;0
2024-11-05_11-19-03.584418;508467;-10.666626;24.1875;0.120417;3.193334;123.0;-0.018555;0.030273;0.003906;32000;32000;2951;0;0;0
2024-11-05_11-19-03.709419;508610;-16.0;24.1875;0.077917;3.19;130.0;-0.017578;0.03125;0.004883;37333;37333;3070;0;0;0
2024-11-05_11-19-03.881689;508747;-13.333374;24.1875;0.084583;3.189167;133.0;-0.018555;0.03125;0.000977;48000;48000;3219;0;0;0
2024-11-05_11-19-04.085324;508892;-16.0;24.1875;0.080833;3.18875;146.0;-0.017578;0.03125;0.013672;58666;58666;3449;0;0;0
2024-11-05_11-19-04.304664;509180;-21.333374;24.1875;0.10375;3.195417;161.0;-0.017578;0.02832;0.008789;64000;64000;3660;0;0;0
2024-11-05_11-19-04.445955;509317;-18.666626;24.1875;0.099167;3.199583;175.0;-0.017578;0.029297;0.005859;64000;64000;3800;0;0;0
2024-11-05_11-19-04.602537;509460;-22.666626;24.1875;0.082917;3.19625;182.0;-0.017578;0.02832;0.001953;64000;64000;3960;0;0;0
2024-11-05_11-19-04.774880;509599;-18.666626;24.25;0.055;3.18875;198.0;-0.016602;0.032227;0.006836;64000;64000;4110;0;0;0
2024-11-05_11-19-04.931539;509740;-22.666626;24.25;0.04125;3.18875;206.0;-0.019531;0.032227;0.004883;64000;64000;4258;0;0;0
2024-11-05_11-19-05.072324;510011;-32.0;24.1875;0.62125;3.37125;220.0;-0.018555;0.029297;0.008789;-12000;-12000;4440;0;0;0
2024-11-05_11-19-05.228586;510011;-32.0;24.1875;0.62125;3.37125;220.0;-0.018555;0.029297;0.008789;-50000;-50000;4581;0;0;0
2024-11-05_11-19-05.385251;510164;-36.0;24.1875;0.703333;3.05375;213.0;-0.019531;0.027344;0.009766;-50000;-50000;4730;0;0;0
2024-11-05_11-19-05.542183;510463;30.666626;24.1875;0.819167;3.04375;194.0;-0.018555;0.030273;0.021484;-50000;-50000;4900;0;0;0
2024-11-05_11-19-05.682813;510599;78.666748;24.1875;0.885833;3.044167;189.0;-0.018555;0.03125;0.011719;-50000;-50000;5050;0;0;0
2024-11-05_11-19-05.839057;510742;102.666748;24.25;0.93;3.047084;181.0;-0.017578;0.027344;0.013672;-50000;-50000;5200;0;0;0
2024-11-05_11-19-06.027074;510887;118.666748;24.25;0.97375;3.048333;172.0;-0.020508;0.029297;0.013672;-50000;-50000;5373;0;0;0
2024-11-05_11-19-06.277144;511170;186.666748;24.1875;1.024167;3.072083;154.0;-0.019531;0.03125;0.018555;-50000;-50000;5636;0;0;0
2024-11-05_11-19-06.590729;511451;238.666748;24.25;1.05;3.078334;135.0;-0.018555;0.02832;0.02832;-50000;-50000;5948;0;0;0
2024-11-05_11-19-06.809929;511737;206.666748;24.25;1.0175;3.087084;120.0;-0.021484;0.03125;0.022461;-60000;-60000;6157;0;0;0
2024-11-05_11-19-06.966636;511885;142.666748;24.1875;0.892083;3.097917;110.0;-0.021484;0.030273;0.030273;-60000;-60000;6330;0;0;0
2024-11-05_11-19-07.107168;512030;81.333252;24.1875;0.769583;3.109584;103.0;-0.020508;0.030273;0.022461;-60000;-60000;6460;0;0;0
2024-11-05_11-19-07.263915;512167;28.0;24.25;0.71375;3.115833;90.0;-0.019531;0.029297;0.02832;20000;20000;6620;1;0;0
2024-11-05_11-19-07.404770;512310;-13.333374;24.25;0.925417;3.226667;93.0;-0.019531;0.02832;0.026367;20000;20000;6770;0;0;0
2024-11-05_11-19-07.561906;512447;-16.0;24.25;0.515;3.12875;94.0;-0.019531;0.029297;0.030273;20000;20000;6930;0;0;0
2024-11-05_11-19-07.733799;512590;-16.0;24.1875;0.403333;3.137083;92.0;-0.019531;0.02832;0.022461;20000;20000;7090;0;0;0
2024-11-05_11-19-08.109576;513010;-13.333374;24.25;0.06125;3.150417;92.0;-0.017578;0.029297;0.025391;20000;20000;7460;0;0;0
2024-11-05_11-19-08.212279;513010;-13.333374;24.25;0.06125;3.150417;92.0;-0.017578;0.029297;0.025391;20000;20000;7559;0;0;0
2024-11-05_11-19-08.564380;513433;-8.0;24.25;0.021667;3.1675;93.0;-0.022461;0.029297;0.017578;20000;20000;7911;0;0;0
2024-11-05_11-19-08.658154;513568;-13.333374;24.25;0.021667;3.1725;95.0;-0.020508;0.027344;0.020508;20000;20000;8020;0;0;0
2024-11-05_11-19-08.830550;513696;-16.0;24.25;0.021667;3.17625;92.0;-0.022461;0.027344;0.018555;1000;1000;19;0;0;0
2024-11-05_11-19-08.986969;513843;-21.333374;24.25;0.056667;3.205833;93.0;-0.022461;0.029297;0.015625;1166;1166;180;0;0;0
2024-11-05_11-19-09.143743;513990;-21.333374;24.25;0.12375;3.190833;92.0;-0.020508;0.027344;0.015625;1500;1500;326;0;2;2
2024-11-05_11-19-09.284949;514127;-17.333374;24.25;0.085833;3.201667;93.0;-0.023438;0.029297;0.016602;1666;1666;470;0;0;0
2024-11-05_11-19-09.425818;514271;-20.0;24.25;0.091667;3.219167;92.0;-0.023438;0.025391;0.013672;2000;2000;610;0;0;0
2024-11-05_11-19-09.598602;514425;-17.333374;24.25;0.13;3.22625;95.0;-0.021484;0.027344;0.011719;2666;2666;777;0;0;0
2024-11-05_11-19-09.786147;514711;-18.666626;24.25;0.136667;3.232084;96.0;-0.022461;0.030273;0.009766;3333;3333;960;0;2;2
2024-11-05_11-19-09.942389;514860;-18.666626;24.25;0.049167;3.233334;95.0;-0.024414;0.02832;0.009766;4000;4000;1110;0;0;0
2024-11-05_11-19-10.177062;514997;-16.0;24.25;0.10625;3.232084;97.0;-0.024414;0.03125;0.020508;5333;5333;1369;0;0;0
2024-11-05_11-19-10.381033;515270;-21.333374;24.25;0.061667;3.25125;97.0;-0.025391;0.037109;0.024414;6666;6666;1569;0;0;0
2024-11-05_11-19-10.537464;515412;-20.0;24.25;0.087083;3.25125;98.0;-0.029297;0.040039;0.016602;8000;8000;1721;0;2;0
2024-11-05_11-19-10.694494;515557;-17.333374;24.25;0.049583;3.258333;99.0;-0.02832;0.036133;0.010742;10666;10666;1881;0;0;0
2024-11-05_11-19-10.945685;515855;-17.333374;24.25;0.059167;3.26375;105.0;-0.024414;0.032227;0.011719;14666;14666;2135;0;0;0
2024-11-05_11-19-11.148849;515987;-16.0;24.25;0.11125;3.279584;105.0;-0.026367;0.035156;-0.000977;18666;18666;2336;0;0;0
2024-11-05_11-19-11.336418;516250;-16.0;24.25;0.10375;3.275;113.0;-0.02832;0.040039;0.00293;24000;24000;2530;0;0;0
2024-11-05_11-19-11.477327;516389;-18.666626;24.25;3.284583;3.280417;113.0;-0.02832;0.039062;0.003906;26666;26666;2661;0;0;0
2024-11-05_11-19-11.775019;516670;-21.333374;24.25;0.083333;3.295417;124.0;-0.025391;0.03418;0.016602;37333;37333;2954;0;0;0
2024-11-05_11-19-11.947285;516807;-18.666626;24.25;0.065;3.295417;130.0;-0.030273;0.036133;0.013672;48000;48000;3131;0;0;0
2024-11-05_11-19-12.103780;516951;-17.333374;24.25;0.06875;3.304584;135.0;-0.027344;0.043945;0.0;53333;53333;3291;0;0;0
2024-11-05_11-19-12.354735;517250;-18.666626;24.25;0.04875;3.311667;155.0;-0.030273;0.040039;-0.007812;64000;64000;3547;0;2;0
2024-11-05_11-19-12.574452;517389;-21.333374;24.25;0.074583;3.317083;165.0;-0.033203;0.040039;0.00293;64000;64000;3768;0;0;0
2024-11-05_11-19-12.731934;517667;-25.333374;24.25;0.06875;3.33125;187.0;-0.027344;0.040039;0.000977;64000;64000;3931;0;0;0
2024-11-05_11-19-12.889514;517815;-18.666626;24.25;0.044583;3.328334;200.0;-0.03125;0.041992;-0.003906;64000;64000;4070;0;0;0
2024-11-05_11-19-13.076631;517960;-21.333374;24.25;0.04625;3.225;208.0;-0.026367;0.040039;0.006836;45000;45000;4258;0;0;0
2024-11-05_11-19-13.233531;518099;-25.333374;24.25;0.445;3.2525;218.0;-0.030273;0.042969;-0.003906;7000;7000;4430;0;0;0
2024-11-05_11-19-13.514849;518380;-53.333374;24.25;0.914583;3.264584;216.0;-0.035156;0.040039;-0.010742;-50000;-50000;4660;0;0;0
2024-11-05_11-19-13.674007;518520;-34.666626;24.25;0.79;3.18875;207.0;-0.033203;0.041992;-0.005859;-50000;-50000;4850;0;0;0
2024-11-05_11-19-13.812521;518659;-4.0;24.25;0.832083;3.18875;199.0;-0.033203;0.041992;-0.008789;-50000;-50000;5011;0;0;0
2024-11-05_11-19-14.000558;518800;10.666626;24.25;0.903333;3.189167;193.0;-0.032227;0.042969;0.0;-50000;-50000;5176;0;0;0
2024-11-05_11-19-14.173772;519080;28.0;24.3125;0.965833;3.195;177.0;-0.032227;0.035156;-0.00293;-50000;-50000;5339;0;0;0
2024-11-05_11-19-14.361168;519220;17.333374;24.25;0.997917;3.199167;165.0;-0.036133;0.032227;-0.023438;-50000;-50000;5544;0;0;0
2024-11-05_11-19-14.533568;519373;30.666626;24.25;1.01625;3.20375;158.0;-0.033203;0.03125;-0.006836;-50000;-50000;5721;0;0;0
2024-11-05_11-19-14.611670;519513;44.0;24.25;1.001667;3.20625;150.0;-0.036133;0.027344;-0.014648;-50000;-50000;5801;0;0;0
2024-11-05_11-19-14.768801;519659;32.0;24.3125;1.021667;3.2175;139.0;-0.035156;0.026367;0.018555;-50000;-50000;5950;0;0;0
2024-11-05_11-19-14.941038;519803;14.666626;24.25;1.000833;3.215417;130.0;-0.038086;0.029297;0.008789;-50000;-50000;6119;0;0;0
2024-11-05_11-19-15.066004;519937;-5.333374;24.3125;3.2275;3.232917;126.0;-0.035156;0.026367;0.020508;-60000;-60000;6251;0;0;0
2024-11-05_11-19-15.395283;520220;-21.333374;24.25;0.8625;3.232084;106.0;-0.038086;0.020508;0.019531;-60000;-60000;6582;0;0;0
2024-11-05_11-19-15.551733;520357;-21.333374;24.3125;0.777083;3.25;98.0;-0.040039;0.017578;0.017578;-60000;-60000;6720;0;0;0
2024-11-05_11-19-15.677295;520501;-25.333374;24.3125;0.655;3.2425;87.0;-0.041016;0.020508;0.030273;20000;20000;6870;1;0;0
2024-11-05_11-19-15.849181;520790;-22.666626;24.25;0.748333;3.364584;94.0;-0.042969;0.016602;0.044922;20000;20000;7040;0;0;0
2024-11-05_11-19-16.005464;520929;-25.333374;24.3125;0.626667;3.262917;93.0;-0.046875;0.020508;0.083984;20000;20000;7190;0;1;0
2024-11-05_11-19-16.224693;521070;-41.333374;24.3125;0.181667;3.269167;98.0;-0.044922;0.018555;0.137695;20000;20000;7420;0;0;0
2024-11-05_11-19-16.334038;521207;-56.0;24.3125;0.135417;3.27625;95.0;-0.045898;0.021484;0.220703;20000;20000;7518;0;0;0
2024-11-05_11-19-16.506334;521351;-70.666626;24.3125;0.066667;3.282917;93.0;-0.043945;0.017578;0.291992;20000;20000;7689;0;0;0
2024-11-05_11-19-16.631486;521500;-84.0;24.3125;0.05375;3.2825;93.0;-0.040039;0.016602;0.410156;20000;20000;7818;0;0;0
2024-11-05_11-19-16.788168;521639;-104.0;24.3125;0.021667;3.285;94.0;-0.032227;0.016602;0.514648;20000;20000;7968;0;0;0
2024-11-05_11-19-17.023198;521917;-142.666626;24.3125;0.021667;3.295834;94.0;-0.015625;0.018555;0.74707;20000;20000;8199;0;0;0
2024-11-05_11-19-17.117383;522060;-158.666626;24.3125;0.021667;3.30125;92.0;-0.005859;0.019531;0.862305;1000;1000;31;0;2;0
2024-11-05_11-19-17.304899;522200;-184.0;24.3125;3.307083;3.314167;93.0;0.001953;0.013672;0.983398;1333;1333;211;0;0;0
2024-11-05_11-19-17.508983;522343;-197.333374;24.3125;0.060417;3.307083;94.0;0.006836;0.016602;1.0625;1500;1500;420;0;0;0
