datetime;time;load_cell;board_temperature;pressure_macki;pressure_tank;distance;acc_x;acc_y;acc_z;motor1_speed;motor2_speed;procedure_time;mechanical_state;motor1_temperature;motor2_temperature
2024-11-05_10-18-50.804264;128658;-2000.0;23.875;0.021667;4.002083;65535.0;0.03418;0.044922;0.677734;-60000;-60000;128889;0;0;0
2024-11-05_10-18-50.882443;128658;-2000.0;23.875;0.021667;4.002083;65535.0;0.03418;0.044922;0.677734;-60000;-60000;128960;0;0;0
2024-11-05_10-18-51.243143;129101;-2000.0;23.875;0.0925;4.002083;65535.0;0.011719;0.046875;0.358398;-60000;-60000;129298;0;0;0
2024-11-05_10-18-51.336797;129101;-2000.0;23.875;0.0925;4.002083;65535.0;0.011719;0.046875;0.358398;-60000;-60000;129429;0;0;0
2024-11-05_10-18-51.493268;129319;-2000.0;23.875;0.149583;4.002917;65535.0;0.010742;0.043945;0.276367;-60000;-60000;129559;0;0;0
2024-11-05_10-18-51.649591;129541;-2000.0;23.875;0.1375;4.009583;65535.0;0.005859;0.045898;0.179688;-60000;-60000;129727;0;0;0
2024-11-05_10-18-51.822977;129541;-2000.0;23.875;0.1375;4.009583;65535.0;0.005859;0.045898;0.179688;-60000;-60000;129888;0;0;0
2024-11-05_10-18-52.026969;129758;-2000.0;23.875;0.104167;4.012084;65535.0;0.005859;0.039062;0.113281;-60000;-60000;130115;0;0;0
2024-11-05_10-18-52.120682;129981;-2000.0;23.875;0.139167;4.010417;65535.0;0.005859;0.036133;0.083008;-60000;-60000;130200;0;0;0
2024-11-05_10-18-52.418100;130198;-2000.0;23.875;0.142083;4.002083;65535.0;0.000977;0.03418;0.054688;20000;20000;130459;1;0;0
2024-11-05_10-18-52.596334;130421;-2000.0;23.875;0.144167;4.242917;65535.0;0.003906;0.036133;0.03125;20000;20000;130670;1;0;0
2024-11-05_10-18-52.731491;130638;-2000.0;23.875;0.59125;4.114167;65535.0;0.004883;0.026367;0.083008;20000;20000;130820;1;0;0
2024-11-05_10-18-52.890103;130638;-2000.0;23.875;0.59125;4.114167;65535.0;0.004883;0.026367;0.083008;0;0;231;0;0;0
2024-11-05_10-18-53.045406;130861;-2000.0;23.875;0.48625;4.245417;65535.0;0.004883;0.025391;0.021484;0;0;380;0;0;0
2024-11-05_10-18-53.326562;131080;-2000.0;23.875;0.12625;4.007083;65535.0;-0.00293;0.026367;0.010742;5000;5000;665;0;0;0
2024-11-05_10-18-53.592541;131302;-2000.0;23.875;0.112917;4.013334;65535.0;0.001953;0.025391;0.027344;10000;10000;867;0;0;0
2024-11-05_10-18-53.702455;131526;-2000.0;23.875;0.06375;4.002501;65535.0;-0.006836;0.025391;0.005859;15000;15000;1031;0;0;0
2024-11-05_10-18-53.859447;131751;-2000.0;23.875;0.070833;4.01;65535.0;-0.003906;0.032227;0.011719;15000;15000;1190;0;0;0
2024-11-05_10-18-54.000573;131751;-2000.0;23.875;0.070833;4.01;65535.0;-0.003906;0.032227;0.011719;20000;20000;1331;0;0;0
2024-11-05_10-18-54.142650;131988;-2000.0;23.875;0.097083;4.006667;65535.0;-0.006836;0.029297;0.019531;20000;20000;1481;0;0;0
2024-11-05_10-18-54.455102;132226;-2000.0;23.875;0.077917;4.002917;65535.0;-0.006836;0.029297;0.036133;25000;25000;1790;0;0;0
2024-11-05_10-18-54.658724;132451;-2000.0;23.875;0.092083;4.009583;65535.0;-0.004883;0.029297;0.039062;25000;25000;1958;0;0;0
2024-11-05_10-18-54.783988;132668;-2000.0;23.875;0.077917;4.012084;65535.0;-0.00293;0.029297;0.035156;30000;30000;2110;0;0;0
2024-11-05_10-18-54.940204;132668;-2000.0;23.875;0.077917;4.012084;65535.0;-0.00293;0.029297;0.035156;30000;30000;2269;0;0;0
2024-11-05_10-18-55.174853;132896;-2000.0;23.875;0.068333;4.0;65535.0;-0.008789;0.030273;0.033203;35000;35000;2497;0;0;0
2024-11-05_10-18-55.300576;133108;-2000.0;23.875;0.061667;4.000834;65535.0;-0.001953;0.02832;0.040039;35000;35000;2621;0;0;0
2024-11-05_10-18-55.410009;133331;-2000.0;23.875;0.106667;4.000417;65535.0;-0.005859;0.027344;0.040039;40000;40000;2751;0;0;0
2024-11-05_10-18-55.566573;133331;-2000.0;23.875;0.106667;4.000417;65535.0;-0.005859;0.027344;0.040039;40000;40000;2901;0;0;0
2024-11-05_10-18-55.723207;133551;-2000.0;23.875;0.117917;4.005;65535.0;-0.006836;0.02832;0.026367;45000;45000;3048;0;0;0
2024-11-05_10-18-55.864023;133768;-2000.0;23.875;0.099583;3.995417;65535.0;-0.004883;0.024414;0.03418;45000;45000;3191;0;0;0
2024-11-05_10-18-56.020967;133768;-2000.0;23.875;0.099583;3.995417;65535.0;-0.004883;0.024414;0.03418;50000;50000;3351;0;0;0
2024-11-05_10-18-56.161543;133991;-2000.0;23.875;0.054167;3.996667;65535.0;-0.005859;0.024414;0.039062;50000;50000;3501;0;0;0
2024-11-05_10-18-56.318010;134208;-2000.0;23.875;0.423333;3.837917;65535.0;-0.009766;0.030273;0.022461;55000;55000;3650;0;0;0
2024-11-05_10-18-56.490054;134208;-2000.0;23.875;0.423333;3.837917;65535.0;-0.009766;0.030273;0.022461;-100000;-100000;3817;0;2;0
2024-11-05_10-18-56.757143;134638;-2000.0;23.875;0.78375;3.816667;65535.0;-0.011719;0.025391;0.023438;-100000;-100000;4083;0;0;0
2024-11-05_10-18-57.055659;134861;-2000.0;23.875;0.864167;3.80625;65535.0;-0.013672;0.025391;0.021484;-100000;-100000;4373;0;0;0
2024-11-05_10-18-57.196778;135078;-2000.0;23.875;0.924583;3.804584;65535.0;-0.015625;0.030273;0.024414;-100000;-100000;4528;0;0;0
2024-11-05_10-18-57.290558;135078;-2000.0;23.875;0.924583;3.804584;65535.0;-0.015625;0.030273;0.024414;-100000;-100000;4611;0;0;0
2024-11-05_10-18-57.431152;135301;-2000.0;23.875;0.9625;3.802917;65535.0;-0.012695;0.029297;0.024414;-100000;-100000;4761;0;0;0
2024-11-05_10-18-57.587893;135301;-2000.0;23.875;0.9625;3.802917;65535.0;-0.012695;0.029297;0.024414;20000;20000;4921;1;0;0
2024-11-05_10-18-57.729017;135527;-2000.0;23.875;0.960833;3.800417;65535.0;-0.009766;0.024414;0.046875;20000;20000;5071;1;0;0
2024-11-05_10-18-57.893130;135751;-2000.0;23.875;1.40625;3.895833;65535.0;-0.014648;0.029297;0.024414;20000;20000;5221;0;0;0
2024-11-05_10-18-58.092100;135969;-2000.0;23.875;1.27625;3.922084;65535.0;-0.014648;0.033203;0.060547;-60000;-60000;5410;0;0;0
2024-11-05_10-18-58.293256;136192;-2000.0;23.875;0.954583;3.800417;65535.0;-0.008789;0.033203;0.029297;20000;20000;5630;1;0;0
2024-11-05_10-18-58.387054;136192;-2000.0;23.875;0.954583;3.800417;65535.0;-0.008789;0.033203;0.029297;20000;20000;5711;1;0;0
2024-11-05_10-18-58.512650;136408;-2000.0;23.8125;0.894583;3.857917;65535.0;-0.012695;0.02832;0.045898;20000;20000;5850;1;0;0
2024-11-05_10-18-58.702496;136408;-2000.0;23.8125;0.894583;3.857917;65535.0;-0.012695;0.02832;0.045898;20000;20000;6011;0;0;0
2024-11-05_10-18-58.841708;136631;-2000.0;23.875;0.714583;3.80875;65535.0;-0.012695;0.020508;0.026367;20000;20000;6171;0;0;0
2024-11-05_10-18-59.045714;136852;-2000.0;23.875;0.4875;3.801667;65535.0;-0.013672;0.029297;0.030273;20000;20000;6375;0;0;0
2024-11-05_10-18-59.186921;137068;-2000.0;23.875;0.243333;3.806667;65535.0;-0.011719;0.030273;0.035156;20000;20000;6504;0;0;0
2024-11-05_10-18-59.311973;137068;-2000.0;23.875;0.243333;3.806667;65535.0;-0.011719;0.030273;0.035156;20000;20000;6641;0;0;0
2024-11-05_10-18-59.452555;137294;-2000.0;23.875;0.065833;3.805834;65535.0;-0.014648;0.027344;0.026367;20000;20000;6791;0;0;0
2024-11-05_10-18-59.624931;137508;-2000.0;23.875;0.021667;3.805834;65535.0;-0.011719;0.027344;0.025391;20000;20000;6951;0;0;0
2024-11-05_10-18-59.814135;137732;-2000.0;23.875;0.021667;3.80625;65535.0;-0.010742;0.026367;0.025391;20000;20000;7160;0;0;0
2024-11-05_10-18-59.924028;137732;-2000.0;23.875;0.021667;3.80625;65535.0;-0.010742;0.026367;0.025391;20000;20000;7260;0;0;0
2024-11-05_10-19-00.222150;137948;-2000.0;23.8125;0.021667;3.805834;65535.0;-0.013672;0.024414;0.024414;20000;20000;7548;0;0;0
2024-11-05_10-19-00.378459;138171;-2000.0;23.8125;0.02125;3.805834;65535.0;-0.012695;0.027344;0.023438;0;0;81;0;0;0
2024-11-05_10-19-00.534645;138388;-2000.0;23.875;0.02125;3.805834;65535.0;-0.012695;0.03125;0.027344;0;0;239;0;0;0
2024-11-05_10-19-00.711245;138611;-2000.0;23.8125;0.021667;3.805834;65535.0;-0.010742;0.027344;0.026367;5000;5000;390;0;0;0
2024-11-05_10-19-00.847266;138611;-2000.0;23.8125;0.021667;3.805834;65535.0;-0.010742;0.027344;0.026367;5000;5000;550;0;0;0
2024-11-05_10-19-01.003897;138828;-2000.0;23.8125;0.1075;3.8175;65535.0;-0.012695;0.025391;0.024414;10000;10000;700;0;0;0
2024-11-05_10-19-01.191462;139051;-2000.0;23.875;0.0875;3.805834;65535.0;-0.013672;0.026367;0.020508;15000;15000;871;0;0;0
2024-11-05_10-19-01.332103;139051;-2000.0;23.875;0.0875;3.805834;65535.0;-0.013672;0.026367;0.020508;15000;15000;1029;0;0;0
2024-11-05_10-19-01.488965;139277;-2000.0;23.875;0.090833;3.806667;65535.0;-0.009766;0.030273;0.015625;20000;20000;1180;0;0;0
2024-11-05_10-19-01.629545;139502;-2000.0;23.875;0.105;3.805834;65535.0;-0.009766;0.027344;0.016602;20000;20000;1324;0;0;0
2024-11-05_10-19-01.880665;139713;-2000.0;23.875;0.114167;3.8175;65535.0;-0.011719;0.022461;0.017578;25000;25000;1558;0;0;0
2024-11-05_10-19-01.990047;139931;-2000.0;23.875;0.106667;3.807083;65535.0;-0.012695;0.025391;0.016602;25000;25000;1690;0;0;0
2024-11-05_10-19-02.115931;139931;-2000.0;23.875;0.106667;3.807083;65535.0;-0.012695;0.025391;0.016602;25000;25000;1800;0;0;0
2024-11-05_10-19-02.257026;140155;-2000.0;23.875;0.135417;3.814167;65535.0;-0.012695;0.022461;0.015625;30000;30000;1949;0;0;0
2024-11-05_10-19-02.429338;140155;-2000.0;23.875;0.135417;3.814167;65535.0;-0.012695;0.022461;0.015625;30000;30000;2116;0;0;0
2024-11-05_10-19-02.585829;140368;-2000.0;23.875;0.115833;3.81375;65535.0;-0.012695;0.026367;0.009766;35000;35000;2268;0;0;0
2024-11-05_10-19-02.914087;140808;-2000.0;23.8125;0.107917;3.815417;65535.0;-0.013672;0.027344;0.016602;40000;40000;2579;0;0;0
2024-11-05_10-19-03.133201;141031;-2000.0;23.875;0.104583;3.8125;65535.0;-0.013672;0.02832;0.012695;40000;40000;2829;0;0;0
2024-11-05_10-19-03.242473;141031;-2000.0;23.875;0.104583;3.8125;65535.0;-0.013672;0.02832;0.012695;45000;45000;2927;0;0;0
2024-11-05_10-19-03.383101;141248;-2000.0;23.875;0.0875;3.810834;65535.0;-0.012695;0.023438;0.021484;45000;45000;3070;0;0;0
2024-11-05_10-19-03.524055;141248;-2000.0;23.875;0.0875;3.810834;65535.0;-0.012695;0.023438;0.021484;50000;50000;3216;0;0;0
2024-11-05_10-19-03.743285;141471;-2000.0;23.875;0.1;3.813334;65535.0;-0.010742;0.022461;0.017578;50000;50000;3434;0;0;0
2024-11-05_10-19-03.915330;141701;-2000.0;23.875;0.09625;3.614583;65535.0;-0.011719;0.025391;0.018555;55000;55000;3598;0;0;0
2024-11-05_10-19-04.102830;141921;-2000.0;23.875;0.5825;3.64875;65535.0;-0.011719;0.025391;0.009766;55000;55000;3780;0;0;0
2024-11-05_10-19-04.306341;142141;-2000.0;23.875;0.754167;3.6375;65535.0;-0.013672;0.032227;0.018555;-100000;-100000;3989;0;0;0
2024-11-05_10-19-04.494215;142358;-2000.0;23.8125;0.82625;3.62625;65535.0;-0.011719;0.030273;0.009766;-100000;-100000;4157;0;0;0
2024-11-05_10-19-04.603638;142358;-2000.0;23.8125;0.82625;3.62625;65535.0;-0.011719;0.030273;0.009766;-100000;-100000;4300;0;0;0
2024-11-05_10-19-04.776974;142581;-2000.0;23.875;0.897083;3.620834;65535.0;-0.011719;0.030273;0.008789;-100000;-100000;4460;0;0;0
2024-11-05_10-19-04.933333;142798;-1973.333374;23.875;0.94125;3.620417;65535.0;-0.013672;0.026367;0.018555;-100000;-100000;4620;0;0;0
2024-11-05_10-19-05.183447;143035;-1930.666626;23.8125;0.954167;3.615417;65535.0;-0.014648;0.024414;0.014648;-100000;-100000;4867;0;0;0
2024-11-05_10-19-05.308358;143035;-1930.666626;23.8125;0.954167;3.615417;65535.0;-0.014648;0.024414;0.014648;-100000;-100000;5002;0;0;0
2024-11-05_10-19-05.386545;143269;-1920.0;23.875;0.975417;3.615417;65535.0;-0.014648;0.027344;0.016602;20000;20000;5078;1;0;0
2024-11-05_10-19-05.527070;143269;-1920.0;23.875;0.975417;3.615417;65535.0;-0.014648;0.027344;0.016602;20000;20000;5231;0;0;0
2024-11-05_10-19-05.715687;143480;-1937.333374;23.875;1.292083;3.902917;65535.0;-0.015625;0.029297;0.009766;0;0;5405;0;0;0
2024-11-05_10-19-05.872702;143701;-2000.0;23.875;0.975417;3.634167;65535.0;-0.014648;0.033203;0.024414;-60000;-60000;5560;0;0;0
2024-11-05_10-19-06.013772;143920;-2000.0;23.875;0.927083;3.620417;65535.0;-0.015625;0.029297;0.018555;20000;20000;5710;1;0;0
2024-11-05_10-19-06.185646;143920;-2000.0;23.875;0.927083;3.620417;65535.0;-0.015625;0.029297;0.018555;20000;20000;5870;1;0;0
2024-11-05_10-19-06.326270;144141;-2000.0;23.875;0.78125;3.644167;65535.0;-0.021484;0.02832;-0.004883;20000;20000;6030;1;0;0
2024-11-05_10-19-06.514480;144358;-2000.0;23.8125;0.62625;3.649584;65535.0;-0.015625;0.027344;-0.029297;20000;20000;6190;0;0;0
2024-11-05_10-19-06.639711;144582;-2000.0;23.875;0.4625;3.62875;65535.0;-0.015625;0.029297;0.010742;20000;20000;6340;0;0;0
2024-11-05_10-19-07.032050;144798;-2000.0;23.875;0.255417;3.635417;65535.0;-0.014648;0.03125;0.003906;20000;20000;6705;0;0;0
2024-11-05_10-19-07.382220;145241;-2000.0;23.875;0.028333;3.62625;65535.0;-0.015625;0.033203;0.013672;20000;20000;7059;0;0;0
2024-11-05_10-19-07.735221;145458;-2000.0;23.875;0.021667;3.62625;65535.0;-0.017578;0.030273;0.008789;20000;20000;7387;0;0;0
2024-11-05_10-19-07.928873;145681;-2000.0;23.875;0.021667;3.62625;65535.0;-0.016602;0.030273;0.001953;0;0;20;0;0;0
2024-11-05_10-19-08.053837;145898;-258.666626;23.875;0.021667;3.625834;65535.0;-0.018555;0.033203;0.0;0;0;151;0;0;0
2024-11-05_10-19-08.304384;146122;-16.0;23.875;0.021667;3.62625;65535.0;-0.014648;0.03418;0.008789;5000;5000;406;0;2;0
2024-11-05_10-19-08.538757;146338;-16.0;23.8125;0.107917;3.62625;65535.0;-0.019531;0.03125;0.011719;10000;10000;631;0;0;0
2024-11-05_10-19-08.695613;146581;-20.0;23.875;0.045833;3.635417;65535.0;-0.019531;0.027344;0.013672;10000;10000;790;0;0;0
2024-11-05_10-19-08.820760;146581;-20.0;23.875;0.045833;3.635417;65535.0;-0.019531;0.027344;0.013672;15000;15000;921;0;0;0
2024-11-05_10-19-09.027536;146814;-18.666626;23.875;3.636667;3.632083;65535.0;-0.019531;0.03125;0.012695;15000;15000;1081;0;0;0
2024-11-05_10-19-09.150203;147027;-20.0;23.875;0.082083;3.629167;65535.0;-0.021484;0.029297;0.022461;20000;20000;1244;0;0;0
2024-11-05_10-19-09.290840;147027;-20.0;23.875;0.082083;3.629167;65535.0;-0.021484;0.029297;0.022461;20000;20000;1390;0;0;0
2024-11-05_10-19-09.495032;147254;-18.666626;23.875;0.115417;3.641667;65535.0;-0.021484;0.030273;0.03125;25000;25000;1576;0;0;0
2024-11-05_10-19-09.621370;147471;-21.333374;23.875;0.100417;3.6325;65535.0;-0.019531;0.025391;0.032227;25000;25000;1711;0;0;0
2024-11-05_10-19-09.762322;147688;-25.333374;23.875;0.057917;3.632917;65535.0;-0.018555;0.030273;0.02832;30000;30000;1861;0;0;0
2024-11-05_10-19-09.934591;147688;-25.333374;23.875;0.057917;3.632917;65535.0;-0.018555;0.030273;0.02832;30000;30000;2013;0;0;0
2024-11-05_10-19-10.107682;147911;-32.0;23.875;0.10875;3.639167;65535.0;-0.021484;0.029297;0.019531;35000;35000;2189;0;0;0
2024-11-05_10-19-10.388795;148139;-21.333374;23.875;0.095;3.635834;65535.0;-0.022461;0.03125;0.020508;40000;40000;2427;0;0;0
2024-11-05_10-19-10.608037;148361;-25.333374;23.875;0.055;3.631667;65535.0;-0.022461;0.027344;0.025391;40000;40000;2698;0;0;0
2024-11-05_10-19-10.812179;148581;-30.666626;23.875;0.093333;3.63625;65535.0;-0.022461;0.032227;0.016602;45000;45000;2913;0;0;0
2024-11-05_10-19-11.016296;148798;-29.333374;23.875;0.100833;3.6325;65535.0;-0.024414;0.027344;0.018555;50000;50000;3111;0;0;0
2024-11-05_10-19-11.189168;149021;-29.333374;23.875;0.105833;3.632083;65535.0;-0.024414;0.03125;0.009766;50000;50000;3271;0;0;0
2024-11-05_10-19-11.330143;149236;-36.0;23.875;0.294167;3.491667;65535.0;-0.025391;0.027344;0.010742;55000;55000;3418;0;0;0
2024-11-05_10-19-11.815432;149671;-26.666626;23.875;0.762917;3.467916;65535.0;-0.023438;0.033203;0.010742;-100000;-100000;3909;0;0;0
2024-11-05_10-19-11.956940;149891;-17.333374;23.875;0.852917;3.454167;65535.0;-0.024414;0.03418;-0.011719;-100000;-100000;4061;0;0;0
2024-11-05_10-19-12.145632;149891;-17.333374;23.875;0.852917;3.454167;65535.0;-0.024414;0.03418;-0.011719;-100000;-100000;4244;0;0;0
2024-11-05_10-19-12.333621;150108;12.0;23.875;0.927083;3.449167;65535.0;-0.027344;0.035156;-0.011719;-100000;-100000;4408;0;0;0
2024-11-05_10-19-12.427376;150331;12.0;23.875;0.972917;3.449167;65535.0;-0.029297;0.029297;-0.019531;-100000;-100000;4521;0;0;0
2024-11-05_10-19-12.693507;150561;14.666626;23.875;0.97375;3.448334;65535.0;-0.026367;0.035156;-0.044922;-100000;-100000;4801;0;0;0
2024-11-05_10-19-12.866126;150795;44.0;23.875;3.449167;3.44875;65535.0;-0.027344;0.033203;-0.056641;20000;20000;4951;1;0;0
2024-11-05_10-19-13.069806;150795;44.0;23.875;3.449167;3.44875;65535.0;-0.027344;0.033203;-0.056641;20000;20000;5151;1;0;0
2024-11-05_10-19-13.226071;150999;41.333374;23.875;1.061667;3.472083;65535.0;-0.026367;0.026367;-0.03418;20000;20000;5311;1;0;0
2024-11-05_10-19-13.382371;151221;12.0;23.875;1.062083;3.450834;65535.0;-0.02832;0.055664;0.048828;20000;20000;5471;1;0;0
2024-11-05_10-19-13.539582;151438;10.666626;23.875;1.034583;3.470417;65535.0;-0.030273;0.048828;-0.037109;20000;20000;5631;1;0;0
2024-11-05_10-19-13.790775;151661;-2.666626;23.875;1.122917;3.5225;65535.0;-0.018555;0.027344;0.035156;20000;20000;5862;0;0;0
2024-11-05_10-19-13.853259;151661;-2.666626;23.875;1.122917;3.5225;65535.0;-0.018555;0.027344;0.035156;20000;20000;5949;0;0;0
2024-11-05_10-19-14.135645;151882;0.0;23.875;0.9925;3.458333;65535.0;-0.040039;0.036133;-0.004883;20000;20000;6203;0;0;0
2024-11-05_10-19-14.418027;152321;-21.333374;23.875;0.971667;3.45375;65535.0;-0.039062;0.039062;0.069336;20000;20000;6510;0;0;0
2024-11-05_10-19-14.480575;152321;-21.333374;23.875;0.971667;3.45375;65535.0;-0.039062;0.039062;0.069336;20000;20000;6581;0;0;0
2024-11-05_10-19-14.887513;152761;-57.333374;23.875;0.970833;3.454167;65535.0;-0.040039;0.032227;0.265625;-60000;-60000;6968;0;0;0
2024-11-05_10-19-15.028376;152761;-57.333374;23.875;0.970833;3.454167;65535.0;-0.040039;0.032227;0.265625;-60000;-60000;7128;0;0;0
2024-11-05_10-19-15.217023;152978;-80.0;23.9375;0.972083;3.45625;65535.0;-0.038086;0.027344;0.410156;20000;20000;7305;1;0;0
2024-11-05_10-19-15.420204;153201;-104.0;23.9375;0.815;3.455833;65535.0;-0.030273;0.027344;0.555664;20000;20000;7511;1;0;0
2024-11-05_10-19-15.560827;153418;-156.0;23.9375;0.805;3.498334;65535.0;-0.016602;0.036133;0.768555;20000;20000;7661;1;0;0
2024-11-05_10-19-15.717172;153641;-190.666626;23.9375;0.58875;3.489167;65535.0;-0.001953;0.030273;0.911133;20000;20000;7810;0;0;0
2024-11-05_10-19-15.904669;153641;-190.666626;23.9375;0.58875;3.489167;65535.0;-0.001953;0.030273;0.911133;20000;20000;7990;0;0;0
2024-11-05_10-19-16.029814;153860;-197.333374;23.9375;0.32625;3.469167;65535.0;0.017578;0.023438;1.072266;20000;20000;8131;0;0;0
2024-11-05_10-19-16.202151;154083;-220.0;23.9375;0.1525;3.470417;65535.0;0.02832;0.017578;1.179688;20000;20000;8291;0;0;0
2024-11-05_10-19-16.342749;154083;-220.0;23.9375;0.1525;3.470417;65535.0;0.02832;0.017578;1.179688;20000;20000;8433;0;0;0
2024-11-05_10-19-16.530246;154298;-232.0;23.9375;0.059583;3.465;65535.0;0.039062;0.008789;1.271484;20000;20000;8601;0;0;0
2024-11-05_10-19-16.696619;154523;-245.333374;23.9375;0.022083;3.465;65535.0;0.045898;0.004883;1.341797;20000;20000;8771;0;0;0
2024-11-05_10-19-16.812110;154735;-260.0;23.9375;0.021667;3.465;65535.0;0.054688;0.010742;1.426758;20000;20000;8911;0;0;0
2024-11-05_10-19-17.016020;154735;-260.0;23.9375;0.021667;3.465;65535.0;0.054688;0.010742;1.426758;0;0;17;0;0;0
2024-11-05_10-19-17.188362;154961;-270.666626;23.9375;0.021667;3.464584;65535.0;0.061523;0.013672;1.50293;0;0;167;0;0;0
2024-11-05_10-19-17.302800;155181;-20.0;23.9375;0.021667;3.4675;65535.0;0.063477;0.018555;1.578125;5000;5000;287;0;0;0
2024-11-05_10-19-17.454446;155181;-20.0;23.9375;0.021667;3.4675;65535.0;0.063477;0.018555;1.578125;5000;5000;447;0;0;0
2024-11-05_10-19-17.690971;155398;-22.666626;23.9375;0.119583;3.47875;65535.0;0.06543;0.023438;1.65918;10000;10000;645;0;0;0
2024-11-05_10-19-17.991389;155843;-40.0;23.9375;0.094583;3.477917;65535.0;0.069336;0.015625;1.694336;15000;15000;976;0;0;0
2024-11-05_10-19-18.114735;155843;-40.0;23.9375;0.094583;3.477917;65535.0;0.069336;0.015625;1.694336;15000;15000;1107;0;0;0
2024-11-05_10-19-18.209204;156063;-36.0;23.9375;0.071667;3.480417;65535.0;0.071289;0.043945;1.768555;15000;15000;1196;0;0;0
2024-11-05_10-19-18.384516;156278;-50.666626;23.9375;0.06625;3.477917;65535.0;0.067383;0.039062;1.703125;20000;20000;1366;0;0;0
2024-11-05_10-19-18.647112;156502;-36.0;23.9375;0.055833;3.475833;65535.0;0.057617;0.033203;1.708984;25000;25000;1636;0;0;0
2024-11-05_10-19-18.892259;156718;-36.0;23.9375;0.083333;3.47875;65535.0;0.0625;0.040039;1.65625;25000;25000;1834;0;0;0
2024-11-05_10-19-18.992235;156718;-36.0;23.9375;0.083333;3.47875;65535.0;0.0625;0.040039;1.65625;30000;30000;1979;0;0;0
2024-11-05_10-19-19.180717;156941;-40.0;23.9375;0.08125;3.475833;65535.0;0.05957;0.052734;1.667969;30000;30000;2166;0;0;0
2024-11-05_10-19-19.321477;157158;-45.333374;24.0;0.050833;3.475;65535.0;0.052734;0.026367;1.65332;35000;35000;2306;0;0;0
2024-11-05_10-19-19.462467;157393;-42.666626;23.9375;0.059583;3.475833;65535.0;0.049805;0.024414;1.65332;35000;35000;2457;0;0;0
2024-11-05_10-19-19.618685;157393;-42.666626;23.9375;0.059583;3.475833;65535.0;0.049805;0.024414;1.65332;40000;40000;2617;0;0;0
2024-11-05_10-19-19.806795;157611;-53.333374;24.0;0.045417;3.479167;65535.0;0.046875;0.025391;1.682617;40000;40000;2777;0;0;0
2024-11-05_10-19-19.964366;157828;-57.333374;23.9375;0.104583;3.480417;65535.0;0.048828;0.02832;1.709961;45000;45000;2930;0;0;0
2024-11-05_10-19-20.120037;158052;-74.666626;24.0;0.091667;3.482084;65535.0;0.047852;0.035156;1.749023;50000;50000;3117;0;0;0
2024-11-05_10-19-20.293433;158052;-74.666626;24.0;0.091667;3.482084;65535.0;0.047852;0.035156;1.749023;50000;50000;3267;0;0;0
2024-11-05_10-19-20.434038;158269;-76.0;24.0;0.104167;3.309583;65535.0;0.044922;0.056641;1.803711;55000;55000;3413;0;0;0
2024-11-05_10-19-20.590255;158504;-89.333374;24.0;0.57375;3.327917;65535.0;0.048828;0.058594;1.835938;55000;55000;3587;0;0;0
2024-11-05_10-19-20.778421;158504;-89.333374;24.0;0.57375;3.327917;65535.0;0.048828;0.058594;1.835938;-100000;-100000;3754;0;0;0
2024-11-05_10-19-20.919632;158727;-92.0;24.0;0.7325;3.317083;65535.0;0.044922;0.066406;1.882812;-100000;-100000;3913;0;0;0
2024-11-05_10-19-21.060289;158951;-90.666626;24.0;0.851667;3.307083;65535.0;0.049805;0.041992;1.885742;-100000;-100000;4031;0;0;0
2024-11-05_10-19-21.217227;158951;-90.666626;24.0;0.851667;3.307083;65535.0;0.049805;0.041992;1.885742;-100000;-100000;4210;0;0;0
2024-11-05_10-19-21.342262;159174;-64.0;24.0;0.919167;3.3025;65535.0;0.02832;0.021484;1.798828;-100000;-100000;4337;0;0;0
2024-11-05_10-19-21.515610;159388;-41.333374;24.0;0.967083;3.30875;65535.0;0.045898;0.026367;1.873047;-100000;-100000;4497;0;0;0
2024-11-05_10-19-21.673091;159388;-41.333374;24.0;0.967083;3.30875;65535.0;0.045898;0.026367;1.873047;-100000;-100000;4657;0;0;0
2024-11-05_10-19-21.830065;159612;-36.0;24.0;1.018333;3.312917;65535.0;0.043945;0.024414;1.90332;-100000;-100000;4807;0;0;0
2024-11-05_10-19-21.972846;159828;-5.333374;24.0;1.03875;3.310834;65535.0;0.041016;0.005859;1.874023;-100000;-100000;4966;0;0;0
2024-11-05_10-19-22.129080;160051;12.0;24.0625;1.036667;3.301667;65535.0;0.037109;0.008789;1.859375;-100000;-100000;5117;0;0;0
2024-11-05_10-19-22.285823;160051;12.0;24.0625;1.036667;3.301667;65535.0;0.037109;0.008789;1.859375;-60000;-60000;5270;0;0;0
2024-11-05_10-19-22.426888;160272;-42.666626;24.0;0.995417;3.300833;65535.0;0.024414;-0.017578;1.800781;-60000;-60000;5427;0;0;0
2024-11-05_10-19-22.599124;160488;-18.666626;24.0;0.938333;3.30125;65535.0;0.014648;0.001953;1.854492;20000;20000;5577;1;0;0
2024-11-05_10-19-22.740042;160488;-18.666626;24.0;0.938333;3.30125;65535.0;0.014648;0.001953;1.854492;20000;20000;5737;1;0;0
2024-11-05_10-19-22.912081;160711;-36.0;24.0625;1.00875;3.456667;65535.0;0.029297;-0.007812;1.768555;20000;20000;5897;0;0;0
2024-11-05_10-19-23.115769;160928;-30.666626;24.0625;0.871667;3.429167;65535.0;0.018555;0.010742;1.704102;20000;20000;6106;0;0;0
2024-11-05_10-19-23.225568;161151;-25.333374;24.0625;0.451667;3.3075;65535.0;0.011719;0.008789;1.682617;20000;20000;6216;0;0;0
2024-11-05_10-19-23.397953;161151;-25.333374;24.0625;0.451667;3.3075;65535.0;0.011719;0.008789;1.682617;20000;20000;6374;0;0;0
2024-11-05_10-19-23.569795;161370;-32.0;24.0625;0.2125;3.315833;65535.0;0.011719;0.016602;1.672852;20000;20000;6551;0;0;0
2024-11-05_10-19-23.867626;161591;-34.666626;24.0625;0.035833;3.311667;65535.0;0.006836;0.018555;1.683594;20000;20000;6846;0;0;0
2024-11-05_10-19-24.086589;161817;-34.666626;24.0625;0.021667;3.311667;65535.0;0.006836;0.025391;1.692383;20000;20000;7062;0;0;0
2024-11-05_10-19-24.227845;162055;-34.666626;24.0625;0.021667;3.311667;65535.0;0.004883;0.027344;1.71582;20000;20000;7228;0;0;0
2024-11-05_10-19-24.431243;162280;-38.666626;24.0625;0.02125;3.317083;65535.0;0.005859;0.02832;1.739258;0;0;23;0;0;0
2024-11-05_10-19-24.634368;162504;-21.333374;24.0625;0.021667;3.317083;65535.0;0.003906;0.020508;1.761719;0;0;227;0;0;0
2024-11-05_10-19-24.822914;162721;-22.666626;24.0625;0.021667;3.317083;65535.0;0.004883;0.012695;1.776367;5000;5000;407;0;0;0
2024-11-05_10-19-24.963784;162721;-22.666626;24.0625;0.021667;3.317083;65535.0;0.004883;0.012695;1.776367;5000;5000;559;0;0;0
2024-11-05_10-19-25.089279;162942;-30.666626;24.0625;0.068333;3.331667;65535.0;0.005859;0.007812;1.793945;10000;10000;689;0;0;0
2024-11-05_10-19-25.277132;163158;-34.666626;24.0625;0.062917;3.32375;65535.0;0.007812;0.012695;1.830078;10000;10000;856;0;0;0
2024-11-05_10-19-25.449053;163381;-38.666626;24.0625;0.061667;3.3225;65535.0;0.009766;-0.003906;1.858398;15000;15000;1048;0;0;0
2024-11-05_10-19-25.652164;163381;-38.666626;24.0625;0.061667;3.3225;65535.0;0.009766;-0.003906;1.858398;15000;15000;1213;0;0;0
2024-11-05_10-19-25.777167;163598;-38.666626;24.0625;0.098333;3.324167;65535.0;0.008789;0.020508;1.90332;20000;20000;1368;0;0;0
2024-11-05_10-19-25.950090;163813;-50.666626;24.0625;0.054583;3.3275;65535.0;0.009766;0.004883;1.920898;20000;20000;1541;0;0;0
2024-11-05_10-19-26.075910;163813;-50.666626;24.0625;0.054583;3.3275;65535.0;0.009766;0.004883;1.920898;25000;25000;1650;0;0;0
2024-11-05_10-19-26.238248;164028;-50.666626;24.125;0.11625;3.332917;65535.0;0.010742;0.005859;1.929688;25000;25000;1825;0;0;0
2024-11-05_10-19-26.343026;164251;-64.0;24.125;0.0325;3.328334;65535.0;0.007812;-0.000977;1.922852;30000;30000;1938;0;0;0
2024-11-05_10-19-26.577674;164468;-58.666626;24.125;0.10375;3.327917;65535.0;0.004883;0.008789;1.915039;30000;30000;2166;0;0;0
2024-11-05_10-19-26.703654;164468;-58.666626;24.125;0.10375;3.327917;65535.0;0.004883;0.008789;1.915039;35000;35000;2289;0;0;0
2024-11-05_10-19-26.844290;164694;-58.666626;24.0625;0.024583;3.326667;65535.0;0.00293;0.020508;1.911133;35000;35000;2438;0;0;0
2024-11-05_10-19-26.988278;164908;-50.666626;24.125;0.081667;3.3275;65535.0;-0.003906;0.033203;1.891602;40000;40000;2569;0;0;0
2024-11-05_10-19-27.189403;164908;-50.666626;24.125;0.081667;3.3275;65535.0;-0.003906;0.033203;1.891602;45000;45000;2778;0;0;0
2024-11-05_10-19-27.314416;165131;-36.0;24.125;0.037083;3.3275;65535.0;-0.009766;0.032227;1.863281;45000;45000;2899;0;0;0
2024-11-05_10-19-27.439915;165357;-36.0;24.125;0.075833;3.332917;65535.0;-0.014648;0.033203;1.823242;45000;45000;3038;0;0;0
2024-11-05_10-19-27.596646;165357;-36.0;24.125;0.075833;3.332917;65535.0;-0.014648;0.033203;1.823242;50000;50000;3188;0;0;0
2024-11-05_10-19-27.862910;165595;-53.333374;24.125;0.084167;3.3325;65535.0;-0.015625;0.026367;1.797852;55000;55000;3436;0;0;0
2024-11-05_10-19-28.050789;165823;-56.0;24.125;0.48875;3.18875;65535.0;-0.017578;0.02832;1.772461;55000;55000;3649;0;0;0
2024-11-05_10-19-28.223143;166052;-53.333374;24.125;0.710417;3.172917;65535.0;-0.024414;0.030273;1.761719;-100000;-100000;3809;0;0;0
2024-11-05_10-19-28.379423;166268;-38.666626;24.125;0.81625;3.166667;65535.0;-0.022461;0.02832;1.754883;-100000;-100000;3959;0;0;0
2024-11-05_10-19-28.535642;166268;-38.666626;24.125;0.81625;3.166667;65535.0;-0.022461;0.02832;1.754883;-100000;-100000;4123;0;0;0
2024-11-05_10-19-28.723143;166492;-8.0;24.125;0.907083;3.157917;65535.0;-0.018555;0.03418;1.795898;-100000;-100000;4308;0;0;0
2024-11-05_10-19-28.848439;166711;86.666748;24.125;0.950833;3.15625;65535.0;-0.022461;0.012695;1.766602;-100000;-100000;4448;0;0;0
2024-11-05_10-19-29.020931;166928;0.0;24.1875;0.99875;3.154584;65535.0;-0.018555;0.021484;1.783203;-100000;-100000;4596;0;0;0
2024-11-05_10-19-29.177184;166928;0.0;24.1875;0.99875;3.154584;65535.0;-0.018555;0.021484;1.783203;-100000;-100000;4759;0;0;0
2024-11-05_10-19-29.349221;167152;-22.666626;24.1875;1.055417;3.171667;65535.0;-0.022461;0.027344;1.791992;-100000;-100000;4945;0;0;0
2024-11-05_10-19-29.474212;167368;-21.333374;24.1875;1.003333;3.172917;65535.0;-0.018555;0.022461;1.834961;20000;20000;5059;1;0;0
2024-11-05_10-19-29.630930;167368;-21.333374;24.1875;1.003333;3.172917;65535.0;-0.018555;0.022461;1.834961;20000;20000;5219;1;0;0
2024-11-05_10-19-29.771868;167591;-34.666626;24.1875;1.302083;3.425833;65535.0;-0.015625;0.012695;1.855469;20000;20000;5359;0;0;0
2024-11-05_10-19-29.928772;167808;-38.666626;24.1875;1.25875;3.389167;65535.0;-0.017578;0.017578;1.860352;20000;20000;5530;0;0;0
2024-11-05_10-19-30.132747;168033;-50.666626;24.1875;1.037917;3.172917;65535.0;-0.018555;0.016602;1.890625;20000;20000;5694;0;0;0
2024-11-05_10-19-30.289258;168033;-50.666626;24.1875;1.037917;3.172917;65535.0;-0.018555;0.016602;1.890625;20000;20000;5859;0;0;0
2024-11-05_10-19-30.389088;168251;-38.666626;24.1875;1.000833;3.162083;65535.0;-0.015625;0.019531;1.895508;20000;20000;5988;0;0;0
2024-11-05_10-19-30.556346;168471;-48.0;24.1875;1.000833;3.162083;65535.0;-0.016602;0.017578;1.888672;20000;20000;6158;0;0;0
2024-11-05_10-19-30.838253;168688;-37.333374;24.1875;1.000833;3.162083;65535.0;-0.018555;0.014648;1.879883;20000;20000;6432;0;0;0
2024-11-05_10-19-31.136602;168911;-37.333374;24.25;1.000833;3.1675;65535.0;-0.021484;0.023438;1.853516;-60000;-60000;6725;0;0;0
2024-11-05_10-19-31.230684;169136;-30.666626;24.25;1.000833;3.1675;65535.0;-0.026367;0.03125;1.827148;-60000;-60000;6819;0;0;0
2024-11-05_10-19-31.356530;169136;-30.666626;24.25;1.000833;3.1675;65535.0;-0.026367;0.03125;1.827148;-60000;-60000;6944;0;0;0
2024-11-05_10-19-31.591783;169353;-18.666626;24.25;0.962917;3.167084;65535.0;-0.030273;0.021484;1.793945;-60000;-60000;7164;0;0;0
2024-11-05_10-19-31.685553;169567;-22.666626;24.1875;0.77;3.167917;65535.0;-0.038086;0.014648;1.729492;20000;20000;7279;0;0;0
2024-11-05_10-19-31.826519;169567;-22.666626;24.1875;0.77;3.167917;65535.0;-0.038086;0.014648;1.729492;20000;20000;7426;0;0;0
2024-11-05_10-19-32.109411;170011;-13.333374;24.25;0.475833;3.1725;65535.0;-0.036133;0.017578;1.713867;20000;20000;7707;0;0;0
2024-11-05_10-19-32.313175;170228;-13.333374;24.25;0.26125;3.18;65535.0;-0.038086;0.015625;1.701172;20000;20000;7899;0;0;0
2024-11-05_10-19-32.516821;170228;-13.333374;24.25;0.26125;3.18;65535.0;-0.038086;0.015625;1.701172;20000;20000;8066;0;0;0
2024-11-05_10-19-32.626569;170451;-13.333374;24.25;0.057917;3.1725;65535.0;-0.036133;0.015625;1.711914;20000;20000;8207;0;0;0
2024-11-05_10-19-32.782837;170668;-8.0;24.25;0.021667;3.172917;65535.0;-0.039062;0.010742;1.6875;20000;20000;8378;0;0;0
2024-11-05_10-19-33.018564;170891;-8.0;24.25;0.021667;3.172917;65535.0;-0.038086;0.013672;1.688477;20000;20000;8599;0;0;0
2024-11-05_10-19-33.096087;170891;-8.0;24.25;0.021667;3.172917;65535.0;-0.038086;0.013672;1.688477;20000;20000;8697;0;0;0
2024-11-05_10-19-33.347112;171108;-13.333374;24.25;0.021667;3.177917;65535.0;-0.039062;0.017578;1.686523;0;0;11;0;0;0
2024-11-05_10-19-33.613585;171331;-17.333374;24.25;0.021667;3.177917;65535.0;-0.039062;0.010742;1.686523;0;0;245;0;0;0
2024-11-05_10-19-33.707318;171548;-17.333374;24.25;0.021667;3.177917;65535.0;-0.038086;0.017578;1.699219;5000;5000;372;0;0;0
2024-11-05_10-19-33.847981;171772;-22.666626;24.3125;0.044583;3.192083;65535.0;-0.035156;0.015625;1.708008;5000;5000;521;0;0;0
2024-11-05_10-19-34.099191;171991;-22.666626;24.3125;0.05125;3.180834;65535.0;-0.039062;0.018555;1.707031;10000;10000;764;0;0;0
2024-11-05_10-19-34.239827;171991;-22.666626;24.3125;0.05125;3.180834;65535.0;-0.039062;0.018555;1.707031;15000;15000;910;0;0;0
2024-11-05_10-19-34.411935;172212;-18.666626;24.3125;0.05375;3.188334;65535.0;-0.038086;0.018555;1.71582;15000;15000;1077;0;0;0
2024-11-05_10-19-34.583915;172428;-25.333374;24.3125;0.044583;3.18625;65535.0;-0.037109;0.020508;1.727539;20000;20000;1246;0;0;0
2024-11-05_10-19-34.787423;172665;-25.333374;24.3125;0.04;3.178333;65535.0;-0.03418;0.015625;1.729492;20000;20000;1447;0;0;0
2024-11-05_10-19-34.974930;172892;-30.666626;24.3125;0.07625;3.18375;65535.0;-0.035156;0.017578;1.722656;25000;25000;1631;0;0;0
2024-11-05_10-19-35.131796;172892;-30.666626;24.3125;0.07625;3.18375;65535.0;-0.035156;0.017578;1.722656;25000;25000;1780;0;0;0
2024-11-05_10-19-35.272465;173118;-37.333374;24.3125;0.09625;3.18625;65535.0;-0.036133;0.017578;1.71875;30000;30000;1932;0;0;0
2024-11-05_10-19-35.460701;173344;-36.0;24.3125;0.0425;3.184167;65535.0;-0.03418;0.017578;1.717773;35000;35000;2124;0;0;0
2024-11-05_10-19-35.632536;173561;-36.0;24.3125;0.030833;3.183333;65535.0;-0.036133;0.015625;1.708984;35000;35000;2301;0;0;0
2024-11-05_10-19-35.920350;173780;-38.666626;24.375;0.04875;3.187917;65535.0;-0.036133;0.017578;1.701172;40000;40000;2542;0;0;0
2024-11-05_10-19-36.087502;174004;-34.666626;24.3125;0.050833;3.185;65535.0;-0.036133;0.021484;1.695312;40000;40000;2742;0;0;0
2024-11-05_10-19-36.228196;174004;-34.666626;24.3125;0.050833;3.185;65535.0;-0.036133;0.021484;1.695312;45000;45000;2891;0;0;0
2024-11-05_10-19-36.384905;174218;-34.666626;24.375;0.07875;3.18875;65535.0;-0.03418;0.023438;1.700195;45000;45000;3030;0;0;0
2024-11-05_10-19-36.525485;174442;-38.666626;24.375;0.06375;3.18875;65535.0;-0.035156;0.024414;1.693359;50000;50000;3182;0;0;0
2024-11-05_10-19-36.684135;174442;-38.666626;24.375;0.06375;3.18875;65535.0;-0.035156;0.024414;1.693359;50000;50000;3342;0;0;0
2024-11-05_10-19-36.932832;174658;-53.333374;24.375;0.037083;3.191667;51519.0;-0.033203;0.020508;1.678711;55000;55000;3601;0;0;0
2024-11-05_10-19-37.194061;174878;-50.666626;24.375;0.429583;3.055;65535.0;-0.033203;0.019531;1.678711;55000;55000;3826;0;0;0
2024-11-05_10-19-37.309984;175101;-48.0;24.375;0.70375;3.048333;65535.0;-0.02832;0.023438;1.679688;-100000;-100000;3972;0;0;0
2024-11-05_10-19-37.451471;175318;-36.0;24.375;0.80125;3.04125;65535.0;-0.02832;0.017578;1.642578;-100000;-100000;4122;0;0;0
2024-11-05_10-19-37.623338;175541;4.0;24.4375;0.90875;3.044583;65535.0;-0.016602;0.004883;1.688477;-100000;-100000;4282;0;0;0
2024-11-05_10-19-37.795956;175541;4.0;24.4375;0.90875;3.044583;65535.0;-0.016602;0.004883;1.688477;-100000;-100000;4442;0;0;0
2024-11-05_10-19-37.921471;175758;90.666748;24.4375;0.984167;3.06125;65535.0;-0.045898;0.02832;1.518555;-100000;-100000;4580;0;0;0
2024-11-05_10-19-38.125584;175981;186.666748;24.4375;1.009167;3.075417;65535.0;-0.023438;0.016602;1.580078;-100000;-100000;4801;0;0;0
2024-11-05_10-19-38.407746;176198;322.666748;24.4375;1.040833;3.076667;65535.0;-0.024414;0.021484;1.552734;-100000;-100000;5034;0;0;0
2024-11-05_10-19-38.596387;176421;136.0;24.4375;1.042083;3.076667;65535.0;-0.020508;0.017578;1.523438;20000;20000;5252;1;0;0
2024-11-05_10-19-38.721383;176421;136.0;24.4375;1.042083;3.076667;65535.0;-0.020508;0.017578;1.523438;20000;20000;5382;1;0;0
2024-11-05_10-19-38.862193;176646;86.666748;24.4375;1.329167;3.400834;65535.0;-0.003906;0.008789;1.578125;20000;20000;5532;1;0;0
2024-11-05_10-19-39.019094;176882;30.666626;24.4375;1.197083;3.304584;65535.0;-0.008789;0.021484;1.447266;20000;20000;5692;0;1;0
2024-11-05_10-19-39.254329;177102;37.333374;24.4375;1.025417;3.109584;65535.0;-0.012695;0.021484;1.371094;20000;20000;5931;0;0;0
2024-11-05_10-19-39.348040;177102;37.333374;24.4375;1.025417;3.109584;65535.0;-0.012695;0.021484;1.371094;20000;20000;6022;0;0;0
2024-11-05_10-19-39.536745;177318;48.0;24.4375;1.0275;3.13125;65535.0;-0.010742;0.018555;1.294922;20000;20000;6170;0;0;0
2024-11-05_10-19-39.646386;177541;54.666748;24.4375;1.01125;3.1325;65535.0;-0.013672;0.020508;1.254883;20000;20000;6321;0;0;0
2024-11-05_10-19-39.896382;177758;64.0;24.4375;1.000833;3.140834;65535.0;-0.010742;0.02832;1.206055;20000;20000;6541;0;0;0
2024-11-05_10-19-40.100374;177981;68.0;24.5;1.000833;3.150833;65535.0;-0.010742;0.024414;1.174805;20000;20000;6755;0;0;0
2024-11-05_10-19-40.319300;178201;68.0;24.4375;1.000833;3.15875;65535.0;-0.016602;0.023438;1.143555;-60000;-60000;6977;0;0;0
2024-11-05_10-19-40.429176;178201;68.0;24.4375;1.000833;3.15875;65535.0;-0.016602;0.023438;1.143555;-60000;-60000;7102;0;0;0
2024-11-05_10-19-40.711433;178426;73.333252;24.5;1.000833;3.169584;65535.0;-0.016602;0.024414;1.117188;20000;20000;7336;1;0;0
2024-11-05_10-19-40.914812;178641;66.666748;24.5;0.842917;3.175833;65535.0;-0.010742;0.023438;1.107422;20000;20000;7582;1;0;0
2024-11-05_10-19-41.071536;178858;81.333252;24.5;0.822083;3.255;65535.0;-0.014648;0.015625;1.081055;20000;20000;7730;0;0;0
2024-11-05_10-19-41.212820;179081;81.333252;24.5;0.76625;3.2475;65535.0;-0.015625;0.023438;1.078125;20000;20000;7882;0;0;0
2024-11-05_10-19-41.385290;179298;81.333252;24.5;0.355833;3.21125;65535.0;-0.012695;0.019531;1.064453;20000;20000;8042;0;0;0
